time,seconds_elapsed,z,y,x
1772045481231034600,0.04003466796875,0.9929670814990996,0.28198212741315365,0.24691432116329667
1772045481241019400,0.050019287109375,1.2078256377100944,0.24742694686055183,0.23176238127145915
1772045481251005400,0.06000537109375,1.324193424552679,0.25071225214153525,0.2079335061881691
1772045481260991200,0.0699912109375,1.3244938688039778,0.12522212442755698,0.27196022561984134
1772045481270976500,0.0799765625,1.2351286551773548,-0.027955928418040274,0.35854068563245234
1772045481280962600,0.089962646484375,1.07463472636044,-0.10539514192938804,0.4151108602467924
1772045481290948400,0.0999482421875,1.000489878219366,-0.11755991923660039,0.4798518471613526
1772045481300933400,0.109933349609375,1.0379606539577244,-0.12535948707163333,0.5185617362406104
1772045481310919400,0.11991943359375,1.1727478945881127,-0.0058443421140313145,0.5194004520870745
1772045481320905500,0.129905517578125,1.4471207160413264,0.17263561750948428,0.5139470820520073
1772045481330890500,0.139890380859375,1.7814041085779666,0.33837913741767406,0.5299709094075485
1772045481340876300,0.149876220703125,2.2123107230454684,0.639583267173171,0.4519578049983829
1772045481350862600,0.159862548828125,2.5388953777730463,0.7980655639067292,0.43232795250751077
1772045481360847400,0.169847412109375,2.574243754529953,0.5764417513445019,0.6077927655609324
1772045481370833400,0.17983349609375,2.5961060422480107,0.31563217581957576,0.7997326203361154
1772045481380819200,0.189819091796875,2.5981746652156112,0.43306086989194154,0.7101661119837314
1772045481390804500,0.199804443359375,2.5524422570884227,0.6495984652310609,0.48270913628861306
1772045481400790500,0.20979052734375,2.454685647213459,0.8473787531301379,0.10766100450213997
1772045481410776300,0.2197763671875,2.3458330583065745,0.8923404691457748,-0.19616985702775416
1772045481420761300,0.22976123046875,2.3234347640156745,1.101254145477712,-0.3990512674581259
1772045481430747400,0.239747314453125,2.344599717119336,1.3722303102299571,-0.4366820925964042
1772045481440733400,0.2497333984375,2.3623674290001393,1.6001628675475716,-0.5260622480638325
1772045481450718500,0.259718505859375,2.3705296926677226,1.6710522210240364,-0.4325183605130762
1772045481460704300,0.269704345703125,2.2957319335758686,1.5881068113118408,0.05110076675992459
1772045481470690600,0.279690673828125,2.2187311114817856,1.4342273321986199,0.2609978463723324
1772045481480675600,0.289675537109375,2.330207619151473,1.4604872703537344,0.15370635103601962
1772045481490661400,0.299661376953125,2.0215379758208987,1.3314198686748742,0.10996670589493587
1772045481500647400,0.3096474609375,0.8952963963419198,1.0858502401188015,-0.018245887319184837
1772045481510632400,0.319632568359375,-0.1070657054901123,0.9198968768522143,-0.2607351768481545
1772045481520618500,0.329618408203125,-0.6483119325518608,1.0163581862196325,-0.5007841240203008
1772045481530604300,0.339604248046875,-1.0004746806502343,0.5547103965297341,-0.4067292547401041
1772045481540589300,0.34958935546875,-1.6909382402330635,-0.657470513780415,0.008284501807764173
1772045481550575600,0.35957568359375,-3.3187323342889545,-1.7411854954361914,-0.012193523911084048
1772045481560561400,0.3695615234375,-5.771417747595906,-2.5254332541316744,-0.45252705625370143
1772045481570546400,0.37954638671875,-7.7623606786668295,-3.177178960524499,-0.9628417731527239
1772045481580532500,0.389532470703125,-9.126378748607635,-3.663914137458801,-1.471180952195078
1772045481590518500,0.3995185546875,-10.147242721813917,-4.166863074830174,-1.607139866953343
1772045481600503600,0.409503662109375,-10.86903256303072,-4.263753131003678,-1.3873866705685853
1772045481610489300,0.4194892578125,-11.548307789123058,-3.849788006725907,-1.0002219479981809
1772045481620475600,0.4294755859375,-12.163188576716184,-3.487093343219161,-0.27467582298778
1772045481630460400,0.43946044921875,-12.218815186870097,-3.3351220358148215,0.28372084257295355
1772045481640446500,0.449446533203125,-11.501387047994136,-3.2311367606833574,0.44685843603275716
1772045481650432300,0.459432373046875,-10.49375314323902,-3.120494365750253,0.3225399459140375
1772045481660417500,0.46941748046875,-9.244393718135356,-2.88631093134433,0.08017039204090833
1772045481670403600,0.479403564453125,-7.8495941409617656,-2.8234967477738855,-0.40676578735820945
1772045481680389400,0.489389404296875,-6.618396980014443,-2.4726333918362853,-0.7433657132089138
1772045481690374400,0.49937451171875,-5.700810425931215,-2.0546184076458216,-1.0786537527434528
1772045481700360400,0.5093603515625,-4.4886891368538135,-1.4912652704551814,-1.5119802878342568
1772045481710346500,0.519346435546875,-3.0127468154758215,-0.42117286369949575,-1.2626213499978185
1772045481720331500,0.52933154296875,-1.3816004883825779,0.5210813909113406,-0.5137212739394977
1772045481730317300,0.5393173828125,0.32713001365065575,1.012722460065782,-0.1513156930398196
1772045481740303600,0.5493037109375,1.870807900649309,1.3435162569209933,-0.5361126635655761
1772045481750288400,0.559288330078125,3.297679609388113,1.3528107394888997,-1.049777202349156
1772045481760274400,0.5692744140625,4.647236023256182,1.1749427742838858,-1.646779657293856
1772045481770260200,0.57926025390625,5.554187786078453,1.1631181887164712,-1.8606385349430143
1772045481780245500,0.58924560546875,5.800199020922184,1.4949787380203603,-1.367877667978406
1772045481790231600,0.5992314453125,5.911580836045742,1.9415633986130356,-0.2798292236955836
1772045481800217300,0.60921728515625,6.12521891055107,2.477559157800674,0.8612868669733404
1772045481810202400,0.619202392578125,7.515994054514169,3.4203906277775764,0.849579185783863
1772045481820188400,0.6291884765625,8.52533184057772,3.225123199482262,1.611431718928367
1772045481830174500,0.639174560546875,8.535345285069942,2.277731289722025,2.505526776656508
1772045481840159500,0.649159423828125,8.820493767559528,2.4734072988182305,1.9083149167448281
1772045481850145300,0.659145263671875,8.885276328593491,2.5097382568717,1.7423878569632767
1772045481860131600,0.669131591796875,8.775000428885221,2.2509581413477657,1.6751617021694778
1772045481870116400,0.679116455078125,8.688815014338493,2.1300795990824697,1.4954809884540736
1772045481880102400,0.689102294921875,8.52857885967493,2.1560504911631346,1.4893515457883477
1772045481890088200,0.699088134765625,8.212632503339648,2.2684885373413564,1.4751719215273855
1772045481900073500,0.709073486328125,7.71564218211174,2.316852170754969,1.376583244742453
1772045481910059500,0.7190595703125,7.165899344861507,2.3512360863938926,1.148836273124814
1772045481920045300,0.72904541015625,6.684058077448606,2.4549495588466526,0.9105088707819581
1772045481930030300,0.7390302734375,6.194930744680762,2.7019600338608023,0.7287975280217825
1772045481940016400,0.749016357421875,5.567367001125216,2.8707155950665473,0.43710616322737184
1772045481950002400,0.75900244140625,5.030888719117641,3.0571371613442895,-0.20627510798927395
1772045481959987500,0.768987548828125,4.575450889983773,3.247868699775636,-0.7207508535578846
1772045481969973200,0.77897314453125,4.180729687619209,3.308638810297847,-0.9547374502174556
1772045481979959600,0.78895947265625,3.6486645458787677,3.4027734302833674,-0.9272507467463612
1772045481989945300,0.7989453125,2.967193271046877,3.3204078662857412,-0.5568425131876021
1772045481999930400,0.808930419921875,2.13550571578443,3.0265248731985688,-0.5816449825434014
1772045482009916400,0.81891650390625,1.0584089832246304,2.3098776555672287,-0.9308855961173772
1772045482019902200,0.828902099609375,-0.429039067029953,1.0068985762178897,-1.2111783091388642
1772045482029887200,0.83888720703125,-2.022690652987361,-0.705074853259325,-0.9294136969339102
1772045482039873000,0.848873046875,-3.3476550619125365,-2.704554726529121,-0.26983547028452154
1772045482049859300,0.858859375,-4.773683890086412,-4.818079496651888,0.7132805176772177
1772045482059844400,0.86884423828125,-6.830540432047844,-6.6018018190443515,1.5638041447043418
1772045482069830100,0.878830078125,-8.670874283978343,-7.961247758764028,1.3152603226430712
1772045482079816200,0.888816162109375,-8.628007202154398,-8.776552919024228,0.5844818499371409
1772045482089801000,0.898801025390625,-8.563254451736807,-8.717677536207438,0.12686198232276363
1772045482099787300,0.908787353515625,-10.550528923428057,-7.090161090049147,-0.5946917303169146
1772045482109773000,0.91877294921875,-14.176183765119314,-4.671388467738032,-1.5215807676114141
1772045482119758000,0.928758056640625,-18.03647036950588,-3.268820010128617,-1.986187114845961
1772045482129744400,0.938744384765625,-20.023667099785804,-2.969945784625411,-2.262445896176249
1772045482139730200,0.948730224609375,-19.044127655136585,-3.422610641914606,-2.383561608198285
1772045482149715200,0.958715087890625,-15.347220764136313,-3.605001929762959,-2.107150120524317
1772045482159701000,0.968700927734375,-11.03600474795103,-4.063556429612636,-1.473921629205346
1772045482169687300,0.978687255859375,-7.100661441275477,-4.2802842868268485,-0.6849842513889074
1772045482179672300,0.98867236328125,-4.099775159463286,-3.620888650202751,-0.21405662871096282
1772045482189658000,0.998658203125,-2.422719314110279,-2.262157580754161,0.21845650763772426
1772045482199644200,1.00864404296875,-1.3341758893847464,-0.8204033601820468,1.0640876133829356
1772045482209629200,1.018629150390625,0.05950199028253555,0.39721535726785656,1.7231123708680272
1772045482219615200,1.028615234375,1.872452745246887,1.2295903102725743,1.7064458982273936
1772045482229601000,1.03860107421875,3.4868548582881687,1.8649813864529132,0.9518879790704697
1772045482239587300,1.04858740234375,4.587837493348121,2.0083260275483132,0.04655256540365517
1772045482249572400,1.058572265625,5.6538464301824565,2.1660879010528324,-0.7734634759612381
1772045482259558100,1.06855810546875,6.726105075061321,2.3926138064429163,-1.1935840541288256
1772045482269544200,1.078544189453125,7.535981196010113,2.755167600174248,-1.1289039305560291
1772045482279529200,1.088529296875,7.831356473481654,3.2886241962730884,-0.7069292489543557
1772045482289515300,1.098515380859375,7.654352139368653,3.8656542688995597,-0.1181007115824148
1772045482299501000,1.1085009765625,7.278349081477522,4.350824680735171,0.435098184405826
1772045482309486000,1.118486083984375,6.990001510685682,4.535705739572644,0.8353783726043998
1772045482319472000,1.12847216796875,6.9443047583937645,4.37584367891848,0.9596178426701575
1772045482329458200,1.138458251953125,7.116669157746434,4.047188063135743,0.8706766266092657
1772045482339443200,1.148443115234375,7.413422737833857,3.739611475738883,0.5745254693944006
1772045482349429200,1.15842919921875,7.748518031275272,3.39491687156409,0.21902016940247265
1772045482359415300,1.168415283203125,8.051673879620433,2.985444090269506,-0.12908048035614192
1772045482369401300,1.1784013671875,8.237300496128201,2.6175612104699013,-0.40003976703882216
1772045482379386000,1.18838623046875,8.282073119312525,2.470593994963169,-0.5687082344830036
1772045482389372200,1.1983720703125,8.166203345119953,2.461572484117746,-0.7095328555814922
1772045482399358200,1.208358154296875,7.89020672185719,2.547741824312508,-0.9048290715798735
1772045482409343200,1.21834326171875,7.463353766694665,2.6492580789819358,-1.03358879554905
1772045482419329300,1.228329345703125,7.089846032750606,2.7177809955880043,-0.9721062259085476
1772045482429315000,1.238315185546875,6.868012961351871,2.8078891365364194,-0.837949976658076
1772045482439300400,1.24830029296875,6.7323278950989245,2.7816315364688635,-0.6524564119454472
1772045482449286100,1.2582861328125,6.514696367043256,2.63890882666409,-0.5897953365774825
1772045482459272200,1.268272216796875,6.145749657404423,2.442742111441493,-0.7307110334929079
1772045482469257200,1.27825732421875,5.493917149510979,2.1325907051205633,-0.9755174956567585
1772045482479243300,1.2882431640625,4.450034119766951,1.8528037496641276,-1.506565569309145
1772045482489229300,1.298229248046875,2.8549013553410765,1.485469735918939,-1.9148457798182963
1772045482499215000,1.308215087890625,0.6778197665870189,1.1020330208957194,-2.0074406230159103
1772045482509200100,1.3182001953125,-1.6213514937877653,0.5358431989744306,-1.5945971962444483
1772045482519186200,1.328186279296875,-3.5037113005429505,-0.9891028072863817,-0.6442780008606612
1772045482529172200,1.338172119140625,-4.7573003260403866,-3.740849493101239,0.6228472364276647
1772045482539157200,1.3481572265625,-5.7124353972733015,-7.506437121617793,1.9245418289244174
1772045482549143000,1.35814306640625,-6.909879341700672,-10.5535473944664,1.7436726360768078
1772045482559129300,1.36812939453125,-8.442443129488826,-11.22701948723793,-0.07296699543416034
1772045482569114000,1.378114013671875,-8.44627700856328,-11.044071150028705,-0.6846391642782836
1772045482579100200,1.38810009765625,-8.453024729257821,-9.769663792908192,-0.43375692586470393
1772045482589086200,1.398086181640625,-11.508805799818038,-5.883444290363788,-1.7607561650857328
1772045482599072300,1.408072265625,-16.526588369125125,-2.407413608428836,-2.8962112708508965
1772045482609057300,1.418057373046875,-21.379222461807725,-0.9711568162292241,-3.339869230341911
1772045482619043000,1.42804296875,-22.856713766193387,-0.11282353836447,-3.402415995147824
1772045482629029400,1.438029296875,-20.326846913528442,-0.24084289229512212,-2.5371418121039864
1772045482639014100,1.44801416015625,-15.439038631612062,-0.8548600487962364,-1.774390722684562
1772045482649000200,1.458000244140625,-10.211342561280727,-1.544545902004838,-1.599511417901516
1772045482658986000,1.467986083984375,-5.526801766502857,-2.3748808736145497,-1.5775889244288206
1772045482668972300,1.47797216796875,-1.9287749364495277,-2.6133225499868393,-1.6108299536429345
1772045482678957300,1.487957275390625,0.2825198875516653,-2.125126360589266,-1.178910655001551
1772045482688943000,1.497943115234375,1.332906892362237,-1.0510305634111166,-0.12297354178316891
1772045482698929200,1.50792919921875,1.5600754795700311,0.3541290797352791,0.9117403122730553
1772045482708914200,1.5179140625,1.4763374581754207,1.5767837455257772,1.3557880017340183
1772045482718900200,1.527900146484375,1.6819617375731468,2.4985683358207345,1.1736547072347252
1772045482728886000,1.537885986328125,2.25673204857409,3.036283758407831,0.756296725648269
1772045482738871000,1.54787109375,3.090213501515984,3.0955194989696144,0.3235639917321503
1772045482748857300,1.557857421875,4.123554678979516,3.1130180385202166,-0.08889291993975638
1772045482758843100,1.567843017578125,5.108349559938907,3.1838311118900773,-0.3060180693758651
1772045482768829200,1.5778291015625,5.8953603536069386,3.2770871954753993,-0.21794041134174913
1772045482778814000,1.58781396484375,6.44738165718317,3.52594300609529,0.039622747874166815
1772045482788800300,1.59780029296875,6.753778094884753,3.775348267291486,0.4422789262227714
1772045482798786000,1.6077861328125,6.8678457880914205,4.01266356998235,0.9036284636184573
1772045482808772000,1.617772216796875,6.827812468388676,4.2196252354636785,1.3439970261752605
1772045482818757400,1.62775732421875,6.810103793218731,4.262006287336349,1.7103655558891593
1772045482828743200,1.6377431640625,6.883954042327404,4.1966704763337965,1.8910127765491604
1772045482838729200,1.647729248046875,7.124632099449634,4.066171580547094,1.8562478987686335
1772045482848714200,1.65771435546875,7.481849208328128,3.888768602505326,1.6414005946040153
1772045482858700300,1.6677001953125,7.882190588662028,3.703360889445245,1.2662963852487503
1772045482868686000,1.67768603515625,8.228451419240235,3.5519986538499593,0.7808945758100598
1772045482878672100,1.687672119140625,8.45789262755513,3.428229943101108,0.4402728836299851
1772045482888657200,1.6976572265625,8.430330082368851,3.454732750101387,0.14327946690469978
1772045482898643200,1.707643310546875,7.975589003327489,3.573304476729035,-0.06323986163660883
1772045482908629200,1.717629150390625,7.293043377262354,3.6894475149050354,-0.2582493331154808
1772045482918614300,1.7276142578125,6.515494823944568,3.8053243033602833,-0.6548224834896623
1772045482928600000,1.73760009765625,5.688787979704141,3.7913209124490614,-1.1623984230745583
1772045482938586000,1.747586181640625,5.184899131134152,3.6127734405472873,-1.6997611597664652
1772045482948572200,1.757572265625,5.020807470086217,3.290099237261712,-2.06984417995885
1772045482958557200,1.76755712890625,4.910438046875596,2.934331158147752,-2.185434260427207
1772045482968543200,1.777543212890625,4.568994261190295,2.6079303355544803,-1.990238436063379
1772045482978529300,1.787529296875,3.7280882112056015,2.2600673304766414,-1.7732953286632895
1772045482988515000,1.79751513671875,1.959481624880433,1.4883631192728877,-1.580139485694468
1772045482998500000,1.8075,-0.6216448749005794,0.02427431729584932,-1.053326711524278
1772045483008486100,1.817486083984375,-3.465317564740777,-2.4578879503861066,0.3544956845579669
1772045483018472200,1.82747216796875,-5.678116948086023,-6.324919645118713,2.861245755931735
1772045483028457200,1.837457275390625,-6.9795327236413955,-10.178298369812964,4.447134306672215
1772045483038443300,1.847443359375,-6.771669725406169,-12.434632358980178,3.672781919047236
1772045483048429300,1.85742919921875,-6.243447815090417,-14.341438624727726,2.8180972268179056
1772045483058415000,1.8674150390625,-5.7237166697442525,-13.989481628334522,2.479456223593652
1772045483068400400,1.877400390625,-8.133130512079596,-10.305228467202186,1.2182991009294986
1772045483078386400,1.887386474609375,-13.96615569780469,-5.672477480894327,-0.06317402985878288
1772045483088372200,1.897372314453125,-21.00915697727203,-2.2693773028746245,-0.6469102490603923
1772045483098358300,1.907358154296875,-25.966802765524385,-0.9929290875762701,-0.1950343867244199
1772045483108343300,1.91734326171875,-26.349804888522623,-1.1210501483157276,-0.07659377566315233
1772045483118329300,1.927329345703125,-22.147475948035716,-2.0509157537356018,-0.4004165644619614
1772045483128315100,1.937315185546875,-15.704334412640332,-2.6902695960670706,-1.0965620421387254
1772045483138301400,1.947301513671875,-10.202209991276263,-3.6326249729648232,-2.093941533252597
1772045483148286500,1.957286376953125,-5.765934347748756,-4.5668984579548235,-1.8513889144301414
1772045483158272300,1.967272216796875,-2.0457564712762832,-3.745043729920685,-0.4184045680299401
1772045483168258300,1.97725830078125,0.558987050935626,-2.108579130414128,1.4738513404481113
1772045483178244400,1.987244384765625,1.854230275335908,-0.2902405449315905,2.739730961589515
1772045483188229400,1.9972294921875,2.284399223178625,1.3110665242150426,2.988300648744404
1772045483198215200,2.007215087890625,2.6808868506938217,2.4193705882042646,2.6185490524634716
1772045483208201200,2.017201171875,3.5388773064702748,3.1257804894596335,2.2294266930192705
1772045483218187300,2.027187255859375,4.67698760291934,3.7565129261791705,1.990352417831868
1772045483228172300,2.03717236328125,5.733910146978497,4.186197013114392,1.3962234724968672
1772045483238158300,2.047158447265625,6.453844715717435,4.306022831456363,0.5859026765204965
1772045483248144400,2.057144287109375,6.871678498122096,4.4879543928384775,0.06865008664969355
1772045483258129400,2.06712939453125,7.163070843437314,4.837573886194825,0.13655275246556847
1772045483268115200,2.077115234375,7.439231132829189,5.141043622794747,0.5586179253622889
1772045483278101200,2.087101318359375,7.7094550179094075,5.383142068108916,1.0596868211407213
1772045483288087300,2.09708740234375,7.943907332384586,5.533145582571626,1.4539659057609735
1772045483298073300,2.1070732421875,8.208871104979515,5.488444271057844,1.6961679575800894
1772045483308058400,2.117058349609375,8.549698220071196,5.311306665953993,1.642421462084353
1772045483318044200,2.127044189453125,8.839162812194228,5.06442390897274,1.3370926536142824
1772045483328030500,2.137030517578125,9.106420833206176,4.776773965056241,0.8370951133944093
1772045483338016300,2.147016357421875,9.385943292507529,4.489572641690075,0.22727827639365566
1772045483348001300,2.157001220703125,9.580697218322753,4.227528555934131,-0.3327519451856613
1772045483357987000,2.166987060546875,9.572716156440972,4.038803388889134,-0.7044790793232619
1772045483367973400,2.176973388671875,9.368611633956432,3.9799715529531237,-0.8405144203186035
1772045483377959200,2.186959228515625,8.980240677401422,3.9650390644982454,-0.9578216799683869
1772045483387944200,2.196944091796875,8.29250683504343,3.9566561438173053,-1.1842549386389554
1772045483397930500,2.206930419921875,7.365539289152622,3.8684693263202905,-1.4847705016084014
1772045483407916300,2.216916259765625,6.608728403437137,3.704323304736614,-1.8231041924491524
1772045483417902300,2.22690234375,6.109658353325724,3.616162206202745,-2.2353758106820285
1772045483427887000,2.23688720703125,5.699153306373954,3.42905558027029,-2.68666280374676
1772045483437873400,2.246873291015625,5.18577883657813,3.2795357576712965,-2.9781746837884184
1772045483447859200,2.256859130859375,4.439584037423134,3.098664811258018,-2.879624585448205
1772045483457845200,2.26684521484375,3.1346395032197236,2.696946297352016,-2.387471328987926
1772045483467830300,2.276830322265625,1.0851584584623575,1.8693594554066657,-1.8381598688922822
1772045483477816300,2.28681640625,-1.5429682774245739,0.1396820269346237,-1.348811148458719
1772045483487802400,2.29680224609375,-4.101697651958466,-3.3672175482556224,0.36345081563629206
1772045483497788200,2.3067880859375,-5.769773487520218,-7.800466829699277,3.1182065470740197
1772045483507773200,2.316773193359375,-6.382840503689646,-10.22927803094387,4.039992890934646
1772045483517759200,2.32675927734375,-6.837457664090395,-10.884552788245678,3.0439515165567395
1772045483527745300,2.336745361328125,-7.933335084965824,-10.522395884877442,1.0884325116969644
1772045483537731000,2.34673095703125,-10.059112018418311,-8.442147945934533,-1.1886124762613326
1772045483547716400,2.35671630859375,-15.264094737160205,-6.39631782490015,-2.7013705435350537
1772045483557702400,2.366702392578125,-21.241927622270584,-4.352971921896934,-3.9784614406511185
1772045483567688200,2.376688232421875,-24.534890140008926,-3.8097289680600164,-3.5833246432229875
1772045483577674500,2.386674560546875,-24.83690090997219,-4.235652825678884,-1.6937437991730868
1772045483587659300,2.3966591796875,-21.900398545265197,-4.572318437176943,-0.0869108792770654
1772045483597645300,2.406645263671875,-17.365948943233487,-5.610634480443596,0.2242902918251231
1772045483607631000,2.416631103515625,-12.669755120062828,-6.7995596028506755,-0.4149933713469654
1772045483617617400,2.426617431640625,-8.367302840569614,-7.271570381122827,-1.0403685918822885
1772045483627603200,2.436603271484375,-5.050633284029364,-6.2306532154470675,-1.6442210588522255
1772045483637588200,2.446588134765625,-3.056168608573079,-4.7042169706285,-1.9122884965509175
1772045483647574300,2.45657421875,-1.8133908999472856,-3.1867753486484287,-2.2347315214291212
1772045483657560300,2.466560302734375,-0.4412432995647192,-1.5415525654077529,-2.2346751150667665
1772045483667546400,2.47654638671875,1.4452350484251975,0.14187047688961027,-1.728816866119951
1772045483677531100,2.48653125,3.5172435668110844,1.6452520093351601,-0.9438775449637323
1772045483687517200,2.49651708984375,5.283791467040777,2.9334178426951167,-0.2941228662576526
1772045483697503200,2.506503173828125,6.664566610515117,3.9078178786292668,0.257354539700225
1772045483707489300,2.5164892578125,7.791795447465777,4.543437795129418,0.5534706256017089
1772045483717474300,2.526474365234375,8.52887579679489,5.039890356218814,0.601498524254933
1772045483727460400,2.53646044921875,8.913288371112943,5.533508570665121,0.7312665484838188
1772045483737446400,2.5464462890625,8.966827069076896,6.081272216796875,1.1514434599485248
1772045483747432200,2.55643212890625,8.673634396341443,6.616943858596682,1.6967647544294595
1772045483757418200,2.566418212890625,7.989410607931017,6.970035996499657,2.1383105440720915
1772045483767403300,2.5764033203125,7.441759190002084,6.9760881361454725,2.4115040926128626
1772045483777389300,2.586389404296875,7.6344363095432515,6.752392193484306,2.315222669856995
1772045483787375000,2.596375,8.401140228241681,6.304058058875799,1.828457243914902
1772045483797361400,2.606361328125,9.333841349348425,5.635984610277414,1.2145778884492813
1772045483807346400,2.616346435546875,10.48493153887987,4.915530401578545,0.5611235515076667
1772045483817332200,2.626332275390625,11.562542066180706,4.323350690615177,-0.09062160689588636
1772045483827318300,2.636318359375,12.133164025330542,4.002434729173779,-0.5644858310149983
1772045483837304300,2.64630419921875,11.860348954713343,4.05266707906872,-0.8176944665495306
1772045483847289300,2.656289306640625,10.788183833336829,4.357094262523949,-0.8267310288336127
1772045483857275100,2.666275146484375,9.535835163289308,4.695318501640856,-0.6658896017532795
1772045483867261200,2.67626123046875,8.521667472851275,5.056577287125587,-0.4806267770566046
1772045483877247200,2.686247314453125,7.622214541351795,5.205692328315973,-0.3773855982907116
1772045483887233300,2.6962333984375,6.6510910428702825,5.227953844484687,-0.5073152428220957
1772045483897218300,2.70621826171875,5.819137530148029,5.171891181001067,-0.7884960637897253
1772045483907204400,2.716204345703125,5.1113838130682705,4.9953416049182415,-1.225124636100605
1772045483917190400,2.7261904296875,4.313040309002996,4.864456924684346,-1.7723215151950715
1772045483927176200,2.73617626953125,3.128639386022091,4.637977781045437,-2.112694895169884
1772045483937161200,2.7461611328125,1.5030980393290518,4.366536629129946,-2.1476256310366093
1772045483947147300,2.756147216796875,-0.419286903822422,3.8259868598997593,-2.0732918361946937
1772045483957133300,2.76613330078125,-2.6272072829544544,3.0929306515201924,-1.8902178267791867
1772045483967119000,2.776119140625,-4.516089184954763,1.8392589161753654,-1.0400624485425651
1772045483977105400,2.78610546875,-5.612994195312261,-0.5851099187076091,0.7550092431209982
1772045483987090400,2.79609033203125,-6.1093403734177345,-4.070848340186476,2.8382570945322514
1772045483997076200,2.806076171875,-6.273191211447119,-7.737336127525568,4.2397988394424315
1772045484007062300,2.816062255859375,-6.343066711705923,-10.104742135214805,3.864482887032628
1772045484017048600,2.826048583984375,-7.1453989931464195,-11.061333250474929,1.669074198949337
1772045484027033900,2.836033935546875,-9.888239903450012,-10.24910267535448,-2.512248778387904
1772045484037019600,2.84601953125,-14.983835195755958,-8.322303422892093,-6.305559111088514
1772045484047005700,2.856005615234375,-21.791368846225737,-5.629363146311045,-8.501782622686028
1772045484056991500,2.865991455078125,-27.400148638713357,-3.3484614098593593,-8.927290008458495
1772045484066976800,2.875976806640625,-28.98415152183771,-2.0167793831169605,-7.542614934936165
1772045484076962800,2.885962890625,-27.296332874929902,-1.3877309539616107,-5.708214564707875
1772045484086948600,2.895948486328125,-23.026919526207447,-1.4012436387464404,-3.9710611012667414
1772045484096935000,2.905934814453125,-17.569122906869648,-2.0236963228985667,-2.4816817906886337
1772045484106920700,2.915920654296875,-12.00712941547632,-2.6266452651575207,-1.1711486426979303
1772045484116905700,2.92590576171875,-7.172640635815262,-2.385279225771129,-0.08951324379518627
1772045484126891500,2.9358916015625,-3.3332395830690857,-1.2863687208101153,0.6855401317059994
1772045484136877800,2.9458779296875,-1.0323755473017693,0.16247984193712472,1.1606335322938859
1772045484146863600,2.955863525390625,0.023157588225603102,1.444631821835041,1.4739124229855836
1772045484156849700,2.965849609375,1.1274515397906302,2.610277483202517,1.5549980301752686
1772045484166834700,2.975834716796875,2.3352613954097032,3.4676278875097633,1.6172504882097243
1772045484176820700,2.98582080078125,3.6717408855617046,3.7387323548167943,1.758087238137424
1772045484186806800,2.995806884765625,5.286576713845133,3.7147576049894093,1.6842416652038692
1772045484196792600,3.00579248046875,6.977395711612701,3.7177807522028683,1.508982859583944
1772045484206777600,3.015777587890625,8.450035484313965,3.703126203906536,1.7706110580153762
1772045484216763600,3.025763671875,9.535461069279908,3.7878672648638485,2.3685912719510496
1772045484226749700,3.035749755859375,10.056360089361666,4.026444550314546,3.1586198060050603
1772045484236735500,3.045735595703125,10.108138207393884,4.3648803863555194,3.9456951893419023
1772045484246721800,3.0557216796875,9.669164021804928,4.85286760917753,4.550974035853147
1772045484256706800,3.065706787109375,8.94956730671823,5.2276130682229995,5.027228443044423
1772045484266692600,3.075692626953125,8.627160814458131,5.235367335611581,5.020754278594255
1772045484276679000,3.085678955078125,8.694225933471321,5.040223533695936,4.485595262491703
1772045484286664700,3.095664794921875,8.9636870174855,4.761821310596168,3.7867689482331275
1772045484296649700,3.105649658203125,9.377011798033118,4.543311246140301,3.1100720481961965
1772045484306635500,3.115635498046875,9.643557286861538,4.504624957132339,2.5370918354824186
1772045484316621800,3.125621826171875,9.543810379952191,4.48536642217189,2.265445516383648
1772045484326607600,3.135607666015625,9.125997640335559,4.476096781784296,1.9908111213847994
1772045484336593700,3.14559375,8.431656947058439,4.480667158439755,1.5708699914373456
1772045484346578700,3.15557861328125,7.746516628324985,4.557574749292433,1.2936821125634015
1772045484356564700,3.165564697265625,7.174530979606509,4.65718955425471,1.1197428651094437
1772045484366550800,3.17555078125,6.97161712821126,4.631488126765191,0.9528143732003868
1772045484376536600,3.18553662109375,7.112691486287116,4.380350634948909,0.7058443763270974
1772045484386521600,3.195521484375,7.3598209115058175,4.027328055150806,0.15469225680083035
1772045484396507600,3.205507568359375,7.116463990563154,3.7392020181551575,-0.7247292556695639
1772045484406493700,3.21549365234375,5.96449351106584,3.5937650809556243,-1.706607518529892
1772045484416479500,3.2254794921875,3.853482769590616,3.622863749668002,-2.822212845443189
1772045484426465800,3.2354658203125,1.2007716275453566,3.618788463053107,-3.947631710362434
1772045484436450800,3.245450927734375,-1.2067045247256756,3.125141607034206,-4.749041031739115
1772045484446436600,3.2554365234375,-2.447043023505807,2.1869757907807825,-4.5527246789127584
1772045484456423000,3.2654228515625,-2.7470465452998876,0.3480591121718287,-3.603892214955389
1772045484466408700,3.27540869140625,-3.1095231821417806,-3.0924530971363184,-2.558495565778017
1772045484476394800,3.285394775390625,-4.536553880834579,-7.77916451395154,-1.555605348418653
1772045484486379500,3.295379638671875,-7.537760480642318,-11.213631597876548,-1.7551210818082092
1772045484496365800,3.30536572265625,-12.37867841656804,-12.130907770836352,-3.3720606043726202
1772045484506351600,3.3153515625,-18.55473670299649,-10.458978766977786,-5.156171049299836
1772045484516337700,3.325337646484375,-24.422425790345667,-5.298168367439508,-7.24301122611463
1772045484526322700,3.33532275390625,-27.70261299766302,-1.7446724607691169,-6.765026049607992
1772045484536308700,3.345308837890625,-30.049618022358416,-0.9072761724710464,-6.426503119805455
1772045484546294800,3.355294677734375,-30.850429377841948,-0.48633565622270103,-8.112585736700892
1772045484556280600,3.365280517578125,-26.586061622071263,-1.6317723500370978,-7.586840445631742
1772045484566267000,3.375266845703125,-20.147040965998173,-2.901794623941183,-6.0819438324481245
1772045484576251600,3.385251708984375,-14.356242226105927,-4.517094270344078,-4.58858626588881
1772045484586237700,3.39523779296875,-9.638990417337418,-5.816365142825245,-2.8762577393636106
1772045484596223500,3.405223388671875,-6.2547857861846685,-5.41562336499691,-1.3052611989371479
1772045484606209800,3.415209716796875,-4.311206079313159,-3.7748487933367487,-0.02683598447740078
1772045484616194800,3.42519482421875,-2.578833420407772,-1.6634879232496023,0.8493328098073601
1772045484626180600,3.4351806640625,-0.1568015040397644,0.39052842684984207,1.4926616932496428
1772045484636166700,3.445166748046875,2.609246094328165,2.0860902352303263,2.0635092778488993
1772045484646152700,3.455152587890625,5.156572031316161,3.4171991382598876,2.6838337178006766
1772045484656138800,3.465138671875,6.930477308571338,4.387905288112163,3.1330878898635506
1772045484666123500,3.47512353515625,7.833316959899664,5.097697817543149,3.343457025700807
1772045484676109800,3.48510986328125,8.081559314796328,5.412450580179691,3.318226138332486
1772045484686095600,3.495095703125,8.053889802104234,5.606843855988979,3.2174259229779243
1772045484696081700,3.50508154296875,7.846542936697602,5.998187690874934,3.296080649758875
1772045484706066700,3.515066650390625,7.212253099757432,6.478970389145612,3.434751453824341
1772045484716052700,3.525052734375,5.9690814233779905,6.79619392580986,3.3499183306694027
1772045484726038800,3.535038818359375,5.122330739018321,6.847285815143585,3.325141616809368
1772045484736024600,3.545024658203125,5.148997796669602,6.7030059390246866,3.3717847100406884
1772045484746011000,3.555010986328125,5.6129708144366735,6.32209055917263,3.1557249613463876
1772045484755995600,3.56499560546875,6.1977288509666915,5.89205605136454,2.4589678545773026
1772045484765981700,3.574981689453125,6.60534752882719,5.494219931849837,1.655920848996192
1772045484775967500,3.584967529296875,6.7829007289946075,5.2225207135200495,1.0111188242614269
1772045484785953800,3.594953857421875,6.822170078587532,5.110660759490728,0.4005614528253674
1772045484795938800,3.604938720703125,6.727913585788011,5.033628957736492,-0.11280994823053478
1772045484805924600,3.614924560546875,6.53175563839376,4.876126027429104,-0.4746764903500676
1772045484815910700,3.62491064453125,6.284809753048419,4.798270634332299,-0.6934988356254994
1772045484825896700,3.634896728515625,6.0828060022354125,4.817033786991239,-0.8672606806859373
1772045484835882800,3.6448828125,6.027871465998888,4.981289114168286,-1.03769367358461
1772045484845867500,3.654867431640625,6.1071437401562925,5.366497222778201,-1.226172318522632
1772045484855853800,3.664853759765625,6.3310653082668775,5.848383498376608,-1.3889169488757849
1772045484865839600,3.674839599609375,6.671174045956135,6.395532227480411,-1.653857340595126
1772045484875825700,3.68482568359375,6.762894882798195,7.034941891652346,-1.8379655153639614
1772045484885811700,3.694811767578125,6.411659770938754,7.580749143019318,-1.7635709302455185
1772045484895796700,3.704796630859375,5.482660426959395,8.016087602454423,-1.8021315470471977
1772045484905782800,3.71478271484375,4.128168310254812,8.276153666135668,-2.1549857845410703
1772045484915768600,3.7247685546875,2.823608391454816,8.16469586316645,-2.9126883583992718
1772045484925755000,3.7347548828125,1.574305664974451,7.504385449784993,-4.027566832342743
1772045484935739600,3.74473974609375,0.22983283798098564,5.984917290413379,-4.8528836835294955
1772045484945725700,3.7547255859375,-0.35288813976347444,3.5272307078182696,-4.209033114300668
1772045484955711500,3.76471142578125,0.2514507955491543,0.1456166776806116,-1.6452319894604384
1772045484965697800,3.77469775390625,2.1829192088663576,-3.4159143591463565,1.6309633717417715
1772045484975683600,3.78468359375,3.558805995777249,-6.0876920207113026,3.2972461864069103
1772045484985668600,3.794668701171875,1.2245938171595334,-8.183990346223116,2.787747096739709
1772045484995654700,3.804654541015625,-6.385837931939959,-6.153629012477397,-1.2879339243002235
1772045485005640700,3.814640625,-13.208865504139661,-4.17543275025487,-5.788836499908566
1772045485015626500,3.82462646484375,-19.381303261983394,-5.725429903402924,-4.882074706700444
1772045485025612500,3.834612548828125,-27.438523669815062,-5.109287133049965,-5.669844794303178
1772045485035597600,3.84459765625,-30.17152123149633,-5.436598933008312,-3.9834205243632197
1772045485045583400,3.854583251953125,-27.894151468563077,-7.595732192617654,0.632455314989388
1772045485055569400,3.8645693359375,-22.521041549646853,-9.998155737674235,4.034549823097884
1772045485065555500,3.874555419921875,-16.843723058462142,-11.726313409233093,4.826118426200747
1772045485075540500,3.88454052734375,-14.032468537145853,-11.847510515928267,3.2293603986606
1772045485085526500,3.894526611328125,-12.723898213660716,-10.48409333449006,0.934354002880305
1772045485095512600,3.9045126953125,-10.89336971642971,-7.657781529295444,0.09096037386357783
1772045485105498600,3.91449853515625,-7.82036220125854,-4.405535052827,1.1703443405777216
1772045485115484400,3.924484375,-3.8544308640956877,-1.7670698782771825,3.0185724528893827
1772045485125469400,3.934469482421875,-0.024967267996072767,0.7035024893760681,4.027036086466908
1772045485135455500,3.94445556640625,2.592467978006601,2.568641112217307,3.6198920403808352
1772045485145441500,3.954441650390625,3.7134295712560412,3.4374978299230334,2.520310504290461
1772045485155427300,3.96442724609375,3.8525206465601918,3.807374513888359,1.493535553474724
1772045485165413600,3.97441357421875,3.7814568132996556,4.313059598225355,0.8302204783845692
1772045485175398700,3.984398681640625,3.6673435273855923,4.528169498848915,1.3155299333646893
1772045485185384400,3.994384521484375,4.3687744711846115,5.763201123392582,0.8417981765188276
1772045485195370500,4.00437060546875,4.61796024441123,7.1934402627378695,0.770333215111494
1772045485205356500,4.0143564453125,4.337213211750984,7.396792505550384,1.2345999551281333
1772045485215341600,4.024341552734375,4.629986782291532,7.2035665199548005,1.6666005023121833
1772045485225327600,4.03432763671875,5.667400908282399,7.266760935014486,2.0037951061204073
1772045485235313400,4.0443134765625,6.695885293364524,7.021848601323366,2.3958561493650077
1772045485245299500,4.054299560546875,7.522547129419445,6.616919893199205,2.36065492599383
1772045485255285500,4.064285400390625,8.302042725151777,6.381072324973345,2.032555482789129
1772045485265270500,4.0742705078125,9.280366948792338,6.251697172519564,1.3043605968356131
1772045485275256600,4.084256591796875,10.031314495432376,6.046502516710758,0.08533471600152552
1772045485285242600,4.09424267578125,10.314486124891042,5.672606075710058,-1.0105383209597318
1772045485295228400,4.104228515625,10.222778147530555,5.303131542804837,-1.4598404968827963
1772045485305214500,4.11421435546875,9.862911400926112,4.943740597018599,-1.5864556831039487
1772045485315199500,4.124199462890625,9.278560191631316,4.671083931833506,-1.5312784241527317
1772045485325185500,4.134185546875,8.747890888163447,4.705681782484055,-1.6766364508971572
1772045485335171600,4.144171630859375,8.283959371450543,4.862272858643531,-1.6534226024396717
1772045485345157600,4.15415771484375,7.734456772696971,5.127880774360895,-1.5819013808004556
1772045485355143400,4.164143310546875,7.022002330580353,5.384992664411664,-1.4938275221586226
1772045485365128400,4.17412841796875,5.9241831279873844,4.966306649091839,-0.9136793905768543
1772045485375114500,4.184114501953125,5.060780584034323,4.008717170444131,-0.2700827961090952
1772045485385100500,4.1941005859375,4.242673810356855,3.135865830144286,0.12136146694403141
1772045485395086600,4.204086669921875,3.0360347520828244,2.78814661745131,-0.4529532823091373
1772045485405072400,4.214072265625,1.203277472886443,2.427374446439743,-2.0035154123961925
1772045485415057400,4.224057373046875,-1.1447522186815737,1.1785294005990028,-3.44679172796905
1772045485425043500,4.23404345703125,-3.33181510322392,-1.3907634535253046,-3.8351170918166635
1772045485435029500,4.244029541015625,-4.475146349191665,-4.6386324455618855,-2.6466756612733007
1772045485445015600,4.254015625,-4.678137357476353,-7.475975347858667,-0.35971330960839987
1772045485455000600,4.26400048828125,-5.544747173038124,-8.337856381332873,0.24910649744533
1772045485464986600,4.273986572265625,-8.581869135835767,-7.637891418433189,-2.0163354387417436
1772045485474972400,4.283972412109375,-12.941640800875424,-6.150906309515237,-4.918046768313646
1772045485484958500,4.29395849609375,-18.1223389731884,-4.506874197363853,-5.480872959020734
1772045485494944500,4.303944580078125,-22.118378448367118,-3.820707165931165,-3.403971700157225
1772045485504929500,4.313929443359375,-22.97249118592739,-3.9429625495076177,0.01890221406975761
1772045485514915600,4.32391552734375,-21.490529458129405,-4.460170313856006,2.3006414790578185
1772045485524901600,4.333901611328125,-19.240085111522674,-4.40299939686954,2.2418255713433024
1772045485534887700,4.3438876953125,-16.538929964303968,-4.228120384347439,1.4010694512233137
1772045485544873500,4.35387353515625,-12.664407913815975,-4.1754304121673105,0.3833379673564806
1772045485554858500,4.3638583984375,-8.372493394950032,-4.308085316944122,-0.08244158837590367
1772045485564844500,4.373844482421875,-5.466717592418194,-4.479715556803345,0.22199604340810328
1772045485574830600,4.38383056640625,-3.9519934127032754,-4.543035644069314,0.7566706004619598
1772045485584816400,4.39381640625,-2.254094685807824,-3.0276217285245655,0.919871157889068
1772045485594802700,4.403802734375,-0.42755964212715625,-1.0718336974650622,1.4425997314855457
1772045485604787700,4.41378759765625,1.5873872648656366,0.6411053621739149,1.867710226894915
1772045485614773500,4.4237734375,3.7576983365714547,1.0662515134185553,1.9907804339855908
1772045485624759600,4.433759521484375,5.770733856984973,1.182928512340784,1.7318877979978917
1772045485634745600,4.44374560546875,7.169210661366582,1.68673026714921,1.1896612546619028
1772045485644731600,4.453731689453125,7.629121252000331,2.3614304404109716,0.7440634862147271
1772045485654716400,4.46371630859375,7.284251583519578,3.328944516223669,0.5087761822201311
1772045485664702500,4.473702392578125,6.394650183948874,4.55740319211781,0.7452810453109443
1772045485674688500,4.4836884765625,5.202891883942485,5.881328905645012,1.1302388324216008
1772045485684674600,4.493674560546875,4.271786507594586,6.963281846064329,1.651549209783226
1772045485694660400,4.503660400390625,3.8068268168777224,7.5597677297890185,2.101435980661213
1772045485704646700,4.513646728515625,3.8276194295376538,7.684087936940789,2.429773908796906
1772045485714631700,4.523631591796875,4.275523356035351,7.502519071391224,2.505654494689405
1772045485724617500,4.533617431640625,4.93769547163546,7.094145775771141,2.321011628521979
1772045485734603500,4.543603515625,5.730504137927293,6.492084137740731,2.05584692652747
1772045485744589600,4.553589599609375,6.6173249668687575,5.885049971994757,1.6432814399145543
1772045485754575600,4.56357568359375,7.419883458280563,5.476491967457533,1.016800888485834
1772045485764560400,4.573560302734375,7.885017336520552,5.094749489131569,0.37938473621867597
1772045485774546700,4.583546630859375,8.062911897471547,4.851267480504513,-0.0462280826896429
1772045485784532500,4.593532470703125,8.10345141313076,4.880582422316074,-0.36575814273059365
1772045485794518500,4.6035185546875,8.056217952790856,4.9504649368375535,-0.5585725883832201
1772045485804504600,4.613504638671875,7.964777101933955,4.830609892401099,-0.7097835424069314
1772045485814489600,4.623489501953125,7.847843497902154,4.730994502916932,-0.8436034723751247
1772045485824475600,4.6334755859375,7.856665102261305,4.91171814981401,-0.9236322639882564
1772045485834461400,4.64346142578125,8.037903712943196,5.047631179603934,-0.7050866898275912
1772045485844447500,4.653447509765625,8.494286713972688,5.115709275051951,-0.39789088190924377
1772045485854433500,4.66343359375,8.87940597525537,5.240561981645226,-0.21356484487233682
1772045485864418600,4.67341845703125,8.693368439859151,5.14178479655087,-0.03677491384512978
1772045485874404400,4.683404296875,7.669417022031546,4.798371172097325,-0.041982718471158295
1772045485884390700,4.693390625,5.981593114426731,4.233131490507722,-0.33053156572245057
1772045485894376400,4.70337646484375,3.8062966555237767,3.03024272467792,-1.4107682768084109
1772045485904362500,4.713362548828125,1.800598053869605,1.2947341058343649,-2.7989485819727182
1772045485914348500,4.7233486328125,-0.15274784473478792,-0.5415373189628124,-3.8892634002849458
1772045485924333600,4.73333349609375,-2.4861446153163906,-2.2762948271781203,-4.437565098816156
1772045485934319600,4.743319580078125,-5.554052177000045,-3.7791950058475137,-4.505849530491233
1772045485944305400,4.753305419921875,-9.554450431910157,-4.805997721453011,-4.980497087007761
1772045485954291500,4.76329150390625,-14.031639685106276,-4.690151328136027,-6.631092210936546
1772045485964277500,4.773277587890625,-18.4314832482934,-2.6774071918845177,-8.845346469265222
1772045485974262500,4.783262451171875,-21.917966935181617,-1.16572194147408,-9.582727847367524
1772045485984248600,4.79324853515625,-23.632035291111468,-1.6434689253106711,-8.182855789235234
1772045485994234600,4.803234619140625,-23.91111176021099,-2.784328812728822,-5.926686050719022
1772045486004220400,4.813220458984375,-23.26227609604597,-3.0785742093876003,-4.03643227584362
1772045486014206500,4.82320654296875,-21.63162602803707,-3.698013975459337,-1.8020428458504378
1772045486024192800,4.83319287109375,-18.83545801669359,-4.4764559704855085,0.1382519941315055
1772045486034177800,4.843177734375,-15.471431665694713,-5.1176364437222475,0.6436128880154341
1772045486044163800,4.853163818359375,-12.175174782586097,-4.475366713944077,-0.6805804634720086
1772045486054150000,4.86314990234375,-9.9498812438488,-3.4310973152309656,-1.8749623899802565
1772045486064135700,4.8731357421875,-8.462089494723081,-2.255810549814999,-2.0475126672938466
1772045486074122000,4.8831220703125,-6.909245719972253,-0.7037386362195015,-1.395580936809629
1772045486084107000,4.89310693359375,-4.907316699984669,0.9274860168069601,-0.3394677363719791
1772045486094092800,4.9030927734375,-2.3520459414720536,2.435323067356646,0.9931637731149792
1772045486104079000,4.9130791015625,0.47417000213265414,3.387793887816369,2.2791797349646687
1772045486114065000,4.92306494140625,3.2691660470873116,3.9119951643139124,3.2333342707276342
1772045486124051000,4.933051025390625,5.7369590131551025,4.326380267569422,3.6943171667680144
1772045486134036700,4.94303662109375,7.3924167746841905,4.76364618793577,3.562247368402779
1772045486144022000,4.95302197265625,8.135122562679648,5.177583255162835,3.174803755825758
1772045486154007800,4.9630078125,8.440034314781427,5.63683099797368,2.8243361212074753
1772045486163993900,4.972993896484375,8.574229434737562,6.0649219704985615,2.5363854407787323
1772045486173980000,4.98297998046875,8.486706634107232,6.261240661412477,2.3546792125850913
1772045486183966000,4.992966064453125,7.785294395008683,6.316278073501587,2.3032331029862165
1772045486193951700,5.00295166015625,7.020736840689182,6.143692140352726,2.431232437042147
1772045486203936800,5.012936767578125,6.7985437038064,5.703858707585931,2.6287866611003876
1772045486213923000,5.022923095703125,7.167990764182806,5.666363381928205,2.8274536687061187
1772045486223908900,5.032908935546875,8.072576382395624,5.687573927739262,2.6312559738233685
1772045486233895000,5.04289501953125,8.911889610230922,5.396197364515066,2.115261384657025
1772045486243881000,5.052880859375,9.598377251920104,5.0850060937523835,1.3981681768238543
1772045486253867000,5.062866943359375,9.969047716611623,5.014861128902435,0.7444125919133424
1772045486263851800,5.072851806640625,9.886830036652087,5.001847333550453,0.30856168944407253
1772045486273837800,5.082837890625,9.464407172891496,4.8673254658579825,-0.15428725619651376
1772045486283823900,5.092823974609375,9.138169139644504,4.777123216885328,-0.8437051791839301
1772045486293810000,5.102809814453125,8.96010389830172,4.549473275901377,-1.704308009415865
1772045486303795700,5.112795654296875,8.77561593043506,4.2986622395604845,-2.489995445525646
1772045486313782000,5.122781982421875,8.51636176765859,4.484833045947552,-3.2759923859760165
1772045486323767000,5.13276708984375,8.015408972540497,4.737372805777192,-3.549380872566998
1772045486333752800,5.1427529296875,7.176780804359913,4.818536592769623,-3.2323768238723276
1772045486343739000,5.15273876953125,6.0854445340454575,4.901288817997276,-3.1583418658465146
1772045486353725000,5.162724853515625,4.975146958151459,4.859297934485972,-3.6917087378352877
1772045486363711000,5.1727109375,3.6814427798867224,4.51668948893547,-4.156727173002064
1772045486373696800,5.18269677734375,2.150329775428772,3.6310914797872305,-3.9230110638469453
1772045486383682000,5.19268212890625,0.8841752828687429,2.293875492054224,-2.887966881857812
1772045486393667800,5.202667724609375,-0.10702712704539298,0.037273791861534115,-1.8634706896290183
1772045486403654000,5.21265380859375,-1.189558744135499,-4.118663399806619,-0.3708641971653327
1772045486413639700,5.2226396484375,-2.6053952641189095,-9.289173940104245,0.9594774843513965
1772045486423626000,5.2326259765625,-4.736373273345828,-12.344317881804704,0.4190250014832243
1772045486433611800,5.24261181640625,-7.780112608456611,-13.147338730031251,-1.131055774827674
1772045486443597800,5.252597900390625,-10.881092418658733,-11.661940013521908,-2.4384213256329295
1772045486453583000,5.2625830078125,-15.599406888222694,-7.849818012845516,-3.5953503043204544
1772045486463569000,5.27256884765625,-23.121415672981737,-3.578128828145563,-4.415202752621472
1772045486473555000,5.282554931640625,-30.036922206914422,-0.9231745833486318,-4.524301425243914
1772045486483541000,5.292541015625,-34.78841881511211,-0.6391247097507119,-3.3782115282177925
1772045486493527000,5.302527099609375,-34.902286017310615,-1.273737495034933,-0.884790857483819
1772045486503512800,5.312512939453125,-30.26724019806385,-1.5490522735133767,1.493856455992162
1772045486513497900,5.322497802734375,-24.130945766746997,-1.4928727056518196,2.6319030395552514
1772045486523484000,5.33248388671875,-18.26931583330631,-0.6240320622980594,2.4421441455483435
1772045486533470000,5.342469970703125,-13.555614410495757,0.8661024505615234,2.4025334351718426
1772045486543455700,5.352455810546875,-9.255393251055478,1.926900082488358,2.9974349723145366
1772045486553442000,5.362442138671875,-4.972608379584551,2.5527742655217645,3.7956311768636106
1772045486563427800,5.372427734375,-0.6542413226008414,2.8116446896776557,4.430759510454536
1772045486573412900,5.382412841796875,3.3060172296226025,2.582176885616779,4.898626613050699
1772045486583399000,5.39239892578125,6.328945247372984,2.2179104427486656,4.9792310125947
1772045486593385000,5.402385009765625,8.352264845913648,2.159855436404049,4.598037692584097
1772045486603371000,5.41237109375,9.341623673787712,2.2060478632584215,4.222196254995465
1772045486613356800,5.422356689453125,9.30315570370555,2.464009940397739,3.829827168715
1772045486623343000,5.432343017578125,8.6827786567837,2.934586594213545,3.3963103717491028
1772045486633329000,5.442328857421875,7.905994073575735,3.384983798831701,3.1966172359660265
1772045486643314000,5.45231396484375,7.32714146169722,3.692567985013127,2.9396321871653197
1772045486653299700,5.4622998046875,7.213439094671607,3.7494647612333294,2.539878835852444
1772045486663286000,5.4722861328125,7.602724243462085,3.698042617031932,2.1925712727002797
1772045486673271800,5.482271728515625,8.384204875531792,3.5277634995207188,1.9023970710031688
1772045486683257900,5.4922578125,9.29168036996722,3.2885759732171893,1.5746923262044787
1772045486693244000,5.502243896484375,10.012707994639873,3.213287800259888,1.2006307577699422
1772045486703229000,5.51222900390625,10.312764123404026,3.3279660265803335,0.8629253548953681
1772045486713215000,5.522215087890625,10.33058502677679,3.449843516755104,0.6983076241467148
1772045486723200800,5.53220068359375,10.22420438094139,3.672123747399449,0.6093458767544477
1772045486733187000,5.54218701171875,10.149822801434993,4.001365638637543,0.4900147831268608
1772045486743172900,5.5521728515625,10.079808769488334,4.297870796921849,0.12604348728042095
1772045486753159000,5.562158935546875,9.958202497470378,4.498462342849374,-0.3403366281609982
1772045486763145000,5.57214501953125,9.885380422365666,4.634740114298463,-0.5785381025692448
1772045486773130000,5.5821298828125,9.912273105466365,4.732146011039615,-0.5620556081933901
1772045486783115800,5.59211572265625,9.903360315692424,4.812586159932613,-0.484950047083199
1772045486793101800,5.602101806640625,9.740233115762472,4.705621576729417,-0.5095164061281829
1772045486803088000,5.612087890625,9.358073873329163,4.5219332348078485,-0.6310737975031138
1772045486813074000,5.622073974609375,8.70194863667786,4.521504195740818,-1.0072345301739871
1772045486823059700,5.632059814453125,7.92881147006154,4.4479485456645484,-1.4690801805235445
1772045486833045000,5.642044921875,6.843532015568018,4.378137342813611,-2.1161533650606867
1772045486843031000,5.652031005859375,5.463197017076611,4.374171361792087,-2.883142530441284
1772045486853016800,5.662016845703125,3.9027439363658427,4.269767568987608,-3.499624323490262
1772045486863003100,5.672003173828125,2.0965695436686276,3.7359137902647253,-3.6369232546806334
1772045486872989000,5.681989013671875,0.27328444169461724,2.4644570996433495,-3.3586791447520254
1772045486882975000,5.69197509765625,-1.1038812791109085,-0.16524141560494898,-2.470642510280013
1772045486892960800,5.701960693359375,-1.9783716187894342,-4.044866926711798,-1.0094249528903514
1772045486902947000,5.711947021484375,-2.697503638973832,-7.549394219812751,-0.37237810885962097
1772045486912932900,5.721932861328125,-4.247821694639325,-9.434267470693587,-1.5930748089827595
1772045486922918000,5.73191796875,-7.12219639673531,-10.328092625439167,-3.7858363435581324
1772045486932904000,5.741904052734375,-10.466925926589965,-8.961957417213917,-7.300212538239359
1772045486942890000,5.751889892578125,-14.715256739795207,-6.115989309912919,-10.705373448181152
1772045486952875800,5.761875732421875,-20.411672730159758,-4.297167617088556,-12.25667116253376
1772045486962862000,5.771862060546875,-25.564109269106385,-2.886695254486799,-11.970416764628887
1772045486972847900,5.781847900390625,-27.824233298206327,-1.8671140145674348,-9.518402966973184
1772045486982833000,5.7918330078125,-26.401224110114573,-2.103285115659237,-5.939500524106621
1772045486992819000,5.80181884765625,-22.480115665018555,-3.300691066163778,-2.9744986256241797
1772045487002805000,5.811804931640625,-17.7869707080245,-3.946606751228869,-1.7971750936836004
1772045487012791000,5.821791015625,-13.65492234146595,-3.323913828580081,-1.135662830231711
1772045487022776300,5.8317763671875,-9.846668706655501,-1.8426377449586986,-0.3607068506903946
1772045487032762400,5.841762451171875,-6.188942317920923,-0.6320926191568375,0.38914040655754506
1772045487042748400,5.85174853515625,-2.80468975597322,0.037918227244913574,1.1519130502216517
1772045487052733400,5.8617333984375,0.09378361459076404,0.7109028287604451,1.4460095399290323
1772045487062719200,5.87171923828125,2.2693010227680204,1.3135913665175438,1.3133010052688419
1772045487072705500,5.88170556640625,3.832542857414484,1.622154042342305,1.2676632896877824
1772045487082691300,5.89169140625,5.140193727967143,1.8577420828491449,1.2768768159739672
1772045487092677400,5.901677490234375,6.239412275964021,2.0416604341343043,1.592578988289833
1772045487102663200,5.9116630859375,7.1425617238938806,2.2314342334493995,1.9789888739049433
1772045487112649500,5.9216494140625,7.731253008219599,2.4806620922520755,2.2303401546023784
1772045487122634500,5.931634521484375,7.619111314639449,2.7578260057285426,2.3096952847376464
1772045487132620300,5.941620361328125,6.586593143996596,3.0228043913707134,1.9909750797748564
1772045487142606600,5.951606689453125,5.621617646750807,3.2038051016435025,1.6463891966715454
1772045487152592400,5.96159228515625,5.3821916355162855,3.230882201400399,1.3675205251038074
1772045487162578400,5.971578369140625,5.7783618676453825,3.069633654823899,1.3808660366281866
1772045487172564500,5.981564453125,6.554663635772466,2.7205706263065337,1.5933245459601282
1772045487182550500,5.991550537109375,7.361447051402926,2.4754808902218937,1.863291825930774
1772045487192535300,6.001535400390625,7.687652351424098,2.40994225012362,2.025001998669654
1772045487202521300,6.011521240234375,7.291640524727105,2.5250658821240064,1.7498771898053584
1772045487212507400,6.02150732421875,6.260274446728825,2.518876964356005,1.3013798274591564
1772045487222493400,6.031493408203125,4.888303371956944,2.4396856464803216,0.7684218285322189
1772045487232479200,6.041479248046875,3.407482046365738,2.574287885932624,0.12638663816228507
1772045487242465500,6.051465576171875,1.987546274369955,2.594859841579199,-0.7443433260694146
1772045487252451300,6.061451416015625,1.2616869917571545,2.8316221865624187,-1.3446920227020978
1772045487262436400,6.071436279296875,0.9704448685675859,3.1297341955214737,-1.2200808697797356
1772045487272422400,6.08142236328125,0.7836322571456432,3.3059304281219837,-0.8269710481345653
1772045487282408400,6.091408447265625,1.4048025002717972,3.724361007376015,-0.3098528617657721
1772045487292394500,6.10139453125,1.0241320350915193,4.230254766027629,-0.199035256396234
1772045487302380300,6.11138037109375,-0.7837018152505159,4.739391744384169,-1.226911154191196
1772045487312366600,6.12136669921875,-2.2680518994897603,5.272870260053873,-2.4212879661329088
1772045487322352400,6.131352294921875,-2.745186012125015,4.782046937023103,-2.620863174624741
1772045487332337400,6.14133740234375,-3.07867737750113,4.1190532759070395,-2.069442759551108
1772045487342323200,6.1513232421875,-3.7964346022009847,4.064209048302471,-2.2326370333679018
1772045487352309500,6.1613095703125,-4.1264480623334645,4.42355177103281,-3.0003809626385567
1772045487362295300,6.17129541015625,-4.3592327358573675,4.5427778699159616,-3.4885879656910896
1772045487372281300,6.18128125,-4.350997406953573,3.514506835323572,-3.322494901692867
1772045487382267400,6.191267333984375,-3.6179748085826633,2.290150918573141,-2.5388024387925863
1772045487392252400,6.20125244140625,-2.520578215315938,1.0836930620849132,-1.4963294219769536
1772045487402238500,6.211238525390625,-1.7244874586135148,-0.2279220359236002,-0.6736156659606843
1772045487412224300,6.221224365234375,-1.713632887122035,-1.47068746958971,-1.1425822542313486
1772045487422210600,6.23121044921875,-2.4064655139237643,-1.1722890449047088,-2.787753234219551
1772045487432196400,6.2411962890625,-5.150315893530846,-0.20020809956789015,-3.3262446096152067
1772045487442182400,6.251182373046875,-7.2934893674641845,0.4990782334178686,-2.683538534246385
1772045487452168400,6.26116845703125,-8.69590994103551,0.16315116532742976,-1.405482445359975
1772045487462153500,6.271153564453125,-8.418258536303043,-0.7738719106316566,-0.21432083260510115
1772045487472139300,6.28113916015625,-7.129092585989833,-1.978969000160694,0.7578519192010164
1772045487482125300,6.291125244140625,-6.376297950178384,-2.9807354741871355,1.2429828758090733
1772045487492111400,6.301111328125,-6.279092544445395,-3.3558465516746043,1.0687808127004652
1772045487502097400,6.311097412109375,-6.779918498313426,-3.9510757133364676,0.7094377246439456
1772045487512083200,6.321083251953125,-7.331721190702915,-4.907905898049473,0.5754797379119322
1772045487522069500,6.331069580078125,-7.3017246963679785,-4.977773799523711,0.22013740992937236
1772045487532054500,6.341054443359375,-6.476536439996957,-3.597852058008313,-0.2607690060525201
1772045487542040300,6.351040283203125,-5.351710572534799,-2.038612444740534,-0.12824556390196085
1772045487552026600,6.361026611328125,-4.020917311325669,-0.329738734844327,0.254198669485189
1772045487562012400,6.371012451171875,-2.8507372213989495,0.9353910908430815,0.8169156641967594
1772045487571998500,6.38099853515625,-1.9532436072736978,1.5585130525588988,1.0742983340129255
1772045487581984300,6.390984375,-1.0472019450336694,2.342868363282084,1.321504039338231
1772045487591970600,6.400970458984375,-0.38921208355426784,1.8252619550049305,0.5888439906693995
1772045487601955300,6.410955322265625,0.2961801641136408,1.6886317168563603,-0.21913433383405206
1772045487611941400,6.42094140625,0.9371423184245824,1.9138573533028362,-0.8678156842201947
1772045487621927400,6.430927490234375,1.39325293225348,2.4188071091026067,-1.2987237599924206
1772045487631913500,6.44091357421875,1.782335836470127,3.2757530242621895,-1.5035539664030073
1772045487641899300,6.450899169921875,2.062794115316868,4.131613482272625,-1.3968997643232344
1772045487651885600,6.460885498046875,2.294054355752468,4.88471090042293,-0.9612953474283218
1772045487661871400,6.470871337890625,2.503264676943421,5.2775937814444305,-0.2319308331735432
1772045487671856400,6.4808564453125,2.8040952972114086,5.371951981052756,0.5414102219844237
1772045487681842400,6.490842529296875,3.2660721727252007,5.544444390699267,1.1162479356657713
1772045487691828500,6.500828369140625,3.843406196734309,5.837950951689481,1.3993078483782708
1772045487701814500,6.510814453125,4.452654531398415,5.939785770788789,1.3915353146806357
1772045487711800300,6.52080029296875,5.1604742994517085,5.799594040766358,1.1537105280976743
1772045487721786600,6.53078662109375,5.747592635372281,5.440397156247497,0.8080078428588807
1772045487731771400,6.540771484375,6.039659518948197,5.1192777811884875,0.5339278668724
1772045487741757400,6.55075732421875,6.128115216514468,4.944775785285234,0.3224408694537356
1772045487751743200,6.5607431640625,6.053051499962806,5.005467862135172,0.14707839339678175
1772045487761729500,6.5707294921875,5.852803652906418,5.326462149509787,0.11621948267938569
1772045487771715300,6.58071533203125,5.598079534775018,5.550672471433877,0.12530129974414594
1772045487781701400,6.590701416015625,5.383521422815322,5.584302938356995,-0.030795928483782334
1772045487791687400,6.6006875,5.1450212942540645,5.565747290968894,-0.28746819414142516
1772045487801673500,6.610673583984375,4.763800793975592,5.434747752183675,-0.32507468855604527
1772045487811658500,6.620658447265625,4.188812456309795,5.122134924185276,-0.19680174345681442
1772045487821644300,6.630644287109375,3.4922897428184747,4.856102645576,-0.1915931419630535
1772045487831630600,6.640630615234375,2.6765362542688846,4.466245249855518,-0.47479518482629207
1772045487841616400,6.650616455078125,1.6113561694741247,3.8225130463093517,-1.0134576424725352
1772045487851602400,6.6606025390625,0.39857612422704697,3.4806092418968677,-1.1513796739973128
1772045487861588500,6.67058837890625,-0.7779413520276546,2.764559990158677,-0.35678602398484943
1772045487871573500,6.680573486328125,-1.8758850577831268,0.8629729203641414,1.3052142910555005
1772045487881559300,6.690559326171875,-2.402247019445896,-1.371428638458252,3.0906971933797
1772045487891545300,6.70054541015625,-1.6176695904046297,-2.9189421580970287,4.087987106513977
1772045487901531400,6.710531494140625,0.8228039915829897,-3.5516420954972503,3.1887071934938427
1772045487911517400,6.720517333984375,2.473070614209771,-3.7318776666164397,0.2358207167515531
1772045487921503200,6.730503173828125,1.512888780981302,-3.440650740996003,-1.891067429345846
1772045487931489500,6.740489501953125,-1.4681851313799619,-3.1710423574656246,-2.2274349346801636
