time,seconds_elapsed,z,y,x
1772094087040085200,0.080085205078125,-0.0556523291170597,0.010218542035197606,-0.004804039280861616
1772094087050034200,0.0900341796875,-0.10927344466745853,-0.004264185366674791,0.015971476113796235
1772094087059983400,0.0999833984375,-0.022092004820704458,0.013545431710383854,0.009911737683415413
1772094087069933000,0.10993310546875,0.05828793831765652,0.01154844464031048,0.01833601328805089
1772094087079882200,0.11988232421875,0.13769640607535838,0.02372982602245174,0.040139994947612286
1772094087089831400,0.12983154296875,0.1666314086586237,0.026653691279632036,0.018364216469228267
1772094087099780400,0.1397802734375,0.1644347753971815,0.027810053673945366,-0.007658259668201208
1772094087109729300,0.149729248046875,0.11265315023362636,0.01637633972079493,-0.013103373331576585
1772094087119679200,0.15967919921875,0.06093874508738517,0.016970348674745762,-0.007885054161399603
1772094087129628200,0.169628173828125,0.06637187605202198,0.025746305527572986,-0.004859861121326685
1772094087139577000,0.1795771484375,0.07136953820884227,0.045962956346897406,-0.024920213983953
1772094087149526300,0.1895263671875,0.07702011131644249,0.05338600075342692,-0.047441696263104675
1772094087159476200,0.199476318359375,0.12444061866104603,-0.002623421005881391,-0.050832653875648975
1772094087169425200,0.209425048828125,0.17322481557428837,-0.07568606796739623,-0.034235593209415674
1772094087179374300,0.219374267578125,0.13082359769642352,-0.07913267389046959,-0.017725772435218095
1772094087189323300,0.2293232421875,0.0786146870315075,-0.05658380128089338,0.003316138810664415
1772094087199272200,0.239272216796875,0.05013035082519054,-0.025334884315624365,-0.014413433016836643
1772094087209222400,0.249222412109375,0.037895138630270955,0.03231612378838472,-0.09587839491292834
1772094087219171300,0.25917138671875,0.01426759480535984,0.03881791603099555,-0.12511208818182348
1772094087229120300,0.269120361328125,0.0036111762344837187,0.00020788201346294953,-0.09616291094273328
1772094087239069200,0.279069091796875,-0.04928045599758625,-0.04430707889865152,-0.03286927329227328
1772094087249019100,0.28901904296875,-0.04367898272871971,-0.05706690862271934,0.02808963780030608
1772094087258968300,0.29896826171875,0.03169043877124786,-0.04155239162934012,-0.0003441372625529766
1772094087268917200,0.308917236328125,0.06498539012968539,-0.006108233197627123,-0.05067775557488203
1772094087278866200,0.3188662109375,0.07161620644629,0.0319992558419588,-0.06426759724915027
1772094087288815400,0.3288154296875,0.05656184517741203,0.037666510656301395,-0.040803427292406554
1772094087298765000,0.33876513671875,0.006994973453879356,0.0010715382216498256,0.009701455933600663
1772094087308714200,0.34871435546875,-0.02847498385608196,-0.031444190658908334,0.022605507300794123
1772094087318663400,0.358663330078125,-0.02337912202179432,-0.002369117451249622,-0.02797784798890352
1772094087328612400,0.3686123046875,0.05540332279205322,-0.020687718380196018,-0.04731543953493237
1772094087338562300,0.378562255859375,0.10866846451163291,-0.028831405211472882,-0.03999985582455992
1772094087348511200,0.38851123046875,0.12953355788588522,0.008201490566274151,-0.030855595382302998
1772094087358460200,0.398460205078125,0.13901684102416037,-0.01391859413802158,-0.012521335659921168
1772094087368409000,0.4084091796875,0.1202192015737295,-0.029899016176676375,-0.006907879692316055
1772094087378358300,0.418358154296875,0.0795505065768957,-0.019713457387406378,-0.0053257250674068925
1772094087388308200,0.42830810546875,0.08135492565035819,-0.018287283342075532,-0.017378858693689107
1772094087398257200,0.438257080078125,0.10637947679162024,-0.03965934442435391,-0.03002411299422383
1772094087408206300,0.448206298828125,0.12218962486386298,-0.04297047826633788,-0.028764468321949243
1772094087418155300,0.4581552734375,0.12668927437067032,-0.03290746814450249,-0.04592018578425049
1772094087428105500,0.46810546875,0.08690788360238075,-0.02195862194871297,-0.0749544109582901
1772094087438054400,0.478054443359375,0.03182663237154484,-0.003634347047517076,-0.07728577651530504
1772094087448003300,0.48800341796875,0.023622867649793624,-0.00075928936812561,-0.044433308227360246
1772094087457952300,0.4979521484375,0.008699439284205437,-0.04395712381666526,-0.015939035148918628
1772094087467901200,0.507901123046875,0.016344401079416274,-0.0782400815654546,0.020492899060994385
1772094087477851100,0.51785107421875,0.024924597898125646,-0.036184302424662744,0.030385785913467404
1772094087487800300,0.52780029296875,-0.0007364975810050964,0.013444218091922812,-0.07903846540153026
1772094087497749200,0.537749267578125,0.14766250429451463,0.05180878716511651,-0.044571547654271126
1772094087507698200,0.5476982421875,0.23943302549719808,0.04882056056798901,-0.12863237126246094
1772094087517648100,0.557648193359375,0.22880291041135786,0.01571669306855183,-0.19688743071258066
1772094087527597300,0.567597412109375,0.10325988346636295,0.06928160775257274,-0.07461743408888578
1772094087537546200,0.577546142578125,0.011212298887968063,0.005980809708964079,0.01575359557941556
1772094087547495400,0.587495361328125,-0.028709377133846282,-0.08285174007937311,-0.008822919533401728
1772094087557444400,0.5974443359375,-0.08046294524669646,-0.06642602652520872,-0.11356383533775806
1772094087567394300,0.607394287109375,-0.12697218296527862,0.04312261835443787,-0.0781347945600748
1772094087577343200,0.61734326171875,-0.04076338754296303,0.025635476980684323,-0.08642711434811354
1772094087587292200,0.627292236328125,0.06796236011385917,-0.06797653476968407,-0.0206610952347517
1772094087597241000,0.637240966796875,0.026140403428673742,-0.07274825638325419,0.017143588633090255
1772094087607191300,0.64719140625,-0.05036182149350643,-0.12340185019783675,0.08982610913664102
1772094087617140200,0.65714013671875,-0.06948036346137523,0.002333854341623373,0.10194763182401656
1772094087627089200,0.667089111328125,-0.07457797886133194,0.00044179808390326793,0.0732512603022158
1772094087637038300,0.677038330078125,0.005087094005942344,-0.010256916125584393,0.11426745356246829
1772094087646987300,0.6869873046875,0.1058282726496458,-0.022997575358301398,0.07069967612326145
1772094087656937500,0.6969375,0.13018529979288576,0.06499908986147493,0.00538943795338273
1772094087666886400,0.706886474609375,0.095044428306818,0.07762156607462092,-0.06211202665045857
1772094087676835300,0.71683544921875,0.0730588064700365,0.058094059713371095,-0.00386164386421442
1772094087686784300,0.7267841796875,0.20206454108953475,0.012887118498701602,0.09527765254080295
1772094087696734200,0.736734130859375,0.3704045072317123,-0.10626365925907157,0.05954480651095509
1772094087706683100,0.74668310546875,0.4724509232550859,-0.11030941838538273,-0.05268880313634872
1772094087716632300,0.75663232421875,0.4810574235588312,-0.020369071751926093,-0.1043970708027482
1772094087726581200,0.766581298828125,0.3069038027018308,0.036632543949084356,-0.17110855407267808
1772094087736530200,0.7765302734375,0.08518705115914345,0.0665664487760514,0.005878682775050401
1772094087746480000,0.786480224609375,0.011754150679707526,-0.1080607809420675,-0.12640125120952725
1772094087756428000,0.796427978515625,-0.0003793547064065933,-0.15648093031588942,-0.219426813974604
1772094087766377000,0.806376953125,-0.21382745959758756,0.13502232802789657,0.03157550715468824
1772094087776326000,0.816325927734375,-0.4445066852748394,0.12311691404292359,0.07663242717310786
1772094087786276000,0.826276123046875,-0.49304187586307524,-0.058606320084445176,0.20099983446747063
1772094087796225000,0.83622509765625,-0.3729799106776714,-0.09362948347497731,0.24177345114350318
1772094087806174000,0.846174072265625,-0.21749124280214308,-0.09404594618822447,0.05760653192475438
1772094087816123100,0.856123046875,-0.046993221843242644,-0.03187665465888567,-0.11925284075960516
1772094087826072000,0.866072021484375,0.15119418555200098,0.03405416309474967,-0.1930949796270579
1772094087836022000,0.87602197265625,0.4627841002434492,0.045809190557291726,-0.26838607519380747
1772094087845971200,0.88597119140625,0.5070797535657883,0.0071227828183211385,-0.1961342742577195
1772094087855920000,0.895920166015625,0.3489624907523393,-0.07651986104357056,0.01598638142198324
1772094087865869000,0.905869140625,0.12595394583344457,-0.06376493582348339,0.07678622949533163
1772094087875819000,0.915819091796875,0.028912790751457213,-0.04282757179746404,0.07063377128019928
1772094087885768000,0.925767822265625,-0.11425766282081604,-0.0019049294390249996,0.027033479810878634
1772094087895716900,0.935716796875,-0.14319149636030196,-0.007114636044483632,-0.05681742737367749
1772094087905666000,0.945666015625,-0.12677929074168204,0.03099289409429766,-0.08991758681237697
1772094087915615000,0.955614990234375,-0.028378537744283675,0.0053818209025077515,-0.06686433574408292
1772094087925565000,0.96556494140625,0.09203121796548366,-0.037938612445816394,0.00008197919502854347
1772094087935513900,0.975513916015625,0.19922376470565795,-0.001756972335698083,0.04881999887898564
1772094087945463000,0.985463134765625,0.21953531585037708,-0.008616683771042152,0.025618717642128468
1772094087955412000,0.995411865234375,0.21572306408584116,-0.0115738896088209,-0.002245440839231014
1772094087965362200,1.005362060546875,0.18372224419116973,0.013328167663933708,-0.10963760180473327
1772094087975311000,1.01531103515625,0.11741291198134422,0.03595479995114729,-0.12731675861924885
1772094087985260000,1.025260009765625,0.00992401264309883,0.01149234880520962,-0.1084624205455184
1772094087995209000,1.035208984375,-0.020622516790032387,-0.03771198234939947,-0.08532455993369222
1772094088005158000,1.045157958984375,0.018752631264925,-0.07095150459301658,-0.07202639468237758
1772094088015108000,1.055108154296875,0.10456161371469497,-0.04830887101907283,-0.07126593170389532
1772094088025057000,1.06505712890625,0.13009411437809468,-0.07973376332246698,-0.020458850660920142
1772094088035006000,1.075005859375,0.12633797671496869,-0.10743937024124897,-0.01571998557075858
1772094088044955100,1.084955078125,0.1531634397983551,-0.054363430950837205,-0.06460121311768889
1772094088054904800,1.09490478515625,0.10077683447897434,-0.036463379660947245,-0.12032748425379394
1772094088064854000,1.10485400390625,-0.09599602994322776,-0.03743000533655286,-0.13511048123538494
1772094088074803200,1.11480322265625,-0.18128595695495606,-0.06913221217740792,-0.09741086517721415
1772094088084752100,1.124752197265625,-0.23926059153974055,-0.08625670795096084,-0.03528612517565489
1772094088094701000,1.134701171875,-0.1480436125665903,-0.07134089663624762,-0.017107786667346952
1772094088104651000,1.144651123046875,-0.09599076924622059,-0.07732682091174647,-0.04778744096085429
1772094088114600000,1.154599853515625,0.060520811936259265,-0.04454651367771439,-0.03422331824973225
1772094088124548900,1.164548828125,0.13258417762815952,-0.02151981268962845,-0.10595876716151834
1772094088134498000,1.174498046875,0.2913374002575874,-0.008939842177648098,-0.11617445622757076
1772094088144448000,1.184447998046875,0.29003508548736573,-0.024672111841244623,-0.14474179454222322
1772094088154397000,1.19439697265625,0.3030623248428106,-0.01753769338405691,-0.09908303617313503
1772094088164345900,1.204345947265625,0.29735271502435207,-0.022587341456441208,-0.06336173445060848
1772094088174295000,1.214294921875,0.2483212653517723,-0.008930325430631637,-0.04924859955459833
1772094088184245000,1.224244873046875,0.08119125952124595,-0.00803115723435767,-0.00079363459572196
1772094088194194200,1.234194091796875,-0.15161094965934752,-0.06103045565856155,0.03340630277842283
1772094088204143000,1.24414306640625,-0.3376730349749327,-0.09340848853490315,0.026043226664513346
1772094088214092000,1.254092041015625,-0.4384621444135904,-0.02959569498170167,-0.020147592754662037
1772094088224041000,1.264041015625,-0.29596272197067736,-0.0020390680795535445,-0.12336626742780207
1772094088233991000,1.273990966796875,-0.06283376505374907,-0.053766049579577514,-0.10125146625339984
1772094088243940000,1.283940185546875,0.10697744268476962,-0.00140573861207813,-0.03730433313027024
1772094088253889000,1.293888916015625,0.23342589403688907,-0.02871551461368799,-0.04479395823329687
1772094088263838000,1.303837890625,0.32400983580350873,-0.05114552835025824,-0.055604398322105404
1772094088273788000,1.313787841796875,0.3802876033425331,-0.037960568549297746,-0.05129238034188747
1772094088283736800,1.32373681640625,0.3030558951020241,-0.030963439670950173,-0.07999722743108868
1772094088293686000,1.33368603515625,0.15977847402393816,0.0486700233485084,-0.13029577443003654
1772094088303635200,1.34363525390625,-0.030059038177132603,-0.01237778987023048,-0.14689853418469428
1772094088313584000,1.353584228515625,-0.13380290576815604,-0.06547826994685456,-0.1763366639845073
1772094088323534000,1.3635341796875,-0.23277122952044008,0.06464264110662042,0.21280527694299817
1772094088333483000,1.37348291015625,-0.030745851397514342,-0.061670575626427304,0.16369608585909007
1772094088343432000,1.383431884765625,0.17413140902519225,-0.08841369418860412,-0.0615714900329709
1772094088353380900,1.393380859375,0.32024434579014777,0.07214807570013217,-0.07267229137048124
1772094088363331000,1.4033310546875,0.3747328918248415,0.09403755281921476,-0.06735138860866427
1772094088373280000,1.413280029296875,0.2949766335427761,0.015130111652519552,-0.023220862720161675
1772094088383229000,1.42322900390625,0.2437105566859245,-0.05331151987826451,0.05992986030578613
1772094088393178000,1.43317822265625,-0.03245499340295791,-0.049963337394944386,0.09727817870825528
1772094088403127800,1.4431279296875,-0.1529629487901926,-0.026498920843028462,0.03323182299435139
1772094088413077000,1.453076904296875,-0.21403262678086757,0.01676843061118852,-0.04748348957821726
1772094088423026200,1.463026123046875,-0.17406477352976799,0.08523494542147964,-0.05765709306821227
1772094088432975000,1.47297509765625,-0.047749593168497084,0.059846168644283895,-0.05570405930429697
1772094088442924000,1.482924072265625,0.02875613888502121,-0.0029678094301838426,0.0003429682187736034
1772094088452874000,1.4928740234375,0.1267769526541233,-0.018981540083396246,0.04894494043290615
1772094088462823000,1.502822998046875,0.18238427358567713,-0.027678942674142306,-0.024321809699386358
1772094088472772000,1.512772216796875,0.1100415064305067,-0.018201746783358976,-0.08878989795669913
1772094088482721000,1.522720947265625,0.05664543180763721,0.0249103547436418,-0.08418430385738611
1772094088492671000,1.5326708984375,0.07565759079158306,0.03208201363841071,-0.06129647248387336
1772094088502620000,1.542619873046875,0.09192775759100913,-0.016943038259423338,-0.02109846373870969
1772094088512568800,1.55256884765625,0.1726128211557865,-0.03424348425492644,0.03332666167095304
1772094088522518000,1.56251806640625,0.2590472420275211,-0.01896544289854355,0.021720541159808635
1772094088532468000,1.572468017578125,0.24668928023576736,-0.018634968835161997,-0.007448562440276145
1772094088542417200,1.582417236328125,0.07920388509631157,-0.020122462879982775,0.03560600477978587
1772094088552366000,1.592365966796875,-0.08264204285144805,-0.007510503494273871,0.0830696206137538
1772094088562315000,1.60231494140625,-0.03142097418010235,0.01374317363903392,0.05641980635821819
1772094088572264000,1.612263916015625,-0.03243687322437763,0.0316122315690387,0.02531388947665691
1772094088582214100,1.622214111328125,0.02148059492409229,0.042527931263763454,0.024366817884892224
1772094088592163000,1.6321630859375,0.1289642335653305,0.024285350146517157,-0.021511136192828417
1772094088602112000,1.642112060546875,0.15013853901922702,0.03140471716504544,-0.049642275047302245
1772094088612061000,1.65206103515625,-0.0023918635725975034,0.05332948935979511,-0.03209872731119394
1772094088622011000,1.662010986328125,-0.12076339145302772,0.0519506341880653,0.009230623551458119
1772094088631959800,1.671959716796875,-0.05511398445665836,-0.014075328202848321,0.003798077108711004
1772094088641909200,1.6819091796875,0.07229132922887802,-0.05222735963705927,-0.011516980922967195
1772094088651858200,1.691858154296875,0.09360825802385807,-0.006796172079304233,-0.029220833787322043
1772094088661808000,1.70180810546875,0.07466448810100555,0.04463888183601666,-0.023554770849645135
1772094088671757000,1.711757080078125,0.11333236466944217,0.03581656509081367,-0.020609365047514438
1772094088681706000,1.7217060546875,0.17577450005710124,-0.0007893237467855214,-0.037434243120253084
1772094088691655000,1.731655029296875,0.16286767221093176,-0.031219222796615213,-0.034971944659948344
1772094088701604000,1.74160400390625,0.09870821151137352,-0.03411879842933267,0.005565379042178392
1772094088711554000,1.751553955078125,0.06960428210198878,-0.013078659015428274,0.02665419816970825
1772094088721503000,1.7615029296875,0.08655190977156162,0.0054669647355796765,0.016667641684412954
1772094088731452000,1.771451904296875,0.10503332287967204,0.033525677674659526,-0.015627484981715678
1772094088741400800,1.78140087890625,0.11069733999073504,0.04676998471373226,-0.022380904764682054
1772094088751351000,1.79135107421875,0.06769406456649303,0.04298224633594509,-0.03249927093610167
1772094088761300500,1.801300537109375,0.02578326055407524,-0.00817165711701382,-0.03056625704690814
1772094088771249400,1.81124951171875,-0.019424831438064574,-0.05540948310478124,-0.0402886096380651
1772094088781198600,1.821198486328125,-0.06797697316110134,-0.04754633938109036,-0.04271978230774402
1772094088791148500,1.8311484375,-0.043192075994610786,-0.03531721443366259,-0.015844634863734244
1772094088801097500,1.841097412109375,0.05588906048238277,-0.043421322739799505,-0.02827244702130556
1772094088811046700,1.851046630859375,0.12302607568800449,-0.022804263009596613,-0.050356999187916515
1772094088820995600,1.86099560546875,0.11953063478767871,-0.014224089023773558,-0.041349955259263514
1772094088830944500,1.870944580078125,0.08625263456404209,0.00645242754239589,-0.0435932041414082
1772094088840894500,1.88089453125,0.050256023031473154,0.00997535010469146,-0.039109482856094835
1772094088850843400,1.890843505859375,-0.00505202269256115,-0.003128466184879653,-0.011447422818094492
1772094088860792300,1.900792236328125,-0.07953063283264636,0.008979192373924888,0.018531535860151053
1772094088870741500,1.910741455078125,-0.056395256438851356,0.00003703950818162411,0.05862286936044692
1772094088880691500,1.92069140625,0.027760113584995267,-0.03552430871254764,0.052687634092569345
1772094088890640400,1.930640380859375,0.08705284503102302,-0.03449378748787567,-0.0005992810674011707
1772094088900589600,1.940589599609375,0.1553583194941282,-0.006233893987466581,-0.04394698601514101
1772094088910538500,1.95053857421875,0.1080634843558073,0.03967409446891397,-0.0673421823889017
1772094088920488700,1.96048876953125,0.03772796536982059,0.0703676265907241,-0.05445259793847799
1772094088930437600,1.970437744140625,0.016277181062102318,0.054326382309501056,-0.02913096354678273
1772094088940386600,1.980386474609375,0.02729600320458412,0.016336194940074347,0.007397855166345834
1772094088950335500,1.99033544921875,0.07719254527390003,-0.011429001245414837,-0.002839168948680162
1772094088960285400,2.000285400390625,0.09833996272087096,-0.01089381665647961,-0.04107596062347293
1772094088970234400,2.010234375,0.10638649105429648,0.01314445426063612,-0.0647923517756164
1772094088980183600,2.02018359375,0.09044248746931552,0.03608207959262654,-0.05369461917802691
1772094088990132500,2.030132568359375,0.07334580671787262,0.008581868185987695,-0.01744315610155463
1772094089000082400,2.04008251953125,0.06679156276881694,-0.0362610346224159,0.0038528760358691213
1772094089010031400,2.05003125,0.08214987542033195,-0.04301639976729638,0.0071780749358236785
1772094089019980500,2.05998046875,0.12790800251066684,0.004568568290863186,-0.0019118249706923962
1772094089029929500,2.069929443359375,0.13001345035731793,0.05700158830154687,-0.04783361819013953
1772094089039878700,2.079878662109375,0.11226210508942604,0.08930961098186671,-0.05332125582098961
1772094089049828600,2.08982861328125,0.07752163109779357,0.06890122099970467,-0.05261836824864149
1772094089059777500,2.099777587890625,0.03637012102007866,0.017762633846886457,-0.02684592134952545
1772094089069726500,2.1097265625,-0.04700257419347763,-0.012087095261388457,0.0029136954896152017
1772094089079675400,2.11967529296875,-0.155498604747653,0.007804846798349171,0.012239011587202548
1772094089089625600,2.12962548828125,-0.12369476872980593,0.011294131952524185,0.0042705169260501856
1772094089099574500,2.139574462890625,0.035974984222650525,-0.023787684556376188,0.010105214428901672
1772094089109523500,2.1495234375,0.15082359867393968,-0.019360607095435262,0.00200447169020772
1772094089119472400,2.159472412109375,0.17372575083374975,0.014488407082343472,-0.01922185621187091
1772094089129422300,2.16942236328125,0.14902210220992565,0.047015205346187576,-0.05111293212175369
1772094089139371500,2.17937158203125,0.13009469889998435,0.01852542577977292,-0.04185980447754264
1772094089149320700,2.18932080078125,0.12305004108548163,-0.002977371842972934,-0.03369827146232128
1772094089159269600,2.19926953125,0.10993921509981154,-0.005775277199503034,-0.02150339127779007
1772094089169219600,2.209219482421875,0.10279986473917961,-0.0047185164218768475,-0.010932312902808189
1772094089179168500,2.21916845703125,0.09687807347476482,0.002613936224905774,-0.0266923382230103
1772094089189117400,2.229117431640625,0.059305590927600856,0.01688647206686437,-0.046830140236020085
1772094089199066400,2.23906640625,0.02379120995402336,0.02744843555362895,-0.021824586056172848
1772094089209016600,2.2490166015625,0.005889642560482025,0.017350034458003937,0.0021652152098715306
1772094089218965500,2.258965576171875,0.034731121641397474,-0.004584268183493986,-0.00903363967463374
1772094089228914400,2.26891455078125,0.030301030239462852,-0.03350306855062954,-0.026969839990139004
1772094089238863400,2.27886328125,-0.022977555483579635,-0.014189405869459732,0.0016464520327746867
1772094089248813600,2.2888134765625,-0.014858546435832976,0.015216630025347695,0.020541268247365952
1772094089258762500,2.298762451171875,0.07497837635576725,0.02330071389018558,0.0010148761309683322
1772094089268711700,2.308711669921875,0.18731705381274222,0.05768071140581742,-0.02033361684605479
1772094089278660600,2.31866064453125,0.20803426314890383,0.05835946918390691,-0.05866144780516624
1772094089288610600,2.328610595703125,0.16317396168112755,0.05451976315686479,-0.0574845129802823
1772094089298559500,2.3385595703125,0.1058370404779911,0.020144268286414444,-0.039809740079939364
1772094089308508400,2.34850830078125,0.08607669347524642,-0.029741907652514055,-0.019326924021542072
1772094089318457600,2.35845751953125,0.0759954444438219,-0.026471379815554245,-0.02281725035533309
1772094089328406500,2.368406494140625,0.06607552345395087,0.021473343199398368,-0.0609017740778625
1772094089338356500,2.3783564453125,0.02701017200052738,0.0469026118171867,-0.07713190112784504
1772094089348305400,2.388305419921875,-0.06925707609951495,0.03517323025255464,-0.05596913998126983
1772094089358254300,2.39825439453125,-0.08505261112451552,0.017438205931801346,-0.04078837585374713
1772094089368203500,2.40820361328125,-0.047777065697312354,-0.014873470010329038,-0.03952288596257567
1772094089378153500,2.418153564453125,-0.0005026888251304626,-0.025541597285307943,-0.013273323071002959
1772094089388102700,2.4281025390625,0.052042906448245045,-0.03212157846381888,-0.0038791795209050174
1772094089398051600,2.438051513671875,0.12648001553416252,-0.013740803585434332,-0.01802197890281677
1772094089408000500,2.44800048828125,0.14766308881640433,0.05175884707616642,-0.02069558202624321
1772094089417950500,2.457950439453125,0.10871873339414596,0.1170534401523415,-0.042765813406556843
1772094089427899600,2.467899658203125,0.054580900493264195,0.09227158432630822,-0.015996464424580335
1772094089437848600,2.4778486328125,0.05969897415935993,0.02755832566889003,0.04475947144180536
1772094089447797500,2.487797607421875,0.08066986599564552,-0.020970215982850638,0.05232070047631859
1772094089457747500,2.49774755859375,0.04982172326743602,-0.04449665578715503,0.00974193407446146
1772094089467696400,2.5076962890625,0.034086978518962856,-0.022841270551737396,-0.015653642336279153
1772094089477645300,2.517645263671875,0.0944388636291027,-0.03696900022868067,-0.041421997582167386
1772094089487594500,2.527594482421875,0.11308803451955318,-0.018925366616481913,-0.06677431937307118
1772094089497544400,2.53754443359375,0.055494508206844324,0.0013775902298279105,-0.0178790633007884
1772094089507493400,2.547493408203125,0.11036007086038589,-0.010225735536031424,-0.05408844080120325
1772094089517442600,2.557442626953125,0.134241297185421,-0.024893873966298996,-0.09637874565050006
1772094089527391500,2.5673916015625,0.06224281342327594,0.004913628002023324,-0.06858925984054803
1772094089537341700,2.577341796875,-0.027321137645840644,-0.023241640646709128,-0.012087620417773722
1772094089547290600,2.58729052734375,-0.048262218865752216,-0.06321047114534303,0.024779490339010952
1772094089557239600,2.597239501953125,0.0034323125362396237,-0.06314826522986404,0.02009732387214899
1772094089567188500,2.6071884765625,0.0533300236493349,-0.010990335833514109,-0.009124678958952427
1772094089577138400,2.617138427734375,0.11610767460167408,0.02839713284689933,-0.07993044580519199
1772094089587087400,2.62708740234375,0.14407470893561838,0.04988023938848637,-0.1360810798332095
1772094089597036500,2.63703662109375,0.14986381373107432,0.015960726390918716,-0.09435688443407415
1772094089606985500,2.6469853515625,0.1321358493387699,-0.03234493889091536,-0.02471533906161785
1772094089616935400,2.656935302734375,0.07998363729715346,-0.04931787453168072,0.009311141441762446
1772094089626884400,2.66688427734375,0.02802548652291298,-0.030492616421962156,-0.010283639735728501
1772094089636833500,2.67683349609375,-0.009449380868673325,-0.026963556379824876,-0.006112783791869879
1772094089646782500,2.686782470703125,0.013269231417775154,-0.010512169528286904,-0.03370148633271455
1772094089656732700,2.696732666015625,0.08770809406936168,-0.012655711762467398,-0.06040931438580155
1772094089666681600,2.706681640625,0.14327157585918904,0.0002631535813678056,-0.09483736142739653
1772094089676630500,2.716630615234375,0.13339666305482387,0.016528306278958915,-0.10064429414048791
1772094089686579500,2.726579345703125,0.1358703596919775,-0.01700707537238486,-0.0468511830240488
1772094089696529700,2.73652978515625,0.10071779776811599,-0.08161339392345399,0.006622925271093845
1772094089706478600,2.746478515625,0.035836452534794803,-0.08526566022015176,0.01613470385149121
1772094089716427500,2.756427490234375,-0.038786534512042996,-0.0507579081390053,0.021983283749222753
1772094089726376400,2.76637646484375,-0.06277823547422885,0.01425409600296989,0.02644640063792467
1772094089736326400,2.776326416015625,-0.07748305265307426,0.07933082681107334,0.014530045133829116
1772094089746275300,2.786275390625,-0.034925182908773424,0.07255871146079153,0.004391805218160152
1772094089756224800,2.796224853515625,0.052232876062393185,-0.002993464461248368,0.005250321743637323
1772094089766174000,2.806174072265625,0.12869593801796436,-0.028157972062472253,-0.00218026664853096
1772094089776123600,2.81612353515625,0.15783201613128184,-0.04937505721217021,-0.03714987322092056
1772094089786072800,2.82607275390625,0.16851999888420105,-0.04185089051872492,-0.05822802482396364
1772094089796021800,2.836021728515625,0.17192366984784602,-0.034750502195302395,-0.03932268721535802
1772094089805970700,2.845970703125,0.1715191807001829,-0.0611755677842535,-0.04802724106609821
1772094089815921000,2.8559208984375,0.12041034023165702,-0.05290662887180224,-0.047706484679132695
1772094089825869800,2.865869873046875,0.016637831068038938,-0.020526627800660207,-0.04892769703716039
1772094089835818800,2.87581884765625,-0.07933774060904979,-0.0010877404377795756,-0.05770853099450469
1772094089845767700,2.885767578125,-0.15739713184535503,0.004040014372114092,-0.03849193547964096
1772094089855717600,2.895717529296875,-0.17671850290894509,-0.020905315786786376,0.03209332048371434
1772094089865666800,2.905666748046875,-0.08788637324571609,-0.057131315628439185,0.07694748447164892
1772094089875615700,2.91561572265625,0.05923369473516941,-0.037161965517513454,0.04254559478461742
1772094089885565000,2.92556494140625,0.1721943034827709,0.006482420821860432,-0.01692453905493021
1772094089895514600,2.9355146484375,0.20182430259287357,0.023230689994432032,-0.0662586249358952
1772094089905463800,2.9454638671875,0.2204448319107294,0.016807452013902366,-0.06262976691424846
1772094089915412700,2.955412841796875,0.1924199299097061,-0.030892511592898516,-0.04454392899498343
1772094089925362000,2.96536181640625,0.11594167038500308,-0.013617770860809833,-0.010641659393161534
1772094089935312000,2.975311767578125,0.1348503689944744,-0.06194130972605198,0.002741846054047346
1772094089945260800,2.9852607421875,-0.036377135282754894,-0.03515763995777815,-0.03167977124676108
1772094089955209700,2.995209716796875,-0.04044131598174572,0.0012083894090726972,-0.040799481769651175
1772094089965158700,3.00515869140625,0.09232873960733413,-0.024162655348610132,-0.03558145486041903
1772094089975108900,3.01510888671875,0.08483049280643462,-0.08216412314139306,-0.17830226496905088
1772094089985057800,3.025057861328125,0.02161737304627895,0.03998157124919817,-0.09035641662105917
1772094089995006700,3.0350068359375,0.028639234507083892,0.05552234606184065,-0.03953501479178667
1772094090004955600,3.04495556640625,0.10121990207135677,-0.008530238463450223,-0.07903788087964057
1772094090014905600,3.054905517578125,0.07551262936294079,0.005720039880927652,-0.045046763950586315
1772094090024854800,3.064854736328125,0.03364449544847011,-0.010623100823163985,0.0027883155442774295
1772094090034804000,3.074803955078125,0.01926759504973888,-0.033919659128040076,0.026787761421501636
1772094090044753000,3.0847529296875,0.007954173874855041,-0.021362137909885493,0.014267887066304682
1772094090054702800,3.094702880859375,0.007454407659173011,-0.00015838716579601167,0.023621844736486673
1772094090064651800,3.10465185546875,0.0868009160965681,0.024830690803285687,0.022546032198518515
1772094090074600700,3.1146005859375,0.19812953972816466,0.05762309946706518,-0.03803352418765425
1772094090084549600,3.124549560546875,0.25254034435153006,0.07363032274767756,-0.05381576133966445
1772094090094499800,3.134499755859375,0.190402160346508,0.07459065567981452,-0.02719020474255085
1772094090104448800,3.14444873046875,0.07967851687073707,0.017708967430889604,-0.007791238398104906
1772094090114397700,3.154397705078125,-0.017322890722751616,-0.04227399303531274,0.025317688868939876
1772094090124346600,3.1643466796875,-0.03453939846158027,-0.06352936436878517,0.04913330261185765
1772094090134296600,3.174296630859375,0.006286532923579216,-0.03147133439416066,0.03617094518616795
1772094090144245800,3.184245849609375,0.08891630081534385,0.006258786400128156,0.000048807577788829804
1772094090154195000,3.19419482421875,0.14476970546245574,0.04335006130160764,-0.038934856941550966
1772094090164143900,3.204143798828125,0.09774082778394222,0.09107627359451725,-0.06651026160940528
1772094090174093800,3.21409375,0.06235971780121326,0.1021753761652857,-0.053973436119407414
1772094090184042800,3.224042724609375,0.0361591086179018,0.04314173404686153,-0.03119739455729723
1772094090193991700,3.23399169921875,0.018950199663639068,-0.04659989341041073,0.01450374164879322
1772094090203940900,3.24394091796875,-0.032844869503378865,-0.08571871035043149,0.05287511948868632
1772094090213890800,3.253890869140625,-0.012228782454133034,-0.046267665781360115,0.0006480886451900005
1772094090223839700,3.26383984375,0.07044891623258591,0.01978666875408962,-0.09875292743593454
1772094090233788700,3.27378857421875,0.12054068861305713,-0.011787632824201135,-0.12090952192544936
1772094090243737600,3.283737548828125,0.10534545756876468,-0.04520115079469979,-0.11497969348505138
1772094090253687800,3.293687744140625,0.07047697328329086,-0.04838162572802975,-0.120766606323421
1772094090263636700,3.30363671875,0.04581716380119324,-0.07264154917234554,-0.07876490915715693
1772094090273586000,3.3135859375,-0.00955284124314785,-0.12173528695879503,0.013080138586461544
1772094090283534800,3.323534912109375,-0.05795125370919704,-0.009252561388630419,0.049505789186060425
1772094090293484800,3.33348486328125,-0.04330138158798218,-0.04423968535140156,-0.017175591206550597
1772094090303433700,3.343433837890625,-0.029410218879580497,-0.04420481496741995,-0.08064984612092375
1772094090313383000,3.3533828125,0.08141746949255466,0.036235352191887796,-0.08396627719253301
1772094090323332900,3.363332763671875,0.15102175159454345,0.03985926004378125,-0.08247413893863559
1772094090333281800,3.37328173828125,0.18541209697425365,-0.0010834661214612423,-0.053412587366253136
1772094090343230700,3.383230712890625,0.17844459604918955,-0.042243981489539145,0.0012967618122696875
1772094090353179600,3.3931796875,0.13465689224898814,-0.07232377019375562,0.03696881756559014
1772094090363128600,3.403128662109375,0.09114449825882912,-0.07602136433636769,0.005594312875717878
1772094090373078800,3.413078857421875,0.05641279209554195,-0.03540257289586589,-0.03266410610899329
1772094090383027700,3.42302783203125,0.03992985932826996,-0.010240312050655483,-0.019145283844321966
1772094090392976600,3.4329765625,0.041516836258769035,-0.011696483942028135,-0.011419950289279222
1772094090402925800,3.44292578125,0.03623860359489917,-0.017326014261599628,0.004119418017566204
1772094090412875800,3.452875732421875,0.03749883278906345,-0.04632544211689382,0.02908917023167014
1772094090422825000,3.462824951171875,0.06925882966518401,-0.047937864015903324,0.014712415963411331
1772094090432774000,3.47277392578125,0.092246906542778,0.0023860731526277957,-0.03230959358289838
1772094090442723800,3.482723876953125,0.054337154865264886,0.05411481735147535,-0.06462035620957612
1772094090452672800,3.4926728515625,0.00982990461885929,0.05773439608812332,-0.038456279644370074
1772094090462621700,3.50262158203125,0.0032218846559524533,-0.010889259212370961,0.010230448243767022
1772094090472570600,3.512570556640625,0.02741933732330799,-0.06996089525362477,0.029332769729197024
1772094090482520800,3.522520751953125,0.04963409174084663,-0.08222759856535121,-0.001098755022138357
1772094090492469800,3.5324697265625,0.08217734794914722,-0.07386871634712443,-0.039940965244174
1772094090502418700,3.542418701171875,0.09298749577701092,-0.062007835623621936,-0.07299407067075371
1772094090512367600,3.55236767578125,0.14293021507561207,-0.07302327849892899,-0.01314721247330308
1772094090522317600,3.562317626953125,0.008844985234737396,-0.015842333308793602,-0.007528203547745943
1772094090532266800,3.572266845703125,-0.06962649393379688,0.04460499326614663,0.0229017137683928
1772094090542216000,3.5822158203125,-0.009240706554055213,0.016919570618867872,-0.006397592082619667
1772094090552164900,3.592164794921875,0.10835574530065059,-0.039022188165131956,-0.0472859211795032
1772094090562114800,3.60211474609375,0.1813958470702171,-0.03238773685302585,-0.055847851689159865
1772094090572063700,3.612063720703125,0.17802198672294617,-0.03956049629291519,-0.05004238028079271
1772094090582012700,3.6220126953125,0.13537117799818515,-0.06654896791828796,0.008983370792120695
1772094090591961900,3.6319619140625,0.10963409467339515,-0.09946134969992562,0.02151157458424568
1772094090601911800,3.641911865234375,0.08606675660312176,-0.08318009525090456,0.10381401021778583
1772094090611860700,3.65186083984375,-0.03606383154988289,-0.042297520041372626,0.05659516292512416
1772094090621809700,3.6618095703125,-0.020204583638906478,-0.03294502367591485,0.062382514154911035
1772094090631758600,3.671758544921875,0.0913800605803728,-0.04509031083136797,0.02234539505988359
1772094090641708800,3.681708740234375,0.18398703260719776,0.04335082848658785,-0.020727000077813862
1772094090651657700,3.69165771484375,0.14467793552577496,0.009363967607542873,-0.10769655073955654
1772094090661607000,3.70160693359375,-0.003496609944105148,-0.03983523984737694,-0.15292816973775625
1772094090671555800,3.711555908203125,-0.04138414978981018,-0.017020382378529757,-0.0837001736022532
1772094090681505800,3.721505859375,-0.049883098065853115,-0.06705423229299486,-0.07194821487963199
1772094090691454700,3.731454833984375,0.014436521631479262,-0.07351595738669857,-0.06906681422442197
1772094090701404000,3.74140380859375,0.05666705911755562,-0.07069689964428544,-0.022289719349890946
1772094090711352800,3.751352783203125,0.06260580151677131,-0.07205777620133012,-0.02818623004257679
1772094090721302800,3.761302734375,0.06731003368496895,-0.04386031237868592,-0.04790551438257098
1772094090731251700,3.771251708984375,0.0682090283513069,-0.017493260587286202,-0.06721081109419465
1772094090741200600,3.78120068359375,0.07723346180617809,-0.007496748963557183,-0.08337503330111504
1772094090751149600,3.791149658203125,0.09730535897612572,-0.04115551039939746,-0.07596446478366851
1772094090761098800,3.8010986328125,0.10911620827913283,-0.07769864989882334,-0.06459595242068171
1772094090771048000,3.8110478515625,0.1334422557622194,-0.09424191628489642,-0.07101721763983368
1772094090780996900,3.820996826171875,0.12342355057299137,-0.09852324686590581,-0.06662146689891815
1772094090790945800,3.83094580078125,0.09627543140649795,-0.0948424759939313,-0.03884761704951525
1772094090800896000,3.84089599609375,0.012084990069270133,-0.05524358391938731,-0.02221373150423169
1772094090810845000,3.850844970703125,-0.07179448562264441,-0.02563197898250073,-0.008136983095854521
1772094090820793900,3.8607939453125,-0.11387889263629912,-0.06758094131452963,0.023143851961195467
1772094090830742800,3.87074267578125,-0.06256897663772105,-0.0796118813753128,0.03290712108463049
1772094090840693000,3.88069287109375,0.02628302676975727,-0.07044661467764526,0.017656652721762655
1772094090850642000,3.890641845703125,0.12302432212233542,-0.05223877608021721,-0.007072714865207672
1772094090860590800,3.9005908203125,0.16558745256364343,-0.02131789690935984,-0.037524113360792394
1772094090870540800,3.910540771484375,0.1504974354594946,0.009490279134642333,-0.09259761967658996
1772094090880489700,3.92048974609375,0.1083031383305788,0.019672805716609582,-0.10368117761835455
1772094090890439000,3.93043896484375,0.04913491004705429,-0.003500747263105586,-0.05128872708007693
1772094090900388000,3.94038818359375,-0.02698912921249866,-0.030688750915415584,-0.013210486967861652
1772094090910338000,3.950338134765625,-0.060573418906331056,-0.05112421156759374,0.02380991465449333
1772094090920287000,3.960286865234375,-0.032497663500905036,-0.061935391441918904,0.052159956956654784
1772094090930236000,3.97023583984375,0.06898527342081069,-0.026985950874723493,0.020811025099456308
1772094090940184800,3.980184814453125,0.1744599103271961,0.00771747904215008,-0.024943302598595618
1772094090950135000,3.990135009765625,0.23023791165053842,0.03883740618275478,-0.08183817912265658
1772094090960084000,4.000083984375,0.1817418840289116,0.07089380132271908,-0.12195377028137444
1772094090970033000,4.010032958984375,0.06310498321056365,0.08364196800845675,-0.12915493383184073
1772094090979981800,4.01998193359375,-0.02286006658375263,0.021500340804178265,-0.058407180783152574
1772094090989931800,4.029931884765625,-0.07630991722047328,-0.030506115224352103,-0.010704349365830422
1772094090999880700,4.039880615234375,-0.08021861509680747,-0.07050255524911918,0.0030988427981734276
1772094091009830000,4.049829833984375,-0.06344575947225094,-0.045429041266441345,0.0007600245870649815
1772094091019779000,4.059779052734375,0.025689737051725385,-0.01486910436246544,-0.03749342596158385
1772094091029728800,4.069728759765625,0.12318331207633018,0.009093589700944722,-0.06635477878674864
1772094091039678000,4.079677978515625,0.15172726951539517,0.01279667286942713,-0.07617547718584537
1772094091049627000,4.089626953125,0.09785188694298266,0.008290456624515354,-0.0702376115694642
1772094091059575800,4.099575927734375,0.06968553064465523,-0.016288953698286784,-0.013151888648420571
1772094091069526000,4.109526123046875,0.047933717563748354,-0.030502882087649775,-0.018728811997920272
1772094091079475000,4.119474853515625,0.04347849172055721,-0.052692648194404314,-0.023078970031440257
1772094091089424000,4.129423828125,0.015353051954507826,-0.07014265416185371,0.01025602107644081
1772094091099372800,4.139372802734375,0.021997896796464918,-0.04594827023441903,0.02158770856037736
1772094091109322800,4.14932275390625,0.07294190209209919,0.00020373327801935374,-0.014666677125543355
1772094091119272000,4.15927197265625,0.1366279000610113,0.05947447208794765,-0.052928164850175374
1772094091129220900,4.169220947265625,0.17943126899898051,0.08073593523548915,-0.07374956521317362
1772094091139170000,4.179170166015625,0.1400222186744213,0.03771542554865591,-0.06876914645209908
1772094091149119700,4.18911962890625,0.08003098357021808,-0.006865657118940725,-0.029382600220292807
1772094091159069000,4.19906884765625,0.03941957171857357,-0.04061827998384833,-0.002339548863470554
1772094091169017900,4.209017822265625,0.032554362124204636,-0.05299441675310954,-0.014991525165736675
1772094091178967000,4.218967041015625,0.02406885785162449,-0.040122185296285896,-0.03219984959810972
1772094091188917000,4.2289169921875,-0.003300210589170456,-0.024515715703135356,-0.04625029452145099
1772094091198866000,4.238865966796875,0.0012076222240924835,0.030816660744557155,-0.06827391028106213
1772094091208814800,4.24881494140625,0.0068956047326326365,0.05857911241711117,-0.0629594372600317
1772094091218764800,4.258764892578125,0.012940145593881605,0.04636402056161314,-0.05044482360184192
1772094091228714000,4.2687138671875,0.020365911680459974,0.027886863503511994,-0.02384542435929179
1772094091238663000,4.278662841796875,0.0320721315652132,0.015683964409306646,-0.023506109402328727
1772094091248611800,4.28861181640625,0.042729719179868696,0.02738254897687584,-0.01403597800657153
1772094091258561800,4.298561767578125,0.037329321441054344,0.05215525338207371,-0.009986410354822874
1772094091268510700,4.3085107421875,0.061436757737398144,0.06462158005228266,0.0033731296949088573
1772094091278460000,4.3184599609375,0.13492635684013365,0.06441667773048393,0.024010259532183408
1772094091288409000,4.3284091796875,0.1487543911844492,0.07970674745137803,0.006731792473047971
1772094091298359000,4.338359130859375,0.16326514709591863,0.08218609751118347,-0.014381284312903881
1772094091308308000,4.348307861328125,0.16303075381815432,0.06298319259495475,-0.0404256800211966
1772094091318257000,4.3582568359375,0.09120470401346684,0.04814875768707134,-0.04444616770893335
1772094091328205800,4.368205810546875,-0.007967617878317833,0.04334165879944339,-0.051714697407186025
1772094091338156000,4.378156005859375,-0.07047171258628368,0.009050937869306653,-0.023980741176754236
1772094091348105000,4.38810498046875,-0.08512158470749855,-0.012218187994882463,-0.00011602759510278701
1772094091358054000,4.398053955078125,-0.02650046891272068,0.00013197408290579915,0.00038709962144494055
1772094091368002800,4.4080029296875,0.0545154340416193,0.028750640725996344,-0.03437573233246803
1772094091377952800,4.417952880859375,0.1434901870459318,0.04127148319557309,-0.05809051604941487
1772094091387901700,4.427901611328125,0.1801724427551031,0.05446475416715257,-0.07471358793973923
1772094091397851000,4.437850830078125,0.16271686556339263,0.0645847917058505,-0.11285115702375768
1772094091407800000,4.447800048828125,0.09899462723731994,0.06566582840820774,-0.1013653018914163
1772094091417749800,4.457749755859375,0.04845744917690754,0.02625720734191127,-0.06220803437083959
1772094091427699000,4.467698974609375,0.00852583628296852,-0.019481749257072804,-0.03318038506805897
1772094091437648000,4.47764794921875,0.04387479756176471,-0.00003497998183593154,-0.012946136943250895
1772094091447596800,4.4875966796875,0.11405132659375666,-0.006516213493607938,-0.03286211289912462
1772094091457547000,4.497547119140625,0.15988953318297863,0.01846196862212382,-0.08959683042541146
1772094091467496000,4.507495849609375,0.15387246485054493,0.06763763993782922,-0.10817103638350963
1772094091477444900,4.51744482421875,0.129233698156476,0.03877795847994275,-0.07124108952358364
1772094091487393800,4.527393798828125,0.06666238343119621,-0.016458291516359896,-0.013942162243276834
1772094091497343700,4.53734375,-0.03153261786103249,-0.036016129083791745,0.023972704000771044
1772094091507293000,4.54729296875,-0.11026070213913917,-0.020449050786113365,0.010780921733379363
1772094091517241900,4.557241943359375,-0.06717384008467198,0.026399008699087425,-0.00005538344904780387
1772094091527191000,4.56719091796875,0.07471358793973923,0.0715070013176184,-0.03490823177397251
1772094091537140700,4.577140625,0.17667232567965982,0.0718109070344828,-0.056403878136724234
1772094091547090000,4.58708984375,0.215180627772212,0.05666783543569035,-0.05333981439098715
1772094091557038800,4.597038818359375,0.135298697283864,0.015080619088141246,-0.06558262537047267
1772094091566989000,4.606989013671875,0.015174188256263732,-0.03985717768454924,-0.03671586571782827
1772094091576938000,4.61693798828125,-0.03892506619989872,-0.06791216429658234,0.004258095835894346
1772094091586887000,4.626886962890625,-0.013595394632220268,-0.02551994257592596,-0.017964257366210223
1772094091596835800,4.6368359375,0.07748422169685364,-0.011642013808432966,-0.034909546948224304
1772094091606785800,4.646785888671875,0.09204057031571865,-0.02896816506735049,-0.05872925234436988
1772094091616735000,4.65673486328125,0.04819149171710014,0.009747824959130957,-0.07594166842997074
1772094091626684000,4.666683837890625,-0.0360936421662569,0.02989239463964477,-0.06857625422850251
1772094091636632800,4.6766328125,-0.07757423806786537,0.0034465967899188397,-0.014808423683792352
1772094091646582800,4.686582763671875,-0.026590485283732413,-0.015932778938068076,0.00465527845993638
1772094091656531700,4.69653173828125,0.06604279022812842,-0.012248829728318377,-0.0014822013817727565
1772094091666481000,4.70648095703125,0.18437866227328775,0.0021802575153764335,0.00021978023052215574
1772094091676430000,4.71643017578125,0.23652386005222795,0.014629669583402572,-0.020836451801657677
1772094091686380000,4.726380126953125,0.16703122163116932,0.02060785807701759,-0.04264247928783297
1772094091696329000,4.736328857421875,0.0836813227713108,0.04408526197466999,-0.02672697114497423
1772094091706278000,4.74627783203125,0.029439444974064824,0.030581071023549882,-0.019361849204450846
1772094091716226800,4.756226806640625,0.025981997996568678,0.021423512708302585,-0.03433116253837943
1772094091726177000,4.766177001953125,0.04803951602578163,0.018286447658436372,-0.020042671075463293
1772094091736126000,4.7761259765625,0.1018546928435564,-0.006354437927482649,-0.018117109840363264
1772094091746075000,4.786074951171875,0.14084113384187222,-0.034189936569938434,-0.02105959303304553
1772094091756023800,4.79602392578125,0.15490005433261395,-0.041439350575767454,-0.025871523359417913
1772094091765974000,4.80597412109375,0.08034194921553134,-0.05086621821853332,-0.013521598743647336
1772094091775923000,4.8159228515625,-0.014220833054184912,-0.04965457740644924,-0.012854805397987366
1772094091785872000,4.825871826171875,-0.0789016872793436,-0.04243543980787508,0.001376695180684328
1772094091795821000,4.835821044921875,-0.08249532785713672,-0.036433386381482705,0.026861411179602144
1772094091805771000,4.84577099609375,-0.017163316246867177,-0.032112043450493365,0.034752310559898615
1772094091815720200,4.85572021484375,0.045048517516255375,0.0007796517361421138,0.021333587668836116
1772094091825669000,4.865669189453125,0.08249065168201923,0.0559061577476561,0.005376432341337204
1772094091835618000,4.8756181640625,0.07601356462240219,0.07389409738355315,-0.0022891338504850865
1772094091845568000,4.885568115234375,0.05811199722886085,0.054775199222657826,0.01633972490429878
1772094091855517000,4.895516845703125,-0.008988777619600296,0.028185060998797414,0.030168489900976418
1772094091865466000,4.905466064453125,-0.04384323337972164,0.01697679896513,0.011831015308201312
1772094091875415000,4.9154150390625,0.0006435586005449295,0.0007921732909977436,-0.003002688947319984
1772094091885365000,4.925364990234375,0.03533960892856121,-0.029767781879287213,0.006365443378686905
1772094091895314000,4.93531396484375,0.07325520582497119,-0.0321818207510747,0.01103109710216522
1772094091905262800,4.945262939453125,0.09684358668327331,-0.013693302048742771,-0.050180911968648434
1772094091915212000,4.9552119140625,0.08670096285343169,0.0028117329524829982,-0.07892273006737231
1772094091925162000,4.965161865234375,0.06709317606389523,0.014987515710899605,-0.09069938483983278
1772094091935111200,4.975111083984375,0.05427402650117874,-0.013422613614890723,-0.05954802138134837
1772094091945060000,4.98506005859375,0.060385202857851976,-0.059022216542111705,-0.007494155147671699
1772094091955009000,4.995009033203125,0.07934943104684353,-0.07145707949497737,0.013807722208648919
1772094091964959000,5.004958984375,0.10511924759745597,-0.04860249280394054,-0.017709698083251714
1772094091974908200,5.014908203125,0.17236673744022846,-0.036450511046219616,-0.025038725797086953
1772094091984857000,5.024857177734375,0.2353548162728548,-0.031635484580462794,-0.01693944436311722
1772094091994806000,5.034805908203125,0.2349544187784195,-0.0395071952030994,-0.04794204700067639
1772094092004756000,5.044755859375,0.19240180973112583,-0.00819713405156508,0.01575447236225009
1772094092014705000,5.054704833984375,0.025853987702727316,-0.014210101597616449,-0.10419438783749937
1772094092024653800,5.06465380859375,-0.08964929126501082,0.034616829345654694,-0.09493760693147778
1772094092034604000,5.07460400390625,-0.11575053172707557,-0.0006054550798609852,-0.049873015063256025
1772094092044553000,5.084552978515625,-0.02032031897306442,-0.08215326382066122,-0.05927022735327482
1772094092054502000,5.094501953125,-0.019154782325029374,-0.07677778132739477,-0.00528466240465641
1772094092064451000,5.104451171875,-0.05216799413263797,-0.01844852461866103,0.019583967522531748
1772094092074401000,5.114401123046875,-0.0036006548404693603,0.005683644260140136,0.06682882603928446
1772094092084350200,5.12435009765625,0.07499474296867847,0.016733811388956382,0.04977086986303329
1772094092094299100,5.134299072265625,0.11090776787102222,0.020453178971959276,-0.003948153103888035
1772094092104248000,5.144248046875,0.07352408589422703,0.04136964634042233,-0.01946633249223232
1772094092114198000,5.154197998046875,0.0016015899777412413,0.03913550321334042,-0.00834901841133833
1772094092124147000,5.16414697265625,-0.013128946164250373,0.00868099944521673,0.007554068641364574
1772094092134096000,5.174095947265625,0.04863280574381351,-0.01995521198771894,-0.007351677937060594
1772094092144045000,5.184045166015625,0.13808277504444122,-0.03604582096915692,-0.03731032447963953
1772094092153995000,5.1939951171875,0.20155016182661056,-0.04026611467846669,-0.03890241597667336
1772094092163944000,5.20394384765625,0.21703882285952567,-0.02897926185010001,-0.04636164594143629
1772094092173892900,5.213892822265625,0.19200491936802863,0.01949989683511667,-0.062006374318897724
1772094092183842000,5.223842041015625,0.09000584961771964,0.0557751883117482,-0.09129808138534426
1772094092193792000,5.2337919921875,-0.0274754514247179,0.0257426636822056,-0.08101984847709535
1772094092203741200,5.2437412109375,-0.04552022668123245,-0.03890860825544223,-0.03211553231552243
1772094092213690000,5.253690185546875,-0.047210079464316365,-0.0730462209830992,-0.06199556066393852
1772094092223639000,5.26363916015625,-0.03984802626371384,-0.07616520238700322,-0.05223989032506943
1772094092233589000,5.273589111328125,0.0023375030368566513,-0.06787166788941248,-0.012359276966005563
1772094092243538000,5.283537841796875,0.06330372065305709,-0.039437290038354694,-0.009681143797934055
1772094092253487000,5.293487060546875,0.16599954049587248,0.009258479672763496,-0.035299569179117675
1772094092263436000,5.30343603515625,0.207726220113039,0.023442332584271208,-0.05118614348843693
1772094092273386000,5.313385986328125,0.15825520997941492,0.01606143768588081,-0.007842822454869747
1772094092283335000,5.3233349609375,0.07619768901765346,-0.0035076153953094032,-0.006731207951158284
1772094092293283800,5.333283935546875,0.02829845824539661,-0.04819698987612501,0.003219546568393707
1772094092303233000,5.34323291015625,-0.020355390286445618,-0.04620395289538428,0.0332440979540348
1772094092313183000,5.353182861328125,-0.011854103922843933,-0.032377681249892334,0.035468203744292257
1772094092323132200,5.363132080078125,-0.02817220151722431,-0.03512824946651235,-0.0010223287850618362
1772094092333081000,5.3730810546875,-0.01007306572496891,-0.028446917672222478,0.010091332034021615
1772094092343030000,5.383030029296875,0.02551145787537098,-0.015546236439049243,0.0080463822029531
1772094092352980000,5.39297998046875,0.053720484271645545,-0.00734101954572834,-0.010457388867437838
1772094092362929200,5.40292919921875,0.09546002337038516,-0.01224023542990908,-0.026945728462189435
1772094092372878000,5.412878173828125,0.13173311375677585,-0.018606427727267144,-0.03745411686450243
1772094092382827000,5.422826904296875,0.08864391361474991,-0.005248632110049948,-0.04276654405891895
1772094092392777000,5.43277685546875,0.052449149161577224,-0.044264618863258505,-0.012921587023884058
1772094092402726000,5.442725830078125,0.06728197663426398,-0.07625600420930423,-0.009400865551829337
1772094092412674800,5.4526748046875,0.1262023676365614,-0.08308423366099596,-0.017855244033783673
1772094092422624000,5.4626240234375,0.20036358239054677,-0.05852865173835307,-0.06671279844418168
1772094092432574000,5.472573974609375,0.23762743737995623,0.013800086891464888,-0.12451952911615372
1772094092442523000,5.48252294921875,0.2169546517074108,0.04028445405275561,-0.10581672834232449
1772094092452472000,5.49247216796875,0.11755085914731025,0.018133814379991963,-0.10402210001051425
1772094092462421000,5.5024208984375,0.005063713130354881,-0.021720513760345055,-0.1159964693121612
1772094092472371200,5.51237109375,-0.0678477938234806,-0.10035222499188967,-0.06139481829181313
1772094092482320100,5.522320068359375,-0.17429682871997357,-0.12866497662412002,0.01511354411020875
1772094092492269000,5.53226904296875,-0.23652912074923513,-0.10148029744005761,0.04478665170967579
1772094092502219000,5.542218994140625,-0.08328209432065486,-0.05721619003345258,0.005722177039086818
1772094092512168000,5.55216796875,0.11987667174637318,-0.00782272951491177,-0.05899959371834993
1772094092522116900,5.562116943359375,0.20011691415309904,0.0472577453977894,-0.0671618573859334
1772094092532066000,5.572066162109375,0.19897885003387927,0.04652113821892999,-0.04992898303419351
1772094092542016000,5.58201611328125,0.12180033328533171,0.010937080409470945,-0.00829597304984927
1772094092551965000,5.59196484375,0.046534956681728364,-0.00683449479569681,-0.00124459323361516
1772094092561913900,5.601913818359375,0.031247371178865432,-0.031330692947609345,0.006261106221377849
1772094092571863000,5.611863037109375,0.02864449520409107,-0.053817368774861096,-0.010829729311168193
1772094092581813000,5.62181298828125,0.07736088757812977,-0.08621547175827436,-0.01793152414038777
1772094092591762200,5.63176220703125,0.12147358554899691,-0.08606804437790996,-0.027371698789298533
1772094092601711000,5.641711181640625,0.17093232072293757,-0.07994839245383627,-0.05050488322600722
1772094092611660000,5.651659912109375,0.15342062942981718,-0.05905139697082341,-0.06424377798214555
1772094092621610000,5.66160986328125,0.10380524238944053,-0.03167019056766294,-0.08318900920972228
1772094092631559000,5.671558837890625,0.03618599662482738,-0.027134839559812097,-0.07579363826140761
1772094092641508000,5.681508056640625,-0.03638882572054863,-0.04392974261939525,-0.05053922388702631
1772094092651457000,5.69145703125,-0.00517009611427784,-0.057294689496606585,0.03449804353788495
1772094092661407000,5.701406982421875,-0.04978022221326828,-0.09444202370056883,-0.05621989987194538
1772094092671356000,5.71135595703125,-0.02233107427358627,-0.052091659227106714,-0.0766698365740478
1772094092681304800,5.721304931640625,-0.009211480459570884,0.0028981051948387174,0.017365560820698737
1772094092691254000,5.73125390625,0.05045651403963566,-0.018243311769608406,-0.02439925884976983
1772094092701204000,5.741203857421875,0.13672668426036835,-0.013214514689007773,0.002056348007917404
1772094092711153200,5.751153076171875,0.17395020723938942,-0.0002656560657080263,-0.0043042730651795865
1772094092721102000,5.76110205078125,0.16613982574939726,0.007233111324999481,-0.027160540256649254
1772094092731051000,5.771051025390625,0.09128829064369201,0.029702644221205263,-0.019240999303758142
1772094092741001200,5.781001220703125,0.0002028290957212448,0.011932247192971408,-0.0033697686940431593
1772094092750950100,5.7909501953125,-0.06188800863623619,-0.018340397202223538,-0.010716624325513839
1772094092760899300,5.8008994140625,-0.07952771022319793,-0.05280075734453275,0.007039543247967958
1772094092770848300,5.81084814453125,-0.022118892827630042,-0.05854655272122472,0.012963234208524226
1772094092780798200,5.820798095703125,0.047129415443539616,-0.050028817546321075,-0.01501855930313468
1772094092790747400,5.830747314453125,0.1182026010543108,-0.024011191113945094,-0.03328720644339919
1772094092800696300,5.8406962890625,0.12885668153762816,0.0075888111611828206,-0.041025253349542615
1772094092810645200,5.850645263671875,0.11662263838648795,0.0495619946190156,-0.04485007233470678
1772094092820595200,5.86059521484375,0.0973451064646244,0.06428373553319834,-0.025584815372526645
1772094092830544100,5.870544189453125,0.07144084987938404,0.024009592811902982,0.01597381420135498
1772094092840493300,5.880493408203125,0.028852584996819496,0.02206685211313888,0.021040449941158293
1772094092850442500,5.8904423828125,-0.0060644146054983136,0.014468085813522338,0.019850217243283987
1772094092860392400,5.900392333984375,0.032194296640157695,-0.03486631972785108,-0.00003141805157065391
1772094092870341400,5.91034130859375,0.0713338823735714,-0.023457438821857794,-0.04028115698397159
1772094092880290300,5.920290283203125,0.11179098044633864,0.013063735440932214,-0.07510609438866377
1772094092890239200,5.9302392578125,0.11714052478075027,0.02968862482900731,-0.0621608342282474
1772094092900189400,5.940189453125,0.08489303664863108,0.02945085228406824,-0.039313042604178186
1772094092910138400,5.950138427734375,0.02565291217267513,0.0060514637923799455,-0.025077742633223533
1772094092920087300,5.96008740234375,-0.01383095695376396,-0.0016209248658735304,0.0006220774210989474
1772094092930036200,5.9700361328125,-0.033365678507089616,0.0018436459721531719,0.01745893819257617
1772094092939986200,5.979986083984375,-0.018602993661165235,-0.0007035999584011733,0.02153305576369166
1772094092949935000,5.98993505859375,0.039422494328022,0.012708428330393507,-0.010515402664989232
1772094092959884300,5.99988427734375,0.08916530714035034,0.012161443705810232,-0.031168022332340478
1772094092969833500,6.00983349609375,0.10037526794075965,0.01948178578969091,-0.047010903630405665
1772094092979783400,6.019783447265625,0.07782733604609966,0.03151537446528673,-0.04421893482431769
1772094092989732400,6.029732421875,0.07504208924174309,0.0414412046061363,-0.03182560945823788
1772094092999681300,6.039681396484375,0.05561901136934757,0.07973324273265897,-0.026477818689495322
1772094093009630200,6.049630126953125,0.01073357546031475,0.08216457066596485,-0.002195902609080076
1772094093019580400,6.059580322265625,0.011468319475650787,0.0287464668743778,0.016941928581148385
1772094093029529300,6.069529296875,0.040189387047290796,-0.013486463498184456,0.00711874596402049
1772094093039478300,6.079478271484375,0.1015109939724207,-0.011375161299481988,-0.03458849830031395
1772094093049427200,6.08942724609375,0.14758417836129664,-0.0018992394837550818,-0.1048508059196174
1772094093059377200,6.099377197265625,0.17114274860322473,0.023935449863458053,-0.15474983220696448
1772094093069326300,6.109326416015625,0.13954466429054735,0.01645587123041041,-0.1386247729666531
1772094093079275300,6.119275146484375,0.08688976342380046,-0.010399292871495708,-0.09785656311810016
1772094093089224400,6.129224365234375,0.009879004457592964,-0.025411751227406784,-0.03661240534335375
1772094093099174100,6.139174072265625,-0.06377309173047542,-0.04325143236587755,-0.01611950628235936
1772094093109123300,6.149123291015625,-0.11083236454725265,-0.04565193590265698,-0.001183072304725647
1772094093119072300,6.159072265625,-0.11456044515967369,-0.02629467154177837,-0.015573708967864513
1772094093129021400,6.169021484375,-0.03103694329857826,-0.00932307847472839,-0.03792991768270731
1772094093138971400,6.178971435546875,0.08730945014059543,-0.011685706819687038,-0.07051146007478237
1772094093148920300,6.18892041015625,0.13593290353417395,0.043879327606409786,-0.09530191019922495
1772094093158869200,6.198869140625,0.1511766498953104,0.10211455848929471,-0.08561784379184245
1772094093168818200,6.208818115234375,0.1638905855178833,0.09359343491406179,-0.06077975513339042
1772094093178768400,6.218768310546875,0.15842589037120341,0.04978985769129358,-0.008957944089919328
1772094093188717300,6.22871728515625,0.1813479162752628,-0.023193709851754826,0.040395577143877745
1772094093198666200,6.238666259765625,0.15131518158316612,-0.06195197725053876,0.024333061745762823
1772094093208615400,6.248615478515625,0.10035890132784843,-0.044144700544327495,-0.012461276035755873
1772094093218565000,6.258565185546875,0.056983869981765745,0.00819780990500003,-0.05119155031591654
1772094093228514300,6.268514404296875,0.03680149817466736,0.04676512130894698,-0.06221490250304341
1772094093238463500,6.27846337890625,0.051690439748764035,0.06902796178506687,-0.06333309287801385
1772094093248412400,6.288412353515625,0.055820086899399754,0.0723810168063268,-0.07832169543430209
1772094093258362400,6.2983623046875,-0.007076806518435477,0.050887863794760776,-0.0490134756244719
1772094093268311300,6.308311279296875,-0.058811085408926,-0.005341187498020008,0.023107027082145213
1772094093278260200,6.31826025390625,-0.02542553315758705,-0.052710010321158914,0.03237126064226031
1772094093288209200,6.328209228515625,0.05893558857142925,-0.053390046740882095,-0.011484539958089589
1772094093298159400,6.338159423828125,0.11457038203179835,0.004431580106122419,-0.08456234338954091
1772094093308108300,6.3481083984375,0.1309855102598667,0.025546291726734487,-0.09404065809175371
1772094093318057200,6.35805712890625,0.10624912841022013,0.0363744684016332,-0.0672881141141057
1772094093328006100,6.368006103515625,0.04530161549448967,0.04817122524720616,-0.03863835821300745
1772094093337956000,6.3779560546875,-0.001841243952512741,0.06111350799924694,-0.027006957130134103
1772094093347905300,6.3879052734375,0.027884032225608823,0.058070971098728476,-0.02380290039181709
1772094093357854500,6.3978544921875,0.10798340485692023,0.025606625345535573,-0.013296557816118002
1772094093367803400,6.407803466796875,0.12674071229696274,0.015977056471211833,-0.013687602960318327
1772094093377753300,6.41775341796875,0.10639642792642116,0.017742750969482586,-0.011665449482947588
1772094093387702300,6.427702392578125,0.09455284539759158,-0.007679466853011399,-0.002909457705914974
1772094093397651200,6.437651123046875,0.10290157154798507,-0.010533376713097094,-0.01712707588970661
1772094093407600400,6.447600341796875,0.10697568911910056,0.03029674678998999,-0.07748232200071214
1772094093417550300,6.45755029296875,0.07477905439138412,0.0784437600445468,-0.11670929375663398
1772094093427499300,6.467499267578125,0.04525485374331474,0.03973384356582537,-0.06271116158738732
1772094093437448200,6.4774482421875,0.01466974586546421,-0.015780492719495668,-0.012512860092520712
1772094093447397000,6.487397216796875,-0.021679916888475415,-0.05784545524716377,0.02362695930302143
1772094093457347300,6.497347412109375,-0.005898410388827323,-0.05244697547079995,0.024025018709897993
1772094093467296300,6.507296142578125,0.062201896890997886,-0.011818265424482523,-0.005109890359640121
1772094093477245400,6.517245361328125,0.12892448607683182,0.0216765832870733,-0.05532733494639396
1772094093487194400,6.5271943359375,0.17486732208430766,0.05397676972080953,-0.06903948782607913
1772094093497144300,6.537144287109375,0.14162030152082442,0.07499109884002246,-0.08498845984712243
1772094093507093200,6.54709326171875,0.053721653315424917,0.0549326365403831,-0.04860241060554981
1772094093517042400,6.55704248046875,-0.03812134860157966,-0.01693913383586332,0.013257394849509
1772094093526991400,6.566991455078125,-0.06842939310371875,-0.050767991141602395,0.007292202834784984
1772094093536941300,6.57694140625,-0.05551145934164524,-0.02163613254567608,-0.011562573630362748
1772094093546890200,6.58689013671875,-0.014868483307957649,0.010928221249580383,-0.006785568486899137
1772094093556839200,6.596839111328125,0.009580313771963118,0.06274898198028095,-0.017950521101802588
1772094093566788000,6.6067880859375,0.022093173864483832,0.09067909097047522,-0.023292028260231017
1772094093576738300,6.61673828125,0.03829436708092689,0.07984365343772806,-0.031685470335185525
1772094093586687200,6.626687255859375,0.11241524982452392,0.025387986759329212,-0.03696136491149664
1772094093596636400,6.636636474609375,0.17408347823023795,-0.01883382500866428,-0.04080795733705163
1772094093606585300,6.64658544921875,0.17258827123641968,0.004632007182203233,-0.05413388737812638
1772094093616535300,6.656535400390625,0.1305459497988224,0.011368256634660064,-0.03248758049830794
1772094093626484500,6.666484375,0.09195230751037597,-0.0006127707366365938,-0.003677519468963146
1772094093636433400,6.676433349609375,0.1323456926971674,-0.003393213501712307,0.005255728571116924
1772094093646382300,6.68638232421875,0.1652145275980234,-0.03305513298688456,-0.026788053682446477
1772094093656332300,6.696332275390625,0.15490356146395207,-0.03013430450358428,-0.08149550316482781
1772094093666281200,6.70628125,0.08711714243888855,-0.015898328679194672,-0.0980539853863418
1772094093676230100,6.716230224609375,-0.0086661215364933,-0.0016780436142813412,-0.11175050230547785
1772094093686179300,6.726179443359375,-0.15315350292623042,0.0014997553047724067,-0.0752682992130518
1772094093696129300,6.73612939453125,-0.20517945823967457,-0.041681032110843806,0.021415128472447396
1772094093706078200,6.746078125,-0.161436762624979,-0.07696835372974165,0.06524594076201319
1772094093716027100,6.756027099609375,-0.04641629873812198,-0.07940518895522691,0.07492386968955397
1772094093725976300,6.765976318359375,0.0946615664690733,-0.03503277146909386,0.06776829884648322
1772094093735926300,6.77592626953125,0.21276830593347548,0.019005217786505817,0.015011252779513597
1772094093745875500,6.78587548828125,0.24311025270521638,0.08307565762889571,-0.04358735892251134
1772094093755824400,6.795824462890625,0.22573592405617235,0.06414790725908241,-0.017881985910236833
1772094093765773800,6.80577392578125,0.1956833156198263,0.02420505145192146,-0.008625935656577348
1772094093775723800,6.815723876953125,0.11088204890787601,-0.018259093860629946,-0.010575754550099372
1772094093785672700,6.825672607421875,0.01378477972447872,-0.06072968718027696,0.04594415118172764
1772094093795622000,6.835621826171875,-0.023969489130377768,-0.1058700020326767,0.06474412871971726
1772094093805570800,6.84557080078125,-0.004179331511259079,-0.08250881752637214,0.05509250327721238
1772094093815520800,6.855520751953125,0.04927227269113064,-0.026906903422297908,0.011472118867933749
1772094093825469700,6.8654697265625,0.04347089293599128,0.02174674418014474,-0.08459478435441851
1772094093835418600,6.875418701171875,-0.0024479776740074155,0.019707529970118775,-0.10441679841652513
1772094093845367600,6.885367431640625,-0.04579787457883358,-0.001164102742774412,-0.018037322602421045
1772094093855317800,6.89531787109375,0.008913958817720412,-0.05596914911442436,0.024590835899114608
1772094093865266700,6.9052666015625,0.027176760739088056,-0.10707026293422095,0.010550473978370428
1772094093875216000,6.9152158203125,0.05470306556820869,-0.08391736001688986,-0.024153759656101465
1772094093885164800,6.925164794921875,0.10260521894991398,-0.05519476720844395,-0.03869841783717275
1772094093895114800,6.93511474609375,0.17202303856909273,-0.0273466648127418,-0.05461962506845593
1772094093905064000,6.94506396484375,0.16496376770734786,-0.02184463333035819,-0.03958323784768581
1772094093915012900,6.955012939453125,0.11159984178841113,-0.01120627100598067,-0.03944850555211305
1772094093924961800,6.9649619140625,0.05919336272478103,-0.011691040581930427,-0.017379297085106372
1772094093934910700,6.97491064453125,0.029310850158333776,-0.02861282142419368,-0.009863222366571426
1772094093944860700,6.984860595703125,0.02040975082218647,-0.02753522792109288,-0.02655307588279247
1772094093954809600,6.9948095703125,0.025019290444254872,0.018781263704365118,-0.014080840061604975
1772094093964758800,7.0047587890625,0.007424597042798996,0.0504887266756501,-0.03341507060676813
1772094093974708700,7.014708740234375,-0.01317395434975624,0.03322304603285156,0.010514672012627124
1772094093984657700,7.02465771484375,0.013999883779883385,0.0035315807927865533,0.023785218604654074
1772094093994606800,7.03460693359375,0.013984686210751532,-0.011727509267954156,0.025166736090928316
1772094094004555800,7.0445556640625,0.011146247914433478,0.021187091870233415,-0.010545797803252936
1772094094014504700,7.054504638671875,0.02163841583430767,-0.018538760185381396,-0.02582315417304635
1772094094024455000,7.064454833984375,0.045298692885041236,-0.0553054793076124,-0.009067834205180406
1772094094034403800,7.07440380859375,0.06970189725756645,-0.07420435064281336,0.018876257644593716
1772094094044352800,7.084352783203125,0.08066518982052802,-0.08287550454745068,0.02650251473933458
1772094094054301700,7.0943017578125,0.12508768439292908,-0.06642534153861925,0.11739479180276394
1772094094064251600,7.104251708984375,0.06358896733522415,-0.09010969358468428,-0.09851517315730451
1772094094074200800,7.114200927734375,0.09684884738028049,-0.015402909845067187,-0.02734817178323865
1772094094084149800,7.124149658203125,0.07199380758702754,0.08097531521562486,0.02263794826567173
1772094094094098700,7.1340986328125,0.04201367986500263,0.01829028358333744,-0.021229542772471903
1772094094104048600,7.144048583984375,0.09417173712551594,-0.010472641235496849,0.05397782003358006
1772094094113997800,7.153997802734375,0.13568623529672622,0.012729799911985173,0.057390697216987606
1772094094123946800,7.16394677734375,0.10869009182155132,0.005214793772529811,-0.0023316578179597854
1772094094133896000,7.17389599609375,0.07438274855017661,0.0798492155288346,-0.0038147359825670716
1772094094143846000,7.183845947265625,0.041858781564235684,0.06346355085726826,0.0751901194103062
1772094094153794800,7.193794921875,0.19527531934082507,-0.018013256740244104,0.0156755619071424
1772094094163743700,7.20374365234375,0.1987643305003643,-0.09762012401372194,-0.054898222814127796
1772094094173692700,7.213692626953125,0.09980185196697712,-0.12801328038289211,-0.08024747586511075
1772094094183643000,7.223642822265625,0.10402969879508017,-0.05824977999804541,-0.1375980602674186
1772094094193591800,7.233591796875,0.1703518904864788,-0.11113609673418104,-0.2147485199652612
1772094094203540700,7.243540771484375,-0.011005962660908699,-0.022528715737536547,-0.18078356039077043
1772094094213489700,7.25348974609375,-0.15776538063585757,0.06309863566816784,-0.19719868861883877
1772094094223439600,7.263439697265625,-0.22062135752141473,-0.008968867342732846,-0.07940949067100882
1772094094233388500,7.273388427734375,-0.17092881359159945,-0.04883199984403327,0.018168693897128104
1772094094243338000,7.283337890625,-0.06995148810446263,-0.09439856815133243,0.0700438425630331
