time,seconds_elapsed,z,y,x
1772094087040085200,0.080085205078125,-0.010559218004345894,0.005570806562900543,0.025718677788972855
1772094087050034200,0.0900341796875,-0.0016907460521906614,0.0037729202304035425,0.029073815792798996
1772094087059983400,0.0999833984375,-0.0005029761232435703,0.006872307043522596,0.022705666720867157
1772094087069933000,0.10993310546875,0.0056414357386529446,0.011283268220722675,0.016946665942668915
1772094087079882200,0.11988232421875,0.009623395279049873,0.018829867243766785,0.010124445892870426
1772094087089831400,0.12983154296875,0.011552741751074791,0.02028610371053219,0.0033928658813238144
1772094087099780400,0.1397802734375,0.015293685719370842,0.016586972400546074,0.002201367635279894
1772094087109729300,0.149729248046875,0.01811370626091957,0.009705097414553165,0.0057526929304003716
1772094087119679200,0.15967919921875,0.019319850951433182,0.007716781459748745,0.006593719124794006
1772094087129628200,0.169628173828125,0.014754578471183777,0.007518721278756857,0.010606121271848679
1772094087139577000,0.1795771484375,0.010289257392287254,0.00245232367888093,0.012846638448536396
1772094087149526300,0.1895263671875,0.0033654882572591305,0.000009484589099884033,0.007726792246103287
1772094087159476200,0.199476318359375,0.008421499282121658,-0.0005436539649963379,-0.005865715444087982
1772094087169425200,0.209425048828125,0.006293179001659155,-0.0026247859932482243,-0.017332764342427254
1772094087179374300,0.219374267578125,0.011601923033595085,-0.012709377333521843,-0.015240585431456566
1772094087189323300,0.2293232421875,0.009345730766654015,-0.010602221824228764,-0.00883915089070797
1772094087199272200,0.239272216796875,-0.0034779231064021587,-0.002574122976511717,-0.005293684545904398
1772094087209222400,0.249222412109375,-0.011753098107874393,-0.003453938290476799,-0.004139833152294159
1772094087219171300,0.25917138671875,-0.017922842875123024,0.0011908812448382378,0.0002032499760389328
1772094087229120300,0.269120361328125,-0.017115822061896324,0.0009082420729100704,0.006864533759653568
1772094087239069200,0.279069091796875,-0.006725233048200607,-0.008268212899565697,0.018182702362537384
1772094087249019100,0.28901904296875,-0.0096326544880867,-0.0010456349700689316,0.02050992101430893
1772094087258968300,0.29896826171875,-0.014645522460341454,0.0060945660807192326,0.014565744437277317
1772094087268917200,0.308917236328125,-0.015404208563268185,0.004435598850250244,0.009841415099799633
1772094087278866200,0.3188662109375,-0.015573053620755672,0.009606658481061459,0.005468238145112991
1772094087288815400,0.3288154296875,-0.01229138858616352,0.004342638887465,0.011756671592593193
1772094087298765000,0.33876513671875,-0.008114753291010857,0.0036630001850426197,0.02546769008040428
1772094087308714200,0.34871435546875,-0.01036843378096819,0.0005850219167768955,0.03364874795079231
1772094087318663400,0.358663330078125,-0.008132442831993103,-0.00019182218238711357,0.025007322430610657
1772094087328612400,0.3686123046875,-0.01385362446308136,0.007928106933832169,0.017339851707220078
1772094087338562300,0.378562255859375,-0.011137733235955238,0.010594464838504791,0.010922698304057121
1772094087348511200,0.38851123046875,-0.007991131395101547,0.0055122170597314835,0.003275154158473015
1772094087358460200,0.398460205078125,-0.005292817018926144,0.010437467135488987,-0.0027526444755494595
1772094087368409000,0.4084091796875,-0.0039450847543776035,0.0025776394177228212,-0.001089541707187891
1772094087378358300,0.418358154296875,0.0011657876893877983,-0.008126670494675636,0.0010545691475272179
1772094087388308200,0.42830810546875,-0.0009065410122275352,-0.013528136536478996,-0.005972820334136486
1772094087398257200,0.438257080078125,-0.00016005709767341614,-0.013998186215758324,-0.015321314334869385
1772094087408206300,0.448206298828125,-0.0006044155452400446,-0.018342554569244385,-0.02001263201236725
1772094087418155300,0.4581552734375,-0.0076175834983587265,-0.02337726205587387,-0.021384160965681076
1772094087428105500,0.46810546875,-0.015399811789393425,-0.021689848974347115,-0.013493504375219345
1772094087438054400,0.478054443359375,-0.018106915056705475,-0.0219684150069952,-0.002863497007638216
1772094087448003300,0.48800341796875,-0.01892823912203312,-0.022324271500110626,0.008694693446159363
1772094087457952300,0.4979521484375,-0.010196799412369728,-0.03095131553709507,0.009664351120591164
1772094087467901200,0.507901123046875,-0.01583670638501644,-0.04202963784337044,0.024510636925697327
1772094087477851100,0.51785107421875,-0.03225136548280716,-0.07447519898414612,0.04692992568016052
1772094087487800300,0.52780029296875,-0.022318413481116295,-0.05111517012119293,0.03367254510521889
1772094087497749200,0.537749267578125,-0.04238266870379448,-0.03129006549715996,-0.00047024525701999664
1772094087507698200,0.5476982421875,-0.06092926487326622,-0.01972893811762333,-0.022998906672000885
1772094087517648100,0.557648193359375,-0.07009214162826538,-0.046786390244960785,-0.026128917932510376
1772094087527597300,0.567597412109375,-0.07368619740009308,-0.05762277916073799,-0.01805386133491993
1772094087537546200,0.577546142578125,-0.07190454006195068,-0.026337824761867523,-0.009708579629659653
1772094087547495400,0.587495361328125,-0.078628309071064,-0.016158729791641235,0.009830992668867111
1772094087557444400,0.5974443359375,-0.09252655506134033,-0.03796868398785591,0.039702605456113815
1772094087567394300,0.607394287109375,-0.09076820313930511,-0.05736565589904785,0.06464093923568726
1772094087577343200,0.61734326171875,-0.090479776263237,-0.032302115112543106,0.047971151769161224
1772094087587292200,0.627292236328125,-0.0658707544207573,-0.009287039749324322,0.03779472038149834
1772094087597241000,0.637240966796875,-0.04651036858558655,0.0013224610593169928,0.043504804372787476
1772094087607191300,0.64719140625,-0.036163460463285446,0.022539274767041206,0.04962295666337013
1772094087617140200,0.65714013671875,-0.020440153777599335,-0.02063802257180214,0.07758641242980957
1772094087627089200,0.667089111328125,-0.011367970146238804,-0.036085374653339386,0.09466883540153503
1772094087637038300,0.677038330078125,0.008737830445170403,-0.016409678384661674,0.0788632407784462
1772094087646987300,0.6869873046875,0.0147959403693676,0.02625291422009468,0.05058914050459862
1772094087656937500,0.6969375,0.003703607711941004,0.01824905164539814,0.05162830650806427
1772094087666886400,0.706886474609375,-0.0037778690457344055,-0.028590671718120575,0.07016006857156754
1772094087676835300,0.71683544921875,0.010705466382205486,-0.04131392389535904,0.05842219293117523
1772094087686784300,0.7267841796875,0.015543542802333832,-0.04624847322702408,0.011813562363386154
1772094087696734200,0.736734130859375,0.008384700864553452,-0.053212106227874756,-0.043064866214990616
1772094087706683100,0.74668310546875,-0.005941492971032858,-0.057704709470272064,-0.0931778997182846
1772094087716632300,0.75663232421875,-0.022446701303124428,-0.08359809219837189,-0.10409925878047943
1772094087726581200,0.766581298828125,-0.03263464197516441,-0.17591385543346405,-0.08106490969657898
1772094087736530200,0.7765302734375,-0.04126568138599396,-0.2120755910873413,-0.07448609918355942
1772094087746480000,0.786480224609375,-0.04435743764042854,-0.14401081204414368,-0.07990513741970062
1772094087756428000,0.796427978515625,-0.04067189246416092,-0.10015708208084106,-0.06788043677806854
1772094087766377000,0.806376953125,-0.04197576269507408,-0.09787090122699738,-0.008962135761976242
1772094087776326000,0.816325927734375,-0.014322830364108086,-0.12068992853164673,0.08213528990745544
1772094087786276000,0.826276123046875,0.007839062251150608,-0.10647547245025635,0.13501770794391632
1772094087796225000,0.83622509765625,0.01901102438569069,-0.09436767548322678,0.1657351404428482
1772094087806174000,0.846174072265625,0.006838154047727585,-0.08476506918668747,0.18274682760238647
1772094087816123100,0.856123046875,-0.01569538377225399,-0.05518534034490585,0.16757160425186157
1772094087826072000,0.866072021484375,-0.029917847365140915,0.027134258300065994,0.08749985694885254
1772094087836022000,0.87602197265625,-0.040798988193273544,0.11187364906072617,0.0024552636314183474
1772094087845971200,0.88597119140625,-0.032444559037685394,0.11233122646808624,-0.030016083270311356
1772094087855920000,0.895920166015625,-0.022331736981868744,0.09311411529779434,-0.027922306209802628
1772094087865869000,0.905869140625,-0.01185724325478077,0.09791910648345947,-0.02654239721596241
1772094087875819000,0.915819091796875,-0.013139821588993073,0.08986358344554901,-0.009766878560185432
1772094087885768000,0.925767822265625,-0.009271047078073025,0.0787491425871849,0.014218881726264954
1772094087895716900,0.935716796875,-0.009830843657255173,0.07681062817573547,0.03230813890695572
1772094087905666000,0.945666015625,-0.008509018458425999,0.07947495579719543,0.028548255562782288
1772094087915615000,0.955614990234375,-0.0007959713693708181,0.07806827127933502,0.02195480465888977
1772094087925565000,0.96556494140625,0.0093720443546772,0.07211244851350784,0.006529032252728939
1772094087935513900,0.975513916015625,0.01628987118601799,0.06745351105928421,-0.015425268560647964
1772094087945463000,0.985463134765625,0.018339009955525398,0.06437473744153976,-0.027187680825591087
1772094087955412000,0.995411865234375,0.011867528781294823,0.07478635758161545,-0.041603900492191315
1772094087965362200,1.005362060546875,0.0030859699472784996,0.07704880088567734,-0.04535987973213196
1772094087975311000,1.01531103515625,-0.0061844936572015285,0.07531481236219406,-0.0336156040430069
1772094087985260000,1.025260009765625,-0.005533071234822273,0.05899588391184807,-0.02003255859017372
1772094087995209000,1.035208984375,-0.0047530317679047585,0.05094248428940773,-0.02381051890552044
1772094088005158000,1.045157958984375,-0.00790148414671421,0.06266461312770844,-0.036484479904174805
1772094088015108000,1.055108154296875,0.0008565867319703102,0.074146568775177,-0.054470937699079514
1772094088025057000,1.06505712890625,0.004721941892057657,0.08368587493896484,-0.0658898577094078
1772094088035006000,1.075005859375,0.0041336496360599995,0.11053692549467087,-0.07805650681257248
1772094088044955100,1.084955078125,-0.005067816004157066,0.11840896308422089,-0.0709090530872345
1772094088054904800,1.09490478515625,-0.012177657335996628,0.10002116858959198,-0.040259528905153275
1772094088064854000,1.10485400390625,-0.01003248244524002,0.087435781955719,-0.012132823467254639
1772094088074803200,1.11480322265625,-0.0011995756067335606,0.0734294205904007,0.014266293495893478
1772094088084752100,1.124752197265625,0.0037867482751607895,0.06714300811290741,0.0419856496155262
1772094088094701000,1.134701171875,0.012273709289729595,0.05383598804473877,0.0535336509346962
1772094088104651000,1.144651123046875,0.007318437565118074,0.04867517203092575,0.05472912639379501
1772094088114600000,1.154599853515625,-0.001279577612876892,0.04078742861747742,0.049748215824365616
1772094088124548900,1.164548828125,-0.007885324768722057,0.05358805134892464,0.025894895195961
1772094088134498000,1.174498046875,-0.02027221955358982,0.039075154811143875,-0.0038097375072538853
1772094088144448000,1.184447998046875,-0.01968049444258213,0.03343697637319565,-0.03472111001610756
1772094088154397000,1.19439697265625,-0.022546321153640747,0.040813133120536804,-0.06694748997688293
1772094088164345900,1.204345947265625,-0.024912212044000626,0.058725617825984955,-0.0918397381901741
1772094088174295000,1.214294921875,-0.01555066742002964,0.05224588140845299,-0.08384199440479279
1772094088184245000,1.224244873046875,-0.00501637440174818,0.06330881267786026,-0.05512244254350662
1772094088194194200,1.234194091796875,0.0063974009826779366,0.05815906077623367,0.006974482908844948
1772094088204143000,1.24414306640625,-0.0012192283757030964,0.017754707485437393,0.06761672347784042
1772094088214092000,1.254092041015625,0.003909753635525703,0.00973433256149292,0.10126149654388428
1772094088224041000,1.264041015625,-0.004176544025540352,0.01934809237718582,0.09667956084012985
1772094088233991000,1.273990966796875,-0.005153391510248184,0.03589644283056259,0.0751284658908844
1772094088243940000,1.283940185546875,-0.00400372501462698,0.044503070414066315,0.05386839434504509
1772094088253889000,1.293888916015625,-0.004415716044604778,0.05556157976388931,0.018862208351492882
1772094088263838000,1.303837890625,0.005757602397352457,0.06975528597831726,-0.015494244173169136
1772094088273788000,1.313787841796875,-0.006563512608408928,0.08815586566925049,-0.054658424109220505
1772094088283736800,1.32373681640625,-0.01155618391931057,0.10603992640972137,-0.06373120844364166
1772094088293686000,1.33368603515625,-0.035839151591062546,0.0784250795841217,-0.049405794590711594
1772094088303635200,1.34363525390625,-0.03475940600037575,0.07861506938934326,-0.014339447021484375
1772094088313584000,1.353584228515625,-0.005725624039769173,0.03245636075735092,0.02503432333469391
1772094088323534000,1.3635341796875,0.003585629165172577,0.017625605687499046,0.03632418438792229
1772094088333483000,1.37348291015625,0.0007427050732076168,0.019965991377830505,0.023729562759399414
1772094088343432000,1.383431884765625,-0.004743774421513081,0.03452645614743233,-0.016293460503220558
1772094088353380900,1.393380859375,-0.009472750127315521,0.05772445350885391,-0.05299368128180504
1772094088363331000,1.4033310546875,-0.009842533618211746,0.052282121032476425,-0.0877058207988739
1772094088373280000,1.413280029296875,0.0006588422693312168,0.04402392730116844,-0.09297355264425278
1772094088383229000,1.42322900390625,0.006595267448574305,0.018528150394558907,-0.06917135417461395
1772094088393178000,1.43317822265625,0.015259861946105957,-0.014232726767659187,-0.027778903022408485
1772094088403127800,1.4431279296875,0.017927663400769234,-0.03891518712043762,0.000598052516579628
1772094088413077000,1.453076904296875,0.010334724560379982,-0.04383617639541626,0.02064419910311699
1772094088423026200,1.463026123046875,0.006482831668108702,-0.05808745324611664,0.030662719160318375
1772094088432975000,1.47297509765625,0.009032009169459343,-0.06267980486154556,0.03316529095172882
1772094088442924000,1.482924072265625,0.013793466612696648,-0.046104881912469864,0.026634223759174347
1772094088452874000,1.4928740234375,0.014680832624435425,-0.017909729853272438,0.013995127752423286
1772094088462823000,1.502822998046875,0.007856525480747223,-0.001908270176500082,0.005530991591513157
1772094088472772000,1.512772216796875,-0.00368561502546072,0.004521133378148079,0.0056305937469005585
1772094088482721000,1.522720947265625,-0.006764538586139679,0.010429233312606812,0.01112290844321251
1772094088492671000,1.5326708984375,-0.009153394028544426,0.0104750394821167,0.005450640805065632
1772094088502620000,1.542619873046875,-0.0036288376431912184,0.014225609600543976,-0.0065729557536542416
1772094088512568800,1.55256884765625,-0.0031646485440433025,0.024137895554304123,-0.024178581312298775
1772094088522518000,1.56251806640625,-0.0009327481966465712,0.02985725924372673,-0.03502887487411499
1772094088532468000,1.572468017578125,0.004795977380126715,0.0219173114746809,-0.02696748450398445
1772094088542417200,1.582417236328125,0.016473928466439247,-0.012070279568433762,-0.01394669059664011
1772094088552366000,1.592365966796875,0.020497431978583336,-0.01055307500064373,0.003181163454428315
1772094088562315000,1.60231494140625,0.02291261777281761,-0.0182479340583086,0.016994116827845573
1772094088572264000,1.612263916015625,0.025234894827008247,-0.02335694245994091,0.015264393761754036
1772094088582214100,1.622214111328125,0.02087402157485485,-0.01999705657362938,0.0020550417248159647
1772094088592163000,1.6321630859375,0.022783242166042328,-0.005568048916757107,-0.016652066260576248
1772094088602112000,1.642112060546875,0.019834548234939575,-0.006559932138770819,-0.007502167485654354
1772094088612061000,1.65206103515625,0.018630266189575195,-0.02831050008535385,0.017065227031707764
1772094088622011000,1.662010986328125,0.021504981443285942,-0.03495436906814575,0.023979831486940384
1772094088631959800,1.671959716796875,0.023022184148430824,-0.02322261407971382,0.010403569787740707
1772094088641909200,1.6819091796875,0.018334966152906418,-0.009597535245120525,-0.0015927618369460106
1772094088651858200,1.691858154296875,0.01504010334610939,-0.02234475687146187,-0.0000960654579102993
1772094088661808000,1.70180810546875,0.011944424360990524,-0.024777818471193314,-0.004232810810208321
1772094088671757000,1.711757080078125,0.004470264073461294,-0.020352443680167198,-0.014862817712128162
1772094088681706000,1.7217060546875,0.006032121833413839,-0.0248827263712883,-0.023921670392155647
1772094088691655000,1.731655029296875,0.007648127619177103,-0.028707023710012436,-0.028130263090133667
1772094088701604000,1.74160400390625,0.011193433776497841,-0.03673035278916359,-0.02112491801381111
1772094088711554000,1.751553955078125,0.016566362231969833,-0.032967839390039444,-0.02080746926367283
1772094088721503000,1.7615029296875,0.013869166374206543,-0.030221136286854744,-0.023969849571585655
1772094088731452000,1.771451904296875,0.012259284034371376,-0.02014426700770855,-0.026569627225399017
1772094088741400800,1.78140087890625,0.010434643365442753,-0.016398901119828224,-0.022216934710741043
1772094088751351000,1.79135107421875,0.007158156484365463,-0.015687569975852966,-0.018073055893182755
1772094088761300500,1.801300537109375,0.002693583257496357,-0.005347373895347118,-0.005981287453323603
1772094088771249400,1.81124951171875,0.006564488168805838,-0.012200751341879368,0.00607191352173686
1772094088781198600,1.821198486328125,0.005024328362196684,-0.022707108408212662,0.019057365134358406
1772094088791148500,1.8311484375,0.007677103858441114,-0.0175259280949831,0.01511428877711296
1772094088801097500,1.841097412109375,0.00394987128674984,-0.009844204410910606,0.0012784027494490147
1772094088811046700,1.851046630859375,-0.0006163846701383591,-0.0035737911239266396,-0.00673824455589056
1772094088820995600,1.86099560546875,-0.0030389775056391954,-0.005815660580992699,-0.002734071109443903
1772094088830944500,1.870944580078125,-0.007353831082582474,-0.004611645825207233,-0.00042670778930187225
1772094088840894500,1.88089453125,-0.00008536223322153091,-0.004138709511607885,0.000990582164376974
1772094088850843400,1.890843505859375,0.002556759864091873,-0.007707612123340368,0.014045131392776966
1772094088860792300,1.900792236328125,0.011366846039891243,-0.01932128705084324,0.02881813421845436
1772094088870741500,1.910741455078125,0.016595963388681412,-0.013399483636021614,0.028176313266158104
1772094088880691500,1.92069140625,0.012544998899102211,-0.014742700383067131,0.01855185441672802
1772094088890640400,1.930640380859375,0.01289440505206585,-0.01118205301463604,0.004884245805442333
1772094088900589600,1.940589599609375,0.007316669914871454,-0.0006421231664717197,-0.0014433586038649082
1772094088910538500,1.95053857421875,0.0021365550346672535,0.0016053183935582638,0.008598622865974903
1772094088920488700,1.96048876953125,0.001872014719992876,0.0013474025763571262,0.015078585594892502
1772094088930437600,1.970437744140625,0.0055394540540874004,0.003803635947406292,0.018951620906591415
1772094088940386600,1.980386474609375,0.006829045247286558,0.0032010844442993402,0.013923080638051033
1772094088950335500,1.99033544921875,0.005610915366560221,0.0052831438370049,0.0033852187916636467
1772094088960285400,2.000285400390625,0.0006277053616940975,0.006232001818716526,0.000317420344799757
1772094088970234400,2.010234375,-0.001747301546856761,-0.0013678609393537045,0.0025241156108677387
1772094088980183600,2.02018359375,-0.00037887063808739185,-0.004094628617167473,0.004893043544143438
1772094088990132500,2.030132568359375,0.0020997333340346813,-0.008578859269618988,0.0069948104210197926
1772094089000082400,2.04008251953125,0.00430777482688427,-0.01673925295472145,0.0048775323666632175
1772094089010031400,2.05003125,0.0068415068089962006,-0.01384945772588253,-0.001646147109568119
1772094089019980500,2.05998046875,0.0024749026633799076,-0.00443862471729517,-0.007886044681072235
1772094089029929500,2.069929443359375,-0.007390511222183704,0.004203067161142826,-0.010793950408697128
1772094089039878700,2.079878662109375,-0.010546287521719933,0.012892077676951885,-0.009889896959066391
1772094089049828600,2.08982861328125,-0.011762818321585655,0.017441555857658386,-0.007853643968701363
1772094089059777500,2.099777587890625,-0.002690171357244253,0.02726108208298683,0.00532992510125041
1772094089069726500,2.1097265625,0.0018622362986207008,0.0153421051800251,0.030962584540247917
1772094089079675400,2.11967529296875,0.010433631017804146,0.0034678634256124496,0.04958159103989601
1772094089089625600,2.12962548828125,0.014084291644394398,0.0032177926041185856,0.0451199971139431
1772094089099574500,2.139574462890625,0.017649566754698753,0.013587652705609798,0.026243560016155243
1772094089109523500,2.1495234375,0.013733386993408203,0.01425930205732584,0.017643678933382034
1772094089119472400,2.159472412109375,0.008480695076286793,0.00427235197275877,0.013155635446310043
1772094089129422300,2.16942236328125,0.005530444905161858,-0.002953070681542158,0.01078701950609684
1772094089139371500,2.17937158203125,0.004464508965611458,-0.00650136498734355,0.006361411884427071
1772094089149320700,2.18932080078125,0.006317802704870701,-0.012547273188829422,0.0037959888577461243
1772094089159269600,2.19926953125,0.009339326992630959,-0.016445118933916092,-0.0009415531530976295
1772094089169219600,2.209219482421875,0.008972077630460262,-0.01239738054573536,-0.0064734709449112415
1772094089179168500,2.21916845703125,0.0041177230887115,-0.0013437438756227493,-0.0040898192673921585
1772094089189117400,2.229117431640625,0.00664319796487689,0.0007601534016430378,0.003155310172587633
1772094089199066400,2.23906640625,0.005422502290457487,0.004000394605100155,0.012811562977731228
1772094089209016600,2.2490166015625,0.011440180242061615,0.009140295907855034,0.015391632914543152
1772094089218965500,2.258965576171875,0.01209137961268425,0.01696118898689747,0.015293631702661514
1772094089228914400,2.26891455078125,0.013520697131752968,0.009312856942415237,0.025731626898050308
1772094089238863400,2.27886328125,0.021504156291484833,-0.012436405755579472,0.03396308794617653
1772094089248813600,2.2888134765625,0.02365519106388092,-0.016620762646198273,0.031840816140174866
1772094089258762500,2.298762451171875,0.02067834511399269,-0.01151649933308363,0.011461278423666954
1772094089268711700,2.308711669921875,0.011810285970568657,-0.0019645397551357746,-0.0025125937536358833
1772094089278660600,2.31866064453125,0.012453388422727585,-0.009398868307471275,-0.0075355530716478825
1772094089288610600,2.328610595703125,0.006999767851084471,-0.016446124762296677,-0.008670859038829803
1772094089298559500,2.3385595703125,0.006264227908104658,-0.0208317618817091,-0.009294318035244942
1772094089308508400,2.34850830078125,0.008566264063119888,-0.017202138900756836,-0.010943080298602581
1772094089318457600,2.35845751953125,0.0013790912926197052,-0.015582715161144733,-0.01180705614387989
1772094089328406500,2.368406494140625,-0.005443128291517496,-0.0005100215785205364,-0.002980808261781931
1772094089338356500,2.3783564453125,-0.008802665397524834,0.0013882725033909082,0.01108462642878294
1772094089348305400,2.388305419921875,-0.007848987355828285,0.0032785842195153236,0.022344205528497696
1772094089358254300,2.39825439453125,-0.009388960897922516,0.008202537894248962,0.03127873316407204
1772094089368203500,2.40820361328125,-0.006943113170564175,0.010705643333494663,0.03287157043814659
1772094089378153500,2.418153564453125,-0.004076727200299501,0.003936212509870529,0.03411312401294708
1772094089388102700,2.4281025390625,-0.0007725430186837912,0.011536074802279472,0.02469458617269993
1772094089398051600,2.438051513671875,0.0015131635591387749,0.01632692664861679,0.015264371410012245
1772094089408000500,2.44800048828125,0.0016223532147705555,0.02816574089229107,0.015504321083426476
1772094089417950500,2.457950439453125,0.0016766833141446114,0.020272597670555115,0.01997428946197033
1772094089427899600,2.467899658203125,0.007783045526593924,0.015928449109196663,0.01914791204035282
1772094089437848600,2.4778486328125,0.015873447060585022,0.020876074209809303,0.01792892999947071
1772094089447797500,2.487797607421875,0.0199480839073658,0.016481591388583183,0.01804184913635254
1772094089457747500,2.49774755859375,0.023751530796289444,0.0032602716237306595,0.018246965482831
1772094089467696400,2.5076962890625,0.023167766630649567,0.023817744106054306,0.008591941557824612
1772094089477645300,2.517645263671875,0.01066836342215538,0.003678287845104933,-0.0026950985193252563
1772094089487594500,2.527594482421875,0.012636173516511917,-0.01997617445886135,0.013586669228971004
1772094089497544400,2.53754443359375,0.006546512246131897,-0.01967354491353035,0.002717019524425268
1772094089507493400,2.547493408203125,-0.0017271304968744516,0.00424403790384531,-0.010579610243439674
1772094089517442600,2.557442626953125,-0.006671171635389328,0.002350291470065713,-0.010592781007289886
1772094089527391500,2.5673916015625,-0.0023728294763714075,-0.0030455393716692924,0.0017986411694437265
1772094089537341700,2.577341796875,0.003093050792813301,-0.0074681774713099,0.01447091344743967
1772094089547290600,2.58729052734375,0.010500367730855942,-0.016868602484464645,0.025095060467720032
1772094089557239600,2.597239501953125,0.008927039802074432,-0.017731554806232452,0.02828144282102585
1772094089567188500,2.6071884765625,-0.0030478639528155327,-0.013080076314508915,0.025419076904654503
1772094089577138400,2.617138427734375,-0.017000233754515648,-0.0020073656924068928,0.01654045656323433
1772094089587087400,2.62708740234375,-0.02159019000828266,0.005394358187913895,0.004552236758172512
1772094089597036500,2.63703662109375,-0.01962987147271633,0.006180926226079464,-0.0009318822994828224
1772094089606985500,2.6469853515625,-0.012986615300178528,0.006732999347150326,-0.002915671095252037
1772094089616935400,2.656935302734375,-0.010035152547061443,0.0033932854421436787,0.004815501160919666
1772094089626884400,2.66688427734375,-0.008174402639269829,-0.007414355408400297,0.013309121131896973
1772094089636833500,2.67683349609375,-0.009760787710547447,-0.009939375333487988,0.0201658196747303
1772094089646782500,2.686782470703125,-0.012372283264994621,-0.010036847554147243,0.012411494739353657
1772094089656732700,2.696732666015625,-0.023625323548913002,0.0007624262943863869,0.00524520967155695
1772094089666681600,2.706681640625,-0.028817689046263695,0.001264698337763548,-0.004189305007457733
1772094089676630500,2.716630615234375,-0.028946567326784134,0.00356493704020977,-0.011587096378207207
1772094089686579500,2.726579345703125,-0.025833331048488617,0.00864651519805193,-0.018028749153017998
1772094089696529700,2.73652978515625,-0.021625850349664688,0.015637464821338654,-0.01532481238245964
1772094089706478600,2.746478515625,-0.016211645677685738,0.016067299991846085,0.0018962526228278875
1772094089716427500,2.756427490234375,-0.009717501699924469,0.020413104444742203,0.0191322173923254
1772094089726376400,2.76637646484375,-0.009110301733016968,0.023541785776615143,0.03423100709915161
1772094089736326400,2.776326416015625,-0.002112786751240492,0.018297942355275154,0.046672090888023376
1772094089746275300,2.786275390625,0.0028460193425416946,0.012762561440467834,0.038044512271881104
1772094089756224800,2.796224853515625,0.00653043482452631,0.013973853550851345,0.024994051083922386
1772094089766174000,2.806174072265625,0.005510710179805756,0.005259191617369652,0.007787100970745087
1772094089776123600,2.81612353515625,0.002843946684151888,0.0009819897823035717,-0.0044615441001951694
1772094089786072800,2.82607275390625,0.0016641663387417793,-0.007373411674052477,-0.018135011196136475
1772094089796021800,2.836021728515625,-0.0004954661708325148,-0.0029213917441666126,-0.030460182577371597
1772094089805970700,2.845970703125,-0.0018470205832272768,0.006446543615311384,-0.03421976789832115
1772094089815921000,2.8559208984375,-0.005984998773783445,0.013133330270648003,-0.0238092802464962
1772094089825869800,2.865869873046875,-0.005309887230396271,0.019211996346712112,-0.0037852395325899124
1772094089835818800,2.87581884765625,-0.0040858229622244835,0.027872048318386078,0.019942253828048706
1772094089845767700,2.885767578125,0.008757270872592926,0.017794381827116013,0.046403154730796814
1772094089855717600,2.895717529296875,0.02002185583114624,0.016160335391759872,0.06116817891597748
1772094089865666800,2.905666748046875,0.02904544770717621,0.020192094147205353,0.05513957887887955
1772094089875615700,2.91561572265625,0.027165725827217102,0.02694017067551613,0.04439743235707283
1772094089885565000,2.92556494140625,0.01946280151605606,0.028980152681469917,0.03380337730050087
1772094089895514600,2.9355146484375,0.019302472472190857,0.025953132659196854,0.019483942538499832
1772094089905463800,2.9454638671875,0.017728544771671295,0.026460997760295868,0.006068800576031208
1772094089915412700,2.955412841796875,0.025233905762434006,0.03093576431274414,-0.008597039617598057
1772094089925362000,2.96536181640625,0.02527545392513275,0.022536419332027435,-0.0201900452375412
1772094089935312000,2.975311767578125,0.019486891105771065,-0.0028190375305712223,0.007090732455253601
1772094089945260800,2.9852607421875,0.022374022752046585,-0.015159593895077705,0.015098856762051582
1772094089955209700,2.995209716796875,0.016027700155973434,0.003925171680748463,-0.004453366622328758
1772094089965158700,3.00515869140625,-0.004046408459544182,0.008230703882873058,-0.005506114102900028
1772094089975108900,3.01510888671875,-0.005586015991866589,-0.012475504539906979,0.005526690743863583
1772094089985057800,3.025057861328125,-0.010309664532542229,-0.014474739320576191,0.009350989945232868
1772094089995006700,3.0350068359375,-0.016268322244286537,-0.0017736353911459446,0.0038211550563573837
1772094090004955600,3.04495556640625,-0.012497552670538425,0.0002945754677057266,-0.002634347416460514
1772094090014905600,3.054905517578125,-0.01024556253105402,-0.0032188780605793,0.000881541520357132
1772094090024854800,3.064854736328125,-0.006503554992377758,0.0004134075716137886,0.007798569742590189
1772094090034804000,3.074803955078125,-0.0012254982721060514,-0.000493842177093029,0.01555059477686882
1772094090044753000,3.0847529296875,0.009768296033143997,-0.00980185717344284,0.02517525851726532
1772094090054702800,3.094702880859375,0.010539731942117214,-0.02207234874367714,0.029554717242717743
1772094090064651800,3.10465185546875,0.010068885050714016,-0.025168806314468384,0.009635337628424168
1772094090074600700,3.1146005859375,0.0080428346991539,-0.013779820874333382,-0.00906447134912014
1772094090084549600,3.124549560546875,0.006325096357613802,-0.01214037835597992,-0.02206362783908844
1772094090094499800,3.134499755859375,0.010854908265173435,-0.015908895060420036,-0.02093958482146263
1772094090104448800,3.14444873046875,0.015488008968532085,-0.025533558800816536,-0.01069946400821209
1772094090114397700,3.154397705078125,0.029563289135694504,-0.031172726303339005,-0.0018216758035123348
1772094090124346600,3.1643466796875,0.03579907864332199,-0.03120628371834755,0.0006212415173649788
1772094090134296600,3.174296630859375,0.036147214472293854,-0.027569811791181564,-0.0036593982949852943
1772094090144245800,3.184245849609375,0.03403186798095703,-0.016501449048519135,-0.01220707967877388
1772094090154195000,3.19419482421875,0.023377664387226105,-0.00852436013519764,-0.01648738980293274
1772094090164143900,3.204143798828125,0.016528815031051636,-0.0038880635984241962,-0.012420210987329483
1772094090174093800,3.21409375,0.01710004173219204,-0.007421611808240414,-0.015902765095233917
1772094090184042800,3.224042724609375,0.021104104816913605,-0.007407497614622116,-0.013851864263415337
1772094090193991700,3.23399169921875,0.03140043094754219,-0.014509042724967003,-0.0017400518991053104
1772094090203940900,3.24394091796875,0.027620606124401093,-0.02639766037464142,0.007519492879509926
1772094090213890800,3.253890869140625,0.015839383006095886,-0.010784409008920193,0.004978657700121403
1772094090223839700,3.26383984375,0.004667155910283327,0.0007665203884243965,-0.0033445190638303757
1772094090233788700,3.27378857421875,-0.00363154080696404,0.003955321852117777,-0.004361786879599094
1772094090243737600,3.283737548828125,-0.015014690347015858,0.010352501645684242,-0.005118124186992645
1772094090253687800,3.293687744140625,-0.008359594270586967,0.0148277897387743,-0.0047985571436584
1772094090263636700,3.30363671875,-0.0036657722666859627,0.000827019102871418,0.006626936141401529
1772094090273586000,3.3135859375,-0.003222560742869973,0.023281903937458992,0.012609630823135376
1772094090283534800,3.323534912109375,-0.0008709894027560949,0.015729179605841637,0.030363328754901886
1772094090293484800,3.33348486328125,-0.00702354870736599,0.005312670022249222,0.03795512393116951
1772094090303433700,3.343433837890625,-0.012050265446305275,0.01270480640232563,0.02978401631116867
1772094090313383000,3.3533828125,-0.01743515580892563,0.011943197809159756,0.01975160464644432
1772094090323332900,3.363332763671875,-0.021494077518582344,0.007539660669863224,0.001997641520574689
1772094090333281800,3.37328173828125,-0.015909798443317413,0.0016785310581326485,-0.013298803940415382
1772094090343230700,3.383230712890625,-0.015543080866336823,-0.0018453635275363922,-0.016382211819291115
1772094090353179600,3.3931796875,-0.0075538912788033485,-0.0048467922024428844,-0.013402164913713932
1772094090363128600,3.403128662109375,-0.010425311513245106,0.002537354826927185,-0.011128359474241734
1772094090373078800,3.413078857421875,-0.006341129075735807,0.005217171274125576,-0.00896046869456768
1772094090383027700,3.42302783203125,-0.006592798046767712,0.0004929900169372559,-0.008515452966094017
1772094090392976600,3.4329765625,-0.0006213332526385784,-0.006343243643641472,-0.0020260969176888466
1772094090402925800,3.44292578125,-0.0012671498116105795,-0.007798395119607449,0.000977416057139635
1772094090412875800,3.452875732421875,0.0000646812841296196,-0.0007360349409282207,-0.00040359050035476685
1772094090422825000,3.462824951171875,-0.0011806127149611712,0.01700594276189804,-0.002238508779555559
1772094090432774000,3.47277392578125,-0.007293735630810261,0.03112279623746872,-0.005295644514262676
1772094090442723800,3.482723876953125,-0.007841814309358597,0.03696630522608757,-0.004821334965527058
1772094090452672800,3.4926728515625,-0.0023320624604821205,0.035296566784381866,0.003523064311593771
1772094090462621700,3.50262158203125,0.002572681289166212,0.030456002801656723,0.009665379300713539
1772094090472570600,3.512570556640625,0.002804683055728674,0.037693798542022705,0.006823707837611437
1772094090482520800,3.522520751953125,-0.00020735198631882668,0.03482770547270775,0.0001599462702870369
1772094090492469800,3.5324697265625,-0.00092134322039783,0.037014439702034,-0.0036252476274967194
1772094090502418700,3.542418701171875,0.011938529089093208,0.07642469555139542,-0.02100823074579239
1772094090512367600,3.55236767578125,-0.002323499880731106,0.04072420671582222,-0.007485723122954369
1772094090522317600,3.562317626953125,0.005063842516392469,0.024643244221806526,0.023820802569389343
1772094090532266800,3.572266845703125,0.0006450037471950054,0.02604023739695549,0.02998785302042961
1772094090542216000,3.5822158203125,-0.0023020501248538494,0.03700314089655876,0.01484911423176527
1772094090552164900,3.592164794921875,-0.0051508741453289986,0.04461514949798584,-0.00014577992260456085
1772094090562114800,3.60211474609375,-0.0009848913177847862,0.05699724704027176,-0.011953704059123993
1772094090572063700,3.612063720703125,0.010211692191660404,0.06150206923484802,-0.021217171102762222
1772094090582012700,3.6220126953125,0.027080954983830452,0.07222288846969604,-0.02794564515352249
1772094090591961900,3.6319619140625,0.019394680857658386,0.06508153676986694,-0.03355433791875839
1772094090601911800,3.641911865234375,0.032689183950424194,0.029127798974514008,-0.0023538069799542427
1772094090611860700,3.65186083984375,0.047681692987680435,-0.006321338005363941,0.013061430305242538
1772094090621809700,3.6618095703125,0.047742679715156555,-0.009056671522557735,-0.0010823518969118595
1772094090631758600,3.671758544921875,0.04683978483080864,0.0212895255535841,-0.033041950315237045
1772094090641708800,3.681708740234375,0.03444037213921547,0.025296252220869064,-0.041708409786224365
1772094090651657700,3.69165771484375,0.022303981706500053,0.01820661872625351,-0.0310721006244421
1772094090661607000,3.70160693359375,0.018582213670015335,0.013330371119081974,-0.01643430069088936
1772094090671555800,3.711555908203125,0.012955015525221825,0.00790623389184475,-0.011532891541719437
1772094090681505800,3.721505859375,0.009335247799754143,0.005329891573637724,-0.01023673266172409
1772094090691454700,3.731454833984375,0.011136507615447044,-0.0007301759906113148,-0.012706330046057701
1772094090701404000,3.74140380859375,0.013435348868370056,-0.0032375426962971687,-0.016454195603728294
1772094090711352800,3.751352783203125,0.00897381454706192,-0.011658547446131706,-0.01480606198310852
1772094090721302800,3.761302734375,0.0038112765178084373,-0.015085503458976746,-0.012175658717751503
1772094090731251700,3.771251708984375,-0.0017625342588871717,-0.020021384581923485,-0.011717437766492367
1772094090741200600,3.78120068359375,-0.009054269641637802,-0.021038977429270744,-0.014809633605182171
1772094090751149600,3.791149658203125,-0.010074198246002197,-0.01632446050643921,-0.016960807144641876
1772094090761098800,3.8010986328125,-0.013080108910799026,-0.014681022614240646,-0.020980050787329674
1772094090771048000,3.8110478515625,-0.013899153098464012,-0.01008051261305809,-0.03227454796433449
1772094090780996900,3.820996826171875,-0.011014416813850403,-0.004869238473474979,-0.03530602157115936
1772094090790945800,3.83094580078125,-0.007635418325662613,0.00005887309089303017,-0.02713644877076149
1772094090800896000,3.84089599609375,-0.0015277250204235315,-0.0019488837569952011,-0.009548135101795197
1772094090810845000,3.850844970703125,0.007120705209672451,-0.006745246239006519,0.013218228705227375
1772094090820793900,3.8607939453125,0.014813247136771679,-0.008492812514305115,0.01941433921456337
1772094090830742800,3.87074267578125,0.02116009220480919,-0.00990801677107811,0.016153831034898758
1772094090840693000,3.88069287109375,0.024490375071763992,-0.00620648916810751,0.007773129269480705
1772094090850642000,3.890641845703125,0.02300899662077427,-0.0054382942616939545,-0.003757770173251629
1772094090860590800,3.9005908203125,0.015200342983007431,-0.0006672409363090992,-0.015329738147556782
1772094090870540800,3.910540771484375,0.007439624518156052,0.0023562456481158733,-0.022652365267276764
1772094090880489700,3.92048974609375,0.010822638869285583,-0.0008525969460606575,-0.01907600834965706
1772094090890439000,3.93043896484375,0.012739250436425209,-0.010244159027934074,-0.006880722474306822
1772094090900388000,3.94038818359375,0.022384952753782272,-0.019939664751291275,0.0038851064164191484
1772094090910338000,3.950338134765625,0.03492984548211098,-0.033621713519096375,0.008789671584963799
1772094090920287000,3.960286865234375,0.035703759640455246,-0.04149242118000984,0.004717165604233742
1772094090930236000,3.97023583984375,0.03399445861577988,-0.040174663066864014,-0.009313007816672325
1772094090940184800,3.980184814453125,0.026034271344542503,-0.028626134619116783,-0.027918117120862007
1772094090950135000,3.990135009765625,0.012733768671751022,-0.0168780330568552,-0.040414173156023026
1772094090960084000,4.000083984375,0.002197238150984049,-0.014355486258864403,-0.0397273413836956
1772094090970033000,4.010032958984375,-0.005465972702950239,-0.02077862061560154,-0.03419186547398567
1772094090979981800,4.01998193359375,-0.0027809739112854004,-0.024792537093162537,-0.020421192049980164
1772094090989931800,4.029931884765625,-0.00027222931385040283,-0.028821000829339027,-0.004488020204007626
1772094090999880700,4.039880615234375,0.003860730677843094,-0.03473588079214096,0.014044384472072124
1772094091009830000,4.049829833984375,0.0017375154420733452,-0.03223665803670883,0.017374122515320778
1772094091019779000,4.059779052734375,-0.0019357828423380852,-0.02331666648387909,0.007607512176036835
1772094091029728800,4.069728759765625,-0.0059584262780845165,-0.008091730996966362,-0.005334747955203056
1772094091039678000,4.079677978515625,-0.007646603975445032,-0.007408097852021456,-0.010266922414302826
1772094091049627000,4.089626953125,0.0017928271554410458,-0.009377126581966877,-0.008972106501460075
1772094091059575800,4.099575927734375,0.00639157323166728,-0.003956528380513191,-0.009878912940621376
1772094091069526000,4.109526123046875,0.012631206773221493,-0.006619087886065245,-0.007016435731202364
1772094091079475000,4.119474853515625,0.021035343408584595,-0.017938587814569473,-0.00530828395858407
1772094091089424000,4.129423828125,0.024210844188928604,-0.021191254258155823,0.0056410497054457664
1772094091099372800,4.139372802734375,0.02635655365884304,-0.027407605201005936,0.007825374603271484
1772094091109322800,4.14932275390625,0.01847744733095169,-0.023396529257297516,-0.0013046651147305965
1772094091119272000,4.15927197265625,0.013178558088839054,-0.012422174215316772,-0.015022607520222664
1772094091129220900,4.169220947265625,0.007382760755717754,-0.009063009172677994,-0.02571048215031624
1772094091139170000,4.179170166015625,0.00853058323264122,-0.016113195568323135,-0.029406685382127762
1772094091149119700,4.18911962890625,0.012160205282270908,-0.021828871220350266,-0.03456522896885872
1772094091159069000,4.19906884765625,0.01671314612030983,-0.027017241343855858,-0.03053666278719902
1772094091169017900,4.209017822265625,0.015365462750196457,-0.031313005834817886,-0.027673043310642242
1772094091178967000,4.218967041015625,0.01364026591181755,-0.0326152928173542,-0.019274499267339706
1772094091188917000,4.2289169921875,0.009495999664068222,-0.03029073402285576,-0.012447470799088478
1772094091198866000,4.238865966796875,0.0029920279048383236,-0.013867017813026905,-0.007015952840447426
1772094091208814800,4.24881494140625,-0.0007357625290751457,-0.006964591331779957,-0.00046346383169293404
1772094091218764800,4.258764892578125,0.0015122117474675179,0.0012153077404946089,0.0016926315147429705
1772094091228714000,4.2687138671875,0.005839602090418339,0.0035986248403787613,0.00649642338976264
1772094091238663000,4.278662841796875,0.009162960574030876,0.008065545000135899,0.005203991662710905
1772094091248611800,4.28861181640625,0.011618578806519508,0.005973932798951864,0.007270450703799725
1772094091258561800,4.298561767578125,0.011395139619708061,-0.0027018473483622074,0.008349830284714699
1772094091268510700,4.3085107421875,0.013414430432021618,-0.00031169457361102104,0.005459655076265335
1772094091278460000,4.3184599609375,0.014794214628636837,-0.0014832187443971634,-0.0015718890354037285
1772094091288409000,4.3284091796875,0.01328477542847395,-0.0033257254399359226,-0.009184924885630608
1772094091298359000,4.338359130859375,0.009198954328894615,-0.009341539815068245,-0.01701408624649048
1772094091308308000,4.348307861328125,0.007597203832119703,0.002804478397592902,-0.019308343529701233
1772094091318257000,4.3582568359375,0.0029611727222800255,0.0015123127959668636,-0.011844834312796593
1772094091328205800,4.368205810546875,0.010704006999731064,-0.0035392926074564457,0.0020625381730496883
1772094091338156000,4.378156005859375,0.015834320336580276,-0.002908123191446066,0.009986241348087788
1772094091348105000,4.38810498046875,0.02180648222565651,-0.0020126872695982456,0.01729704812169075
1772094091358054000,4.398053955078125,0.02246774546802044,0.002612957265228033,0.014955064281821251
1772094091368002800,4.4080029296875,0.02227536402642727,0.010955264791846275,0.0035489636939018965
1772094091377952800,4.417952880859375,0.01703612692654133,0.019090954214334488,-0.007436842191964388
1772094091387901700,4.427901611328125,0.01308889128267765,0.021132580935955048,-0.013265388086438179
1772094091397851000,4.437850830078125,0.008488014340400696,0.016107993200421333,-0.013715995475649834
1772094091407800000,4.447800048828125,0.003941752482205629,0.005250873044133186,-0.008229367434978485
1772094091417749800,4.457749755859375,0.005285316612571478,-0.008256946690380573,0.0014195307157933712
1772094091427699000,4.467698974609375,0.01242072507739067,-0.018084542825818062,0.004774581175297499
1772094091437648000,4.47764794921875,0.008884578943252563,-0.024122195318341255,-0.0032066465355455875
1772094091447596800,4.4875966796875,0.0045521678403019905,-0.01661255955696106,-0.015116054564714432
1772094091457547000,4.497547119140625,-0.0032666067127138376,-0.007705884054303169,-0.022674106061458588
1772094091467496000,4.507495849609375,-0.005658063106238842,-0.003942382056266069,-0.027594435960054398
1772094091477444900,4.51744482421875,-0.002099014585837722,0.0030902274884283543,-0.027228515595197678
1772094091487393800,4.527393798828125,0.010365808382630348,0.0017578029073774815,-0.01234788540750742
1772094091497343700,4.53734375,0.01874065026640892,-0.016244634985923767,0.010524673387408257
1772094091507293000,4.54729296875,0.023867277428507805,-0.02368110977113247,0.02619379200041294
1772094091517241900,4.557241943359375,0.020127667114138603,-0.018558785319328308,0.020502615720033646
1772094091527191000,4.56719091796875,0.020590461790561676,-0.007503648288547993,0.007021523080766201
1772094091537140700,4.577140625,0.015884390100836754,-0.0017224582843482494,-0.012605174444615841
1772094091547090000,4.58708984375,0.009143807925283909,-0.0014653080143034458,-0.018880099058151245
1772094091557038800,4.597038818359375,0.01303122378885746,-0.023471806198358536,-0.009542258456349373
1772094091566989000,4.606989013671875,0.01864313706755638,-0.04212508723139763,0.00030833296477794647
1772094091576938000,4.61693798828125,0.012803358025848866,-0.054019827395677567,0.003944879397749901
1772094091586887000,4.626886962890625,0.010724885389208794,-0.03984983637928963,-0.004157800693064928
1772094091596835800,4.6368359375,0.0031420662999153137,-0.03203612193465233,-0.013870881870388985
1772094091606785800,4.646785888671875,-0.007997546344995499,-0.014474872499704361,-0.015848781913518906
1772094091616735000,4.65673486328125,-0.008665733970701694,-0.0062936414033174515,-0.004586006049066782
1772094091626684000,4.666683837890625,-0.009063467383384705,-0.010299134999513626,0.01485956646502018
1772094091636632800,4.6766328125,-0.0037422049790620804,-0.008312417194247246,0.0204498078674078
1772094091646582800,4.686582763671875,-0.007677393965423107,-0.012342623434960842,0.01906544715166092
1772094091656531700,4.69653173828125,-0.004456833470612764,-0.01019611582159996,0.004899029154330492
1772094091666481000,4.70648095703125,-0.0046682474203407764,-0.0026267576031386852,-0.015459051355719566
1772094091676430000,4.71643017578125,-0.006898378487676382,-0.0036707166582345963,-0.0204175915569067
1772094091686380000,4.726380126953125,-0.006915756966918707,-0.00585844274610281,-0.01262633502483368
1772094091696329000,4.736328857421875,-0.008435622788965702,-0.011708874255418777,-0.004709288943558931
1772094091706278000,4.74627783203125,-0.009962471202015877,-0.017773840576410294,-0.0015161484479904175
1772094091716226800,4.756226806640625,-0.011375011876225471,-0.022706814110279083,-0.002240261994302273
1772094091726177000,4.766177001953125,-0.013218449428677559,-0.02818255126476288,-0.004475939553231001
1772094091736126000,4.7761259765625,-0.01912720501422882,-0.027385998517274857,-0.015552826225757599
1772094091746075000,4.786074951171875,-0.023016158491373062,-0.023202262818813324,-0.029108945280313492
1772094091756023800,4.79602392578125,-0.025123782455921173,-0.01469852402806282,-0.0355260968208313
1772094091765974000,4.80597412109375,-0.026477079838514328,-0.01708701252937317,-0.022556208074092865
1772094091775923000,4.8159228515625,-0.02396065928041935,-0.025429099798202515,-0.007671266794204712
1772094091785872000,4.825871826171875,-0.02070438861846924,-0.035128798335790634,0.003837789874523878
1772094091795821000,4.835821044921875,-0.017811398953199387,-0.033195607364177704,0.008717233315110207
1772094091805771000,4.84577099609375,-0.015577353537082672,-0.02560610882937908,0.007401256822049618
1772094091815720200,4.85572021484375,-0.014693450182676315,-0.015022706240415573,-0.0017568212933838367
1772094091825669000,4.865669189453125,-0.011310296133160591,-0.010453103110194206,-0.006710289511829615
1772094091835618000,4.8756181640625,-0.008249791339039803,-0.0032271482050418854,-0.004658589605242014
1772094091845568000,4.885568115234375,-0.0032159448601305485,-0.004546374548226595,-0.0010976246558129787
1772094091855517000,4.895516845703125,-0.00018952880054712296,-0.0110066719353199,0.012305798009037971
1772094091865466000,4.905466064453125,0.001050029881298542,-0.016182158142328262,0.016669951379299164
1772094091875415000,4.9154150390625,0.008274386636912823,-0.01580478809773922,0.00842959899455309
1772094091885365000,4.925364990234375,0.009044226258993149,-0.008594268932938576,0.00824550911784172
1772094091895314000,4.93531396484375,0.005339768249541521,-0.004113501403480768,0.0086593646556139
1772094091905262800,4.945262939453125,-0.001968457829207182,0.010661518201231956,0.013413578271865845
1772094091915212000,4.9552119140625,-0.010776329785585403,0.022977571934461594,0.016774754971265793
1772094091925162000,4.965161865234375,-0.015171857550740242,0.016548767685890198,0.01805407553911209
1772094091935111200,4.975111083984375,-0.0096812192350626,0.014524765312671661,0.019209619611501694
1772094091945060000,4.98506005859375,-0.004952817223966122,0.008059021085500717,0.022972213104367256
1772094091955009000,4.995009033203125,-0.00533231720328331,-0.0057316250167787075,0.021632909774780273
1772094091964959000,5.004958984375,-0.013022013939917088,-0.005041604861617088,0.009801792912185192
1772094091974908200,5.014908203125,-0.013249981217086315,-0.006699955090880394,-0.0012644403614103794
1772094091984857000,5.024857177734375,-0.009410210885107517,-0.012444843538105488,-0.015811527147889137
1772094091994806000,5.034805908203125,-0.0017530899494886398,-0.0005160132423043251,-0.03615807741880417
1772094092004756000,5.044755859375,-0.021932296454906464,-0.005081453826278448,-0.02014675736427307
1772094092014705000,5.054704833984375,-0.01884995400905609,-0.01654982380568981,-0.001869747880846262
1772094092024653800,5.06465380859375,-0.02556896209716797,-0.024396635591983795,0.0028780202846974134
1772094092034604000,5.07460400390625,-0.027759945020079613,-0.01385584194213152,0.001552565023303032
1772094092044553000,5.084552978515625,-0.021396217867732048,-0.004778425209224224,0.00257717608474195
1772094092054502000,5.094501953125,-0.011036787182092667,-0.014633185230195522,0.006178302690386772
1772094092064451000,5.104451171875,0.0020275884307920933,-0.013686212711036205,0.01006355695426464
1772094092074401000,5.114401123046875,0.0074982536025345325,-0.006881303153932095,0.008487498387694359
1772094092084350200,5.12435009765625,0.00670406362041831,-0.002131952438503504,0.0002459399402141571
1772094092094299100,5.134299072265625,0.008679863065481186,0.0019283026922494173,-0.0023288042284548283
1772094092104248000,5.144248046875,0.006562484428286552,-0.001047203317284584,0.006199750117957592
1772094092114198000,5.154197998046875,0.006260748952627182,-0.006918674800544977,0.018572796136140823
1772094092124147000,5.16414697265625,0.010660005733370781,-0.008282545953989029,0.022042958065867424
1772094092134096000,5.174095947265625,0.009082082659006119,-0.010058075189590454,0.008330874145030975
1772094092144045000,5.184045166015625,0.006604254711419344,-0.0119194146245718,-0.004048015922307968
1772094092153995000,5.1939951171875,0.0037629283033311367,-0.009608855471014977,-0.02247922122478485
1772094092163944000,5.20394384765625,-0.003855964168906212,0.0003272746689617634,-0.02949472703039646
1772094092173892900,5.213892822265625,-0.014447355642914772,0.008912241086363792,-0.023268522694706917
1772094092183842000,5.223842041015625,-0.019689397886395454,0.007935772649943829,-0.011600429192185402
1772094092193792000,5.2337919921875,-0.020825767889618874,0.01771489903330803,0.003401424502953887
1772094092203741200,5.2437412109375,-0.020169410854578018,0.015880223363637924,0.009083136916160583
1772094092213690000,5.253690185546875,-0.023348426446318626,0.010070804506540298,0.013792671263217926
1772094092223639000,5.26363916015625,-0.018813423812389374,0.00504643190652132,0.021972838789224625
1772094092233589000,5.273589111328125,-0.012416776269674301,-0.0040993960574269295,0.02020503208041191
1772094092243538000,5.283537841796875,-0.01731055974960327,-0.0055291252210736275,0.007630572188645601
1772094092253487000,5.293487060546875,-0.018584882840514183,0.001949297497048974,-0.01302916556596756
1772094092263436000,5.30343603515625,-0.02189752645790577,0.003099427092820406,-0.02080143243074417
1772094092273386000,5.313385986328125,-0.018365109339356422,-0.004452764987945557,-0.01615341752767563
1772094092283335000,5.3233349609375,-0.014684297144412994,-0.006659793667495251,-0.01939253695309162
1772094092293283800,5.333283935546875,-0.004333921708166599,-0.007615601643919945,-0.01734829507768154
1772094092303233000,5.34323291015625,0.005121470429003239,-0.01027446798980236,-0.006621255539357662
1772094092313183000,5.353182861328125,0.010336472652852535,-0.010253694839775562,0.001006303820759058
1772094092323132200,5.363132080078125,0.018023360520601273,-0.00896624568849802,0.006495751440525055
1772094092333081000,5.3730810546875,0.021767765283584595,-0.009886899963021278,0.007564477622509003
1772094092343030000,5.383030029296875,0.023253275081515312,-0.009010986424982548,0.010219383053481579
1772094092352980000,5.39297998046875,0.0259380079805851,-0.003110487014055252,0.005699199624359608
1772094092362929200,5.40292919921875,0.026013702154159546,0.003773973323404789,-0.0023522088304162025
1772094092372878000,5.412878173828125,0.02627202868461609,0.005101026501506567,-0.002988171763718128
1772094092382827000,5.422826904296875,0.026376301422715187,-0.009384272620081902,0.002682466059923172
1772094092392777000,5.43277685546875,0.032924484461545944,-0.01804167777299881,0.003256910014897585
1772094092402726000,5.442725830078125,0.03576736897230148,-0.029129337519407272,-0.003252842929214239
1772094092412674800,5.4526748046875,0.028740083798766136,-0.031135231256484985,-0.019563639536499977
1772094092422624000,5.4626240234375,0.013457760214805603,-0.024433786049485207,-0.03443194553256035
1772094092432574000,5.472573974609375,0.006623555440455675,-0.01332547515630722,-0.04328988492488861
1772094092442523000,5.48252294921875,-0.0007753826212137938,0.0023670473601669073,-0.04083579406142235
1772094092452472000,5.49247216796875,-0.002660101745277643,0.012978944927453995,-0.03593691065907478
1772094092462421000,5.5024208984375,-0.0012431403156369925,0.03506717085838318,-0.0316394604742527
1772094092472371200,5.51237109375,0.004080252256244421,0.011834817007184029,-0.006247552111744881
1772094092482320100,5.522320068359375,0.015463365241885185,-0.02212301641702652,0.03234231099486351
1772094092492269000,5.53226904296875,0.016488682478666306,-0.02368256077170372,0.04294648393988609
1772094092502219000,5.542218994140625,0.014257115311920643,-0.002732332330197096,0.02583140879869461
1772094092512168000,5.55216796875,0.007657801732420921,0.010291590355336666,0.006221222225576639
1772094092522116900,5.562116943359375,0.005950122606009245,0.010857349261641502,-0.00393362483009696
1772094092532066000,5.572066162109375,0.008194101974368095,0.005197333171963692,-0.011663982644677162
1772094092542016000,5.58201611328125,0.013664850033819675,-0.0048241764307022095,-0.010534914210438728
1772094092551965000,5.59196484375,0.01697036623954773,-0.01289115846157074,-0.007529004942625761
1772094092561913900,5.601913818359375,0.018947124481201172,-0.025080468505620956,-0.004964785650372505
1772094092571863000,5.611863037109375,0.018363893032073975,-0.036259621381759644,-0.00682926457375288
1772094092581813000,5.62181298828125,0.014745622873306274,-0.038380883634090424,-0.013500483706593513
1772094092591762200,5.63176220703125,0.010152202099561691,-0.03956332802772522,-0.023332076147198677
1772094092601711000,5.641711181640625,0.005691161844879389,-0.03219189494848251,-0.03325534239411354
1772094092611660000,5.651659912109375,-0.0015790013130754232,-0.02891300991177559,-0.03434936702251434
1772094092621610000,5.66160986328125,-0.005006325431168079,-0.022094562649726868,-0.02934214286506176
1772094092631559000,5.671558837890625,-0.0033983089961111546,-0.021235961467027664,-0.019576063379645348
1772094092641508000,5.681508056640625,0.012606693431735039,-0.0122024305164814,-0.024134768173098564
1772094092651457000,5.69145703125,-0.0066178664565086365,-0.022869987413287163,-0.012293821200728416
1772094092661407000,5.701406982421875,0.00411596242338419,-0.02076141908764839,0.0011568195186555386
1772094092671356000,5.71135595703125,0.0011236346326768398,-0.034149397164583206,0.008184901438653469
1772094092681304800,5.721304931640625,-0.0051111518405377865,-0.03180946409702301,0.012157147750258446
1772094092691254000,5.73125390625,0.0010676481761038303,-0.03048347681760788,0.00473704794421792
1772094092701204000,5.741203857421875,0.0001653684303164482,-0.026643477380275726,-0.008250080049037933
1772094092711153200,5.751153076171875,-0.005349772050976753,-0.012854429893195629,-0.020239897072315216
1772094092721102000,5.76110205078125,-0.007117541041225195,-0.0007001496851444244,-0.0174245722591877
1772094092731051000,5.771051025390625,-0.008993204683065414,0.006536458153277636,-0.0012237648479640484
1772094092741001200,5.781001220703125,-0.005385929718613625,0.009928582236170769,0.014067558571696281
1772094092750950100,5.7909501953125,-0.0006007621996104717,0.011512097902595997,0.0272882878780365
1772094092760899300,5.8008994140625,0.0017078518867492676,0.004029958043247461,0.030599599704146385
1772094092770848300,5.81084814453125,0.005289537366479635,-0.00007850071415305138,0.021795455366373062
1772094092780798200,5.820798095703125,0.008777560666203499,0.0017119201365858316,0.0075055742636322975
1772094092790747400,5.830747314453125,0.004994274582713842,-0.001983481924980879,-0.002521493472158909
1772094092800696300,5.8406962890625,0.004893647041171789,-0.0033452888019382954,-0.007489744108170271
1772094092810645200,5.850645263671875,0.0029620560817420483,-0.0028640558011829853,-0.010653046891093254
1772094092820595200,5.86059521484375,0.0063700550235807896,0.0015510853845626116,-0.013067439198493958
1772094092830544100,5.870544189453125,0.010016987100243568,0.003126877825707197,-0.007005551364272833
1772094092840493300,5.880493408203125,0.013002065941691399,-0.005976526997983456,-0.0008383272215723991
1772094092850442500,5.8904423828125,0.015042314305901527,-0.009959550574421883,-0.0004782676696777344
1772094092860392400,5.900392333984375,0.013605538755655289,-0.005102210678160191,-0.005200851708650589
1772094092870341400,5.91034130859375,0.004741208162158728,-0.007071884348988533,-0.008528204634785652
1772094092880290300,5.920290283203125,0.003750721924006939,-0.0011388268321752548,-0.014630917459726334
1772094092890239200,5.9302392578125,-0.004553546663373709,0.006302577443420887,-0.012859916314482689
1772094092900189400,5.940189453125,-0.0021920078434050083,0.0072896648198366165,-0.00844552181661129
1772094092910138400,5.950138427734375,-0.0025763020385056734,0.009312335401773453,-0.0008581764996051788
1772094092920087300,5.96008740234375,0.0038694962859153748,0.008953498676419258,0.010240297764539719
1772094092930036200,5.9700361328125,0.009637370705604553,0.006167832762002945,0.01632215827703476
1772094092939986200,5.979986083984375,0.01546090841293335,0.0022583012469112873,0.013087796047329903
1772094092949935000,5.98993505859375,0.018999449908733368,0.004227709025144577,0.007518326863646507
1772094092959884300,5.99988427734375,0.019678909331560135,0.010147711262106895,0.0020795695018023252
1772094092969833500,6.00983349609375,0.017105763778090477,0.014771757647395134,0.0021490780636668205
1772094092979783400,6.019783447265625,0.019845904782414436,0.026309354230761528,0.0010775192640721798
1772094092989732400,6.029732421875,0.02035163901746273,0.033745165914297104,0.004056265112012625
1772094092999681300,6.039681396484375,0.022003905847668648,0.02776595950126648,0.012510125525295734
1772094093009630200,6.049630126953125,0.027537155896425247,0.01634259521961212,0.015500588342547417
1772094093019580400,6.059580322265625,0.03213709592819214,0.004845645744353533,0.015163036063313484
1772094093029529300,6.069529296875,0.028782041743397713,-0.007076793350279331,0.007849196903407574
1772094093039478300,6.079478271484375,0.02074332907795906,-0.011500532738864422,0.0008795205503702164
1772094093049427200,6.08942724609375,0.0047254799865186214,-0.0042394232004880905,-0.008109980262815952
1772094093059377200,6.099377197265625,-0.006390189751982689,0.0000035800039768218994,-0.015994533896446228
1772094093069326300,6.109326416015625,-0.012950887903571129,0.009115053340792656,-0.02129076048731804
1772094093079275300,6.119275146484375,-0.009358424693346024,0.01636294648051262,-0.014534023590385914
1772094093089224400,6.129224365234375,-0.006976759992539883,0.02456068806350231,-0.00178547203540802
1772094093099174100,6.139174072265625,0.005038481205701828,0.027940072119235992,0.013353563845157623
1772094093109123300,6.149123291015625,0.0081221554428339,0.022246234118938446,0.031957343220710754
1772094093119072300,6.159072265625,0.011149629950523376,0.017502887174487114,0.04214974492788315
1772094093129021400,6.169021484375,0.009740551933646202,0.02282867766916752,0.035760555416345596
1772094093138971400,6.178971435546875,0.0012119035236537457,0.02561870589852333,0.031948272138834
1772094093148920300,6.18892041015625,-0.0005828007124364376,0.023045824840664864,0.02532126009464264
1772094093158869200,6.198869140625,-0.004582885652780533,0.02767513319849968,0.021665602922439575
1772094093168818200,6.208818115234375,0.0014979098923504353,0.019959690049290657,0.010403893887996674
1772094093178768400,6.218768310546875,0.011457990854978561,0.014830274507403374,-0.00030650896951556206
1772094093188717300,6.22871728515625,0.016110798344016075,0.006092443130910397,-0.010199087671935558
1772094093198666200,6.238666259765625,0.018488898873329163,-0.007744852919131517,-0.013386139646172523
1772094093208615400,6.248615478515625,0.011787588708102703,-0.019157830625772476,-0.010681699961423874
1772094093218565000,6.258565185546875,0.008082946762442589,-0.02413424849510193,-0.0041397567838430405
1772094093228514300,6.268514404296875,0.005445085000246763,-0.01974988728761673,-0.005806629545986652
1772094093238463500,6.27846337890625,0.0027780914679169655,-0.009175559505820274,-0.008524523116648197
1772094093248412400,6.288412353515625,-0.00034100282937288284,-0.0058261011727154255,-0.0060965195298194885
1772094093258362400,6.2983623046875,0.0057206000201404095,-0.012802597135305405,0.006999416276812553
1772094093268311300,6.308311279296875,0.012702343985438347,-0.019055699929594994,0.011888979934155941
1772094093278260200,6.31826025390625,0.013524845242500305,-0.008482561446726322,0.008173810318112373
1772094093288209200,6.328209228515625,0.004473826382309198,-0.008744882419705391,-0.0032466240227222443
1772094093298159400,6.338159423828125,-0.0020042480900883675,-0.00697103887796402,-0.006958631332963705
1772094093308108300,6.3481083984375,-0.0029925471171736717,-0.0048263948410749435,-0.00826224870979786
1772094093318057200,6.35805712890625,-0.004297514911741018,-0.007592686451971531,0.0013765925541520119
1772094093328006100,6.368006103515625,-0.004605908878147602,-0.009036652743816376,0.013530461117625237
1772094093337956000,6.3779560546875,-0.008959099650382996,-0.013556228950619698,0.015243561938405037
1772094093347905300,6.3879052734375,-0.0024482039734721184,-0.004588832147419453,0.007957952097058296
1772094093357854500,6.3978544921875,-0.0017065135762095451,-0.004485235549509525,-0.0038334601558744907
1772094093367803400,6.407803466796875,0.000881279818713665,-0.006246117874979973,-0.004807377699762583
1772094093377753300,6.41775341796875,0.005073161795735359,-0.014760329388082027,-0.003841542173177004
1772094093387702300,6.427702392578125,0.005005517974495888,-0.02161530777812004,-0.0038378131575882435
1772094093397651200,6.437651123046875,0.00032903021201491356,-0.017183218151330948,-0.005617354065179825
1772094093407600400,6.447600341796875,-0.010047444142401218,-0.010763667523860931,-0.006141996942460537
1772094093417550300,6.45755029296875,-0.01351873017847538,-0.008641240186989307,-0.0036042560823261738
1772094093427499300,6.467499267578125,-0.00816364586353302,-0.006689143367111683,-0.0026828027330338955
1772094093437448200,6.4774482421875,-0.004678039811551571,-0.008883398957550526,0.00562345702201128
1772094093447397000,6.487397216796875,0.0002378891222178936,-0.016358625143766403,0.012676039710640907
1772094093457347300,6.497347412109375,0.000520387664437294,-0.02074449695646763,0.01509055681526661
1772094093467296300,6.507296142578125,-0.005618997383862734,-0.03168236464262009,0.006631291937083006
1772094093477245400,6.517245361328125,-0.008781850337982178,-0.03440755978226662,-0.013810976408421993
1772094093487194400,6.5271943359375,-0.015000597573816776,-0.030276993289589882,-0.025833018124103546
1772094093497144300,6.537144287109375,-0.013340750709176064,-0.026578174903988838,-0.02934204787015915
1772094093507093200,6.54709326171875,-0.010244293138384819,-0.027205882593989372,-0.015033414587378502
1772094093517042400,6.55704248046875,-0.003184620989486575,-0.02230890467762947,-0.0018984843045473099
1772094093526991400,6.566991455078125,-0.0037390911020338535,-0.013762286864221096,0.006117896642535925
1772094093536941300,6.57694140625,-0.00016330881044268608,0.0013508426491171122,0.012190083973109722
1772094093546890200,6.58689013671875,0.002470557577908039,0.003334631212055683,0.017181914299726486
1772094093556839200,6.596839111328125,-0.0027427496388554573,0.006578068248927593,0.02138880454003811
1772094093566788000,6.6067880859375,-0.0029811025597155094,-0.0005666604265570641,0.02277258411049843
1772094093576738300,6.61673828125,-0.005591783672571182,-0.006174680311232805,0.014174770563840866
1772094093586687200,6.626687255859375,-0.007559326943010092,-0.0010760580189526081,-0.002044413238763809
1772094093596636400,6.636636474609375,-0.011630446650087833,-0.005458718165755272,-0.014028086327016354
1772094093606585300,6.64658544921875,-0.015469127334654331,-0.014993367716670036,-0.011468256823718548
1772094093616535300,6.656535400390625,-0.014816923066973686,-0.03165648877620697,-0.013047823682427406
1772094093626484500,6.666484375,-0.015221190638840199,-0.04080098494887352,-0.015810586512088776
1772094093636433400,6.676433349609375,-0.01622438058257103,-0.04462522640824318,-0.02796420454978943
1772094093646382300,6.68638232421875,-0.02675744891166687,-0.03946055844426155,-0.03850020095705986
1772094093656332300,6.696332275390625,-0.03313493728637695,-0.026428980752825737,-0.04069937765598297
1772094093666281200,6.70628125,-0.037242334336042404,-0.013372834771871567,-0.03280523419380188
1772094093676230100,6.716230224609375,-0.042785607278347015,-0.005830707028508186,-0.01770325005054474
1772094093686179300,6.726179443359375,-0.037373531609773636,-0.004488207399845123,0.009470048360526562
1772094093696129300,6.73612939453125,-0.024406109005212784,-0.004583671223372221,0.030277404934167862
1772094093706078200,6.746078125,-0.01150096207857132,-0.007165872026234865,0.03572676330804825
1772094093716027100,6.756027099609375,-0.0028669696766883135,-0.01534305140376091,0.02985474467277527
1772094093725976300,6.765976318359375,0.0017056777141988277,-0.005045673344284296,0.012556448578834534
1772094093735926300,6.77592626953125,-0.006126922555267811,-0.00590848084539175,-0.00363052636384964
1772094093745875500,6.78587548828125,-0.007227074354887009,-0.007997997105121613,-0.018144754692912102
1772094093755824400,6.795824462890625,-0.010266954079270363,-0.0032598571851849556,-0.02321888878941536
1772094093765773800,6.80577392578125,-0.009075988084077835,0.0032760724425315857,-0.029018990695476532
1772094093775723800,6.815723876953125,-0.0024507148191332817,-0.008177028968930244,-0.02561113052070141
1772094093785672700,6.825672607421875,0.004575503058731556,-0.017221391201019287,-0.01702403463423252
1772094093795622000,6.835621826171875,0.015043996274471283,-0.02016720175743103,-0.01206823531538248
1772094093805570800,6.84557080078125,0.016085557639598846,-0.011458931490778923,-0.004916582256555557
1772094093815520800,6.855520751953125,0.0044515556655824184,0.00642825523391366,-0.0024385745637118816
1772094093825469700,6.8654697265625,-0.0019570752047002316,0.01288402359932661,0.00338469329290092
1772094093835418600,6.875418701171875,-0.006288803182542324,0.006834680214524269,0.010804097168147564
1772094093845367600,6.885367431640625,-0.0009667421691119671,0.005268475506454706,0.01845402829349041
1772094093855317800,6.89531787109375,-0.0008551839273422956,0.0020821415819227695,0.015006961300969124
1772094093865266700,6.9052666015625,-0.00012787478044629097,-0.00882803089916706,0.01408710703253746
1772094093875216000,6.9152158203125,-0.0045566861517727375,-0.015062966383993626,0.010093682445585728
1772094093885164800,6.925164794921875,-0.011044945567846298,-0.01279608253389597,-0.005379282869398594
1772094093895114800,6.93511474609375,-0.0111206891015172,-0.0077515593729913235,-0.014932669699192047
1772094093905064000,6.94506396484375,-0.01373671181499958,-0.006476437207311392,-0.021186305209994316
1772094093915012900,6.955012939453125,-0.014277981594204903,0.0029326684307307005,-0.020052846521139145
1772094093924961800,6.9649619140625,-0.013887563720345497,0.003809381276369095,-0.01180317159742117
1772094093934910700,6.97491064453125,-0.01476079598069191,0.013713475316762924,-0.0044925925321877
1772094093944860700,6.984860595703125,-0.017615972086787224,0.02283133938908577,0.003711008932441473
1772094093954809600,6.9948095703125,-0.023067250847816467,0.029635068029165268,0.011579876765608788
1772094093964758800,7.0047587890625,-0.02218467928469181,0.03054613433778286,0.020703332498669624
1772094093974708700,7.014708740234375,-0.013890881091356277,0.029966916888952255,0.025539522990584373
1772094093984657700,7.02465771484375,-0.011198691092431545,0.02561264857649803,0.025426337495446205
1772094093994606800,7.03460693359375,-0.009306393563747406,0.02171993814408779,0.030413523316383362
1772094094004555800,7.0445556640625,-0.008693866431713104,0.020903412252664566,0.02871975302696228
1772094094014504700,7.054504638671875,-0.004596118815243244,0.019950877875089645,0.02444179356098175
1772094094024455000,7.064454833984375,-0.0018986028153449297,0.021157290786504745,0.028242122381925583
1772094094034403800,7.07440380859375,0.015000268816947937,0.02125096321105957,0.024508444592356682
1772094094044352800,7.084352783203125,0.029861506074666977,0.024647824466228485,0.01794481836259365
1772094094054301700,7.0943017578125,0.005747100338339806,-0.0006322958506643772,0.017224498093128204
1772094094064251600,7.104251708984375,0.018789133056998253,-0.005742102861404419,0.01506653893738985
1772094094074200800,7.114200927734375,0.01886886917054653,-0.026636164635419846,0.01581152155995369
1772094094084149800,7.124149658203125,0.015576137229800224,-0.042872391641139984,0.016022443771362305
1772094094094098700,7.1340986328125,0.02926243469119072,-0.0680055171251297,0.025464488193392754
1772094094104048600,7.144048583984375,0.036810100078582764,-0.06857037544250488,0.024973135441541672
1772094094113997800,7.153997802734375,0.03910205140709877,-0.07126277685165405,0.02932317927479744
1772094094123946800,7.16394677734375,0.04848942905664444,-0.0969122126698494,0.044571906328201294
1772094094133896000,7.17389599609375,0.04756493866443634,-0.10227425396442413,0.05309339240193367
1772094094143846000,7.183845947265625,0.044465284794569016,-0.06629308313131332,0.030135346576571465
1772094094153794800,7.193794921875,0.0450611412525177,-0.04663173481822014,0.003265212755650282
1772094094163743700,7.20374365234375,0.03210672736167908,-0.03359502926468849,-0.011769129894673824
1772094094173692700,7.213692626953125,0.02270999550819397,0.029214244335889816,-0.03510112315416336
1772094094183643000,7.223642822265625,0.00896035972982645,0.08964083343744278,-0.06868784129619598
1772094094193591800,7.233591796875,-0.013524078764021397,0.08254275470972061,-0.07285857200622559
1772094094203540700,7.243540771484375,-0.020001418888568878,0.0721585601568222,-0.0246934425085783
1772094094213489700,7.25348974609375,-0.022867534309625626,0.06800974905490875,0.00948308315128088
1772094094223439600,7.263439697265625,-0.0087850047275424,0.07314325869083405,0.03189331665635109
1772094094233388500,7.273388427734375,-0.0007673415821045637,0.08231241255998611,0.04212627559900284
1772094094243338000,7.283337890625,0.005768055561929941,0.0827382504940033,0.03902768716216087
