time,seconds_elapsed,z,y,x
1772046031414334000,0.069333984375,0.7536480377703905,-0.19647388147562742,-0.26229079052601006
1772046031424319200,0.0793193359375,0.856435043027997,-0.40740824998021125,-0.6760540720887481
1772046031434305300,0.08930517578125,0.8909604129642248,-0.4596370343893766,-0.6962148165859282
1772046031444290000,0.0992900390625,0.7910024936527014,-0.3228817085564136,-0.37976745192594824
1772046031454276000,0.109276123046875,0.6219762988120318,-0.07300035428106784,-0.08582454534508287
1772046031464261000,0.11926123046875,0.46197979812324047,0.3387152375042438,-0.078377809535712
1772046031474247200,0.1292470703125,0.33197920724749563,0.9864490779072046,-0.447064260803163
1772046031484232200,0.139232177734375,0.0954109235316515,0.8292863393396138,-0.21083193104341624
1772046031494218000,0.149218017578125,-0.065922378718853,0.4729840072184801,0.01893441757261753
1772046031504203000,0.159203125,-0.07167816576659679,0.2115095380440354,0.14322715219557283
1772046031514189300,0.169189208984375,0.027925533279776572,0.06573825432360172,0.2264969715565443
1772046031524174300,0.17917431640625,0.07410977682769299,0.17590630974322558,0.30974443295523524
1772046031534160100,0.18916015625,0.1271644906669855,0.7534995692104101,0.5559617848303169
1772046031544145200,0.199145263671875,0.12691314625442027,1.3033975970223546,0.8483657183408737
1772046031554131000,0.209130859375,0.2723404388427734,1.622334951867163,0.9722281717877834
1772046031564116000,0.219115966796875,0.22432430369257925,1.5093286042816936,0.9380313762187957
1772046031574102000,0.22910205078125,-0.01843991205394268,0.8069288154505193,0.6337929933339357
1772046031584088000,0.239088134765625,0.0714905342400074,0.9033345952384173,0.736836749831587
1772046031594073000,0.249072998046875,0.1351771167308092,0.7312636258743703,0.7432785463821142
1772046031604059000,0.259058837890625,-0.09585340660214424,0.36164018601775166,0.5116659123122692
1772046031614044000,0.2690439453125,-0.23716975674033164,0.05977876139730215,0.31838987702988086
1772046031624030200,0.2790302734375,-0.2823632356852293,-0.20411972005367277,0.3031385318841785
1772046031634015000,0.289014892578125,-0.2517050625711679,-0.3657990592628717,0.32922369799427686
1772046031644001000,0.2990009765625,-0.08767126919031143,-0.3629753801442683,0.3840263514794409
1772046031653986000,0.308986083984375,0.20154957730472087,-0.2322292315982282,0.3897603650867939
1772046031663972000,0.31897216796875,0.5223281761020422,0.049480654744803905,0.3143153210673481
1772046031673957000,0.32895703125,0.7756167084723711,0.3801270059533417,0.19198329205811024
1772046031683943000,0.33894287109375,0.9299322409152984,0.6220164846919477,0.1583778865110129
1772046031693928000,0.348927978515625,0.7932739457160234,0.4156294042281806,-0.24551132249757646
1772046031703914000,0.3589140625,0.8810860846817493,0.5867503793910145,0.21981274455226957
1772046031713899000,0.36889892578125,1.0635486842006445,0.49723406685590743,0.04960369660258293
1772046031723885000,0.378885009765625,1.098751515007019,0.38617958399057384,-0.2151819429464638
1772046031733870000,0.3888701171875,1.1923510052025317,0.25733736936971546,-0.41848731440994885
1772046031743855900,0.39885595703125,0.921792189079523,0.23560864490345118,-0.030389767968840894
1772046031753841000,0.4088408203125,0.6100789402693509,0.23484423640221355,0.08349931726790964
1772046031763827200,0.4188271484375,0.10049217231869698,0.2076540316596627,-0.27800807268302885
1772046031773813000,0.42881298828125,-0.5610621036440133,0.08818477167040109,-0.7941087891049683
1772046031783798000,0.438798095703125,-1.1506687492489813,-0.1245639527797699,-1.6957669755637645
1772046031793784000,0.4487841796875,-1.5241542713612317,-0.38735622655451296,-3.1575086298927664
1772046031803769000,0.45876904296875,-0.8934270953387021,-0.42261005689576264,-3.1970211405918
1772046031813755100,0.468755126953125,0.15165888045430181,-0.2283257944189012,-1.6003239033281802
1772046031823740000,0.478739990234375,0.8401596155315637,0.2767188000574708,0.07453143630586564
1772046031833726000,0.488725830078125,0.6630284401684999,1.0053532464720307,1.656606639303267
1772046031843711200,0.498711181640625,-0.7336258249610662,0.5110201617546379,1.6004451916202902
1772046031853697000,0.508697021484375,-1.4665414558261631,-0.16813713704645633,1.388808520065248
1772046031863682000,0.51868212890625,-2.0537176594138145,-0.14670038126409052,1.2867986366599797
1772046031873667800,0.528667724609375,-2.585504568734765,-0.0640888796813786,1.3443467163957654
1772046031883652900,0.53865283203125,-2.7657950849115847,0.7307547995693982,0.8931194176290184
1772046031893639200,0.54863916015625,-2.6091993325769898,1.254510378126055,0.39213995369970794
1772046031903624000,0.5586240234375,-2.2916233292132615,1.0899202660366891,0.28951683376692233
1772046031913610000,0.56860986328125,-1.6488175928622484,0.9181436034440994,0.0416225616555661
1772046031923595000,0.578594970703125,-0.831647223252058,1.0024918656915425,-0.199510399627313
1772046031933581000,0.5885810546875,-0.41579613909721375,1.2793915752738714,-0.3356468994421884
1772046031943566000,0.598566162109375,-0.30328327411711214,1.2291678470768033,-0.5650623157287016
1772046031953552100,0.60855224609375,0.15786299579143523,0.7000989645428956,-1.146854963114485
1772046031963537000,0.618536865234375,0.35145839922130107,-0.0829123842254281,-1.5075357295155525
1772046031973523200,0.628523193359375,0.16606149981617926,-0.6668830697700381,-1.3199813598155974
1772046031983509000,0.638509033203125,0.011649521261453627,-0.7696896565109491,-1.3614908895507454
1772046031993494000,0.648493896484375,-0.29342823505699633,-0.7106928392715751,-0.5878893202930688
1772046032003480000,0.65847998046875,-0.3388555227577686,-0.9921762233823537,0.4848294163782149
1772046032013464800,0.66846484375,-0.27920097226202484,-1.420600227253884,1.0295509914003311
1772046032023451100,0.678451171875,-0.3645347384154796,-1.4324034777723251,0.3893296455193311
1772046032033436200,0.688436279296875,-0.8517477619946002,-0.5248566716663539,-0.7226369595654308
1772046032043422000,0.698421875,-1.359192257219553,-0.42495588936954737,-0.9248548645857722
1772046032053407000,0.708406982421875,-1.899792003071308,-1.0528139396965503,-0.5196436131931841
1772046032063393000,0.71839306640625,-2.0606185248434543,-1.4333146012678741,0.2910706390801817
1772046032073378000,0.7283779296875,-1.7349650134861467,-0.7478842135466635,0.5727358094986528
1772046032083364000,0.738364013671875,-1.5798960323274134,-0.10857362583503126,0.31432555020041764
1772046032093348900,0.748348876953125,-1.6854893271774052,-0.25755393472984434,0.23281024635657666
1772046032103335200,0.758335205078125,-1.8180816881120203,-0.7034541201896966,0.30645041464483364
1772046032113320200,0.7683203125,-1.4574083012998102,-0.7865148268446326,0.2346992749735713
1772046032123306000,0.778305908203125,-0.919024477931857,-0.3016809534870088,0.12822148890662938
1772046032133291000,0.788291015625,-0.09168225839734077,0.44213294188082214,0.17370814211182295
1772046032143277000,0.798277099609375,0.4635965856701135,0.4297669429130852,-0.052933051087846975
1772046032153263000,0.80826318359375,0.6663678137242793,0.19759192572012543,-0.2398479447073303
1772046032163248000,0.818248046875,0.5370376694560051,0.007296440618485212,-0.2266020210999064
1772046032173234000,0.82823388671875,0.22049802340269087,-0.2674642111085355,-0.2407292027875781
1772046032183219000,0.838218994140625,0.16257774935364722,-0.21319003847688436,0.09594755115900189
1772046032193205000,0.848205078125,0.1469727684646845,0.08467150285243988,0.48534788729436695
1772046032203190000,0.85818994140625,0.21923019542396066,0.21744053552821277,0.5726007849421352
1772046032213176000,0.868176025390625,0.767054631832242,0.0276192438095808,0.006456026005279273
1772046032223161000,0.8781611328125,0.8034066326737404,-0.31808599871248006,-0.6084216745816171
1772046032233147100,0.888147216796875,0.24436580572426317,-0.11151347867920994,0.12784319364614785
1772046032243132200,0.898132080078125,-0.16448445975780487,0.017588848182559014,0.5363530847253277
1772046032253118000,0.908117919921875,0.05748772785067558,0.0739485949166119,-0.12190253328448161
1772046032263103000,0.91810302734375,0.017388357174396515,-0.11596358995586634,-0.15035558843654578
1772046032273089000,0.928089111328125,-0.07542144394814967,-0.028776889412105083,0.01831107520961668
1772046032283074000,0.938073974609375,-0.05376256984770297,0.09118862966150044,0.03201687598032877
1772046032293060000,0.94806005859375,-0.18449556665122507,0.05087956175729632,0.07710013601640239
1772046032303045000,0.958045166015625,-0.3982289182245731,0.06004632629230618,0.06079109394473489
1772046032313031000,0.968031005859375,-0.6405681865572929,0.02050838889107108,0.2708190562280826
1772046032323016000,0.978015869140625,-0.5155816244512796,0.006098316875100135,0.43549675526935605
1772046032333002000,0.988001953125,-0.34010873768925665,0.08315992924571036,0.33659554193653163
1772046032342987000,0.997987060546875,-0.06477788485884665,0.43605829814225433,-0.04393051893752999
1772046032352973000,1.00797314453125,0.3837117325723171,0.5728036871030926,-0.6988540059830993
1772046032362959000,1.017958984375,0.7008458373874425,0.49782911013960834,-1.130359536191821
1772046032372944100,1.027944091796875,0.2045154413729906,0.19583850618153809,-0.9352874843381345
1772046032382930000,1.037929931640625,-0.8304875318229198,-0.3829368026770651,-0.5138272550646216
1772046032392915000,1.0479150390625,-1.1778215445905924,-0.42374812101498244,-0.012437858627550303
1772046032402901000,1.05790087890625,-1.1258376748532055,-0.6204061268858612,0.5213462158599869
1772046032412886000,1.067885986328125,-1.06715635330379,-0.8514310972608625,1.1178530327748506
1772046032422872000,1.0778720703125,-0.36507016046643254,0.03204275934025645,0.4094670822061598
1772046032432857000,1.087857177734375,0.4798708441227674,-0.4575112744070589,-0.14884692830611018
1772046032442843000,1.0978427734375,1.0778998656362295,-1.073636509103328,0.14118088719025254
1772046032452828000,1.107827880859375,0.9170850343018769,-1.1552747817397118,0.7518429611098021
1772046032462814200,1.117814208984375,0.4450450299352407,-0.8709557358115911,1.154707210984826
1772046032472799000,1.127799072265625,-0.13826748396158217,-0.130563485455513,0.5944233982369304
1772046032482785000,1.137784912109375,0.02701543269753456,0.002932254059612751,0.04267221683897078
1772046032492770000,1.14777001953125,0.07487725406885147,-0.1354039112240076,0.16517931015416978
1772046032502756000,1.157756103515625,0.4031044153064489,0.18366715300306677,0.2550316497106105
1772046032512741000,1.1677412109375,0.7546388023734092,0.24314152462631464,0.34961127351727334
1772046032522727000,1.177726806640625,0.8713684082657098,0.24920564697086808,0.3955871350115165
1772046032532712000,1.1877119140625,1.1414046618193388,0.28417817615270613,-0.10409151198491454
1772046032542698200,1.1976982421875,0.6257756910949945,-0.05538096482977271,-0.3517563957871869
1772046032552684500,1.2076845703125,0.07465221314132213,0.0941438262052834,-0.19598058153335005
1772046032562669800,1.217669921875,-0.11104805312454699,0.40047947363033887,0.06636519058290868
1772046032572655600,1.227655517578125,-0.5745084451943636,0.22557386536225676,0.10109514318052679
1772046032582640600,1.237640625,-1.447546832498908,0.4041648110795766,-0.0019368863467127083
1772046032592626700,1.247626708984375,-1.3337000885665415,0.20816059294231234,0.14721034008022396
1772046032602611500,1.257611572265625,-1.0873761345118285,0.15275281317085027,-0.045308666289784014
1772046032612597800,1.26759765625,-1.2322446241736411,0.07209127661213278,-0.06428487717751413
1772046032622582800,1.277582763671875,-1.0106044449985028,-0.10908983172886073,0.0368214084515348
1772046032632568600,1.287568603515625,-0.6631359921962022,-0.10716945812553166,-0.07411290036654099
1772046032642553600,1.2975537109375,-0.2450181321531534,-0.19896175276860595,-0.08891434632027521
1772046032652539600,1.30753955078125,0.0022819734573364257,-0.4556120166569948,-0.05736284109568223
1772046032662524700,1.317524658203125,0.10732231059968471,-0.6189703949943185,-0.020295184531807897
1772046032672510700,1.3275107421875,0.019435352832078933,-0.6638064388036727,-0.4039158047545701
1772046032682495500,1.33749560546875,-0.2748778483659029,-0.7202883506126702,-0.9799630768887698
1772046032692481800,1.347481689453125,-0.23770517879128455,-0.6819853618338704,-0.9647111472211778
1772046032702467600,1.357467529296875,-0.22952654851078985,-0.5861018523544073,-0.3805195489348843
1772046032712452600,1.36745263671875,-0.3417617655932903,-0.3641062838703394,-0.33849458049088715
1772046032722438700,1.377438720703125,-0.15650865857303142,-0.011730623673647642,-0.33876652930006385
1772046032732423400,1.38742333984375,0.21574410687386988,0.24509821165204046,-0.2633004424925893
1772046032742409700,1.39740966796875,0.5882119763761758,0.5577043176487088,-0.16999785288441926
1772046032752394800,1.407394775390625,0.6825111392736435,0.7923433868676424,-0.015627777242660523
1772046032762380500,1.417380615234375,0.3456085041493177,0.8435043959148227,0.049658513796050095
1772046032772365600,1.427365478515625,0.1617769543647766,1.0064625228881836,-0.08421616943352855
1772046032782351600,1.4373515625,0.14636486569941043,0.752938428196311,-0.6500697360046207
1772046032792336600,1.447336669921875,0.15944938820004462,0.012140665779262781,-0.585112658653967
1772046032802322700,1.45732275390625,0.15121172120869159,-0.23964418402984736,-0.46468752271197733
1772046032812307700,1.4673076171875,-0.22925299226641654,-0.39314693878516555,-0.6555025747083127
1772046032822293800,1.477293701171875,-0.5266016156375408,0.04131561459824443,-0.4898734018947929
1772046032832278800,1.48727880859375,-0.3544026359796524,-0.005796557449549436,-0.2515247375681996
1772046032842264600,1.4972646484375,-0.2656535084247589,0.01751658666394651,-0.210430510635674
1772046032852250600,1.507250732421875,0.028414193579554554,-0.009739961313083767,-0.369204228063859
1772046032862235600,1.517235595703125,0.22329963681995868,-0.04124130725301802,-0.1928026456169784
1772046032872221700,1.5272216796875,0.3040437370955944,-0.17109079922027884,-0.015251491276174783
1772046032882206700,1.537206787109375,0.28709727846980093,-0.3062405895527452,0.06652114832960068
1772046032892192500,1.547192626953125,0.1882581340551376,-0.39896914213262497,0.12949505250640211
1772046032902177500,1.557177490234375,0.14481763625741004,-0.47206265458986163,0.12293182153329252
1772046032912163800,1.567163818359375,0.20882512126564978,-0.5348243042554706,0.14813333667665718
1772046032922148600,1.577148681640625,0.483467407310009,-0.5777371249172836,0.3435091937825083
1772046032932134700,1.587134765625,0.27767420108616353,-0.468980397600308,0.4505152780398726
1772046032942119700,1.59711962890625,-0.10541676923930644,-0.33641178286746143,0.42446058013327415
1772046032952105700,1.607105712890625,-0.06383622009456158,-0.10182612433619796,0.38231121812462804
1772046032962091800,1.617091796875,0.14275953468382357,0.1492749079272151,0.3678145638037473
1772046032972076500,1.62707666015625,0.26815818472206593,0.20115129870213566,0.41392216191887854
1772046032982062600,1.6370625,0.30696751558780666,0.28922683784440156,0.3953785702947527
1772046032992047600,1.647047607421875,0.14427519994378088,-0.031731282238289714,0.1971306648839265
1772046033002033700,1.65703369140625,0.03327157048285007,0.03949161404147744,0.18034955288767815
1772046033012018700,1.667018798828125,-0.046834231889247895,-0.07067344570346176,0.11987323768027126
1772046033022004500,1.67700439453125,0.007145780101418495,0.047041298768669366,0.065523826121632
1772046033031989500,1.686989501953125,0.5327624763548374,0.19449067176915705,-0.00359599693166092
1772046033041975800,1.696975830078125,1.0843588325172662,0.26638445304781194,0.05264672669344581
1772046033051960800,1.7069609375,1.5007453387230634,0.344178982802853,0.16468911548443138
1772046033061946600,1.716946533203125,1.5315262614339589,0.3953706061840057,0.1684602680535987
1772046033071932700,1.7269326171875,1.2104846277862786,0.15292276291027665,0.2369473461613059
1772046033081917700,1.736917724609375,0.8614151695281267,0.007134820315986871,0.14019348358809947
1772046033091903700,1.74690380859375,0.6221972480863333,0.07006576213389634,-0.07390826290622353
1772046033101888800,1.756888671875,0.10862462536990641,0.13987992412690073,-0.031316015968285496
1772046033111874600,1.76687451171875,0.014060089534521102,0.1931125152837485,-0.09823646581377833
1772046033121859600,1.776859619140625,-0.13419628899991512,0.37080168985575435,-0.23162132883295417
1772046033131845600,1.786845703125,-0.19927929428517818,0.2796267233934253,-0.4315028998602181
1772046033141830700,1.79683056640625,-0.2393669745236635,0.01462539526708424,-0.5591184952955692
1772046033151816700,1.806816650390625,-0.3989443730175495,-0.06101606637360528,-0.46086303252037614
1772046033161802800,1.816802734375,-0.8903560173302888,-0.05033476908979937,-0.5570914099147543
1772046033171787800,1.826787841796875,-1.3219967912912367,-0.011870141742192208,-0.6280681859463453
1772046033181773600,1.836773681640625,-1.149955048021674,-0.12955389742101542,-0.7182782528992742
1772046033191758600,1.846758544921875,-0.9327116425007581,-0.11343407147824763,-0.5306304327622056
1772046033201744600,1.85674462890625,-0.8318710951358079,-0.016550097985658794,-0.34330738760009405
1772046033211729700,1.866729736328125,-0.8436743456542491,-0.018083828625269232,-0.28233207336198535
1772046033221715700,1.8767158203125,-0.7671914099544286,-0.12627377063864842,-0.30355891272071744
1772046033231700700,1.88670068359375,-0.591619154471159,-0.21411844190079718,-0.32505269591994584
1772046033241686500,1.8966865234375,-0.4910913263171911,-0.21337571550840512,-0.21366470678392796
1772046033251672800,1.9066728515625,-0.38247722234129905,-0.19199916548067703,-0.032554362124204636
1772046033261657600,1.91665771484375,-0.3776835583239794,-0.25187508537583053,0.1257563043694943
1772046033271643600,1.9266435546875,-0.30714754832983016,-0.2506017044391483,0.29871055937409396
1772046033281628700,1.936628662109375,-0.3110591688156128,-0.11897913838475942,0.37111901217661797
1772046033291614700,1.94661474609375,-0.3978939871817827,-0.023010142578929662,0.4654052425272763
1772046033301599700,1.956599853515625,-0.5040297183454037,-0.0291651946099475,0.5825324694350361
1772046033311585800,1.966585693359375,-0.4744026418447494,-0.07737075138501823,0.6094126583803445
1772046033321570600,1.976570556640625,-0.23564064747691152,-0.06643997285217046,0.423572252991423
1772046033331556600,1.986556640625,0.01751929007768631,0.024364333666861054,0.22651165766902268
1772046033341542700,1.996542724609375,0.09249649738967418,0.18991013904586435,0.38940519497357307
1772046033351527700,2.006527587890625,0.18661328945755956,0.2748362377138808,0.3715014721555635
1772046033361513700,2.016513671875,0.32220950838327406,0.24400595943592487,0.20155081941373645
1772046033371498500,2.02649853515625,0.4357482092797756,0.24865539267696438,0.32244149050824344
1772046033381484800,2.03648486328125,0.6062023910969495,0.2738127764176577,0.34171485771164295
1772046033391469800,2.0464697265625,0.8129238180816173,0.24829269684441385,0.1197533010950312
1772046033401455600,2.05645556640625,0.8473287765085696,0.24913159535396842,0.10063658575806766
1772046033411440600,2.066440673828125,0.8477320966124534,0.24252529242411255,0.19089005346130578
1772046033421426700,2.0764267578125,0.783947898966074,0.20817706915307788,0.2251926109597087
1772046033431412700,2.086412841796875,0.6462994236856698,0.12627904960196465,0.033943624525517226
1772046033441397800,2.096397705078125,0.29350539194643493,0.06777925863191485,-0.07497854075254871
1772046033451383600,2.106383544921875,-0.012175590962171554,0.09789495889972895,0.034627679533232
1772046033461368600,2.11636865234375,-0.2692641001373529,0.12231284938473254,-0.07120283987242729
1772046033471354600,2.126354736328125,-0.6396206765741109,0.13439488031193614,-0.017350618979893623
1772046033481339600,2.136339599609375,-0.7664648492455483,0.05514609662797302,-0.05440063942237757
1772046033491325700,2.14632568359375,-0.835892021214962,0.06473590888064354,0.13281747492738066
1772046033501311500,2.1563115234375,-0.7091606612682342,-0.012312515214830635,0.22007466515777632
1772046033511296800,2.166296875,-0.6198059690356255,0.08063139714878052,0.3613154110427946
1772046033521282600,2.176282470703125,-0.6349941858172417,0.33245877092536535,0.5521919839680195
1772046033531267600,2.186267578125,-0.39934418599009514,0.15935177304446696,0.29628422727631404
1772046033541253600,2.196253662109375,-0.11511106477975845,-0.23774682597592472,-0.18364152537146583
1772046033551238700,2.20623876953125,0.25385610312521456,-0.6472793746337294,-0.8220810841359197
1772046033561225000,2.216224853515625,0.4908241998136043,-0.9853304491408169,-1.4167176867321132
1772046033571210800,2.226210693359375,-0.25581775858700273,-0.4354058986481279,-1.1193277084372937
1772046033581195800,2.23619580078125,-0.5777823522984982,-0.04330046827252954,-0.4691752625852823
1772046033591181800,2.246181884765625,-0.7411264098495245,-0.061287777720764276,-0.18939126627091318
1772046033601166800,2.256166748046875,-0.7233399932682514,0.15192973328493534,0.059130197828076776
1772046033611153000,2.26615283203125,-0.49678749213218687,0.3507079461801797,-0.0775751148506999
1772046033621138000,2.276137939453125,-0.17302315552234648,0.25936883866470306,-0.42542836571950465
1772046033631123700,2.286123779296875,0.1246767655044794,0.23034002031814305,-0.3004737696543336
1772046033641110000,2.296110107421875,0.45844110260307785,0.1817785262448713,-0.10068429735731332
1772046033651095000,2.306094970703125,0.7150251693874597,0.153981660846062,0.05071226063268259
1772046033661080800,2.316080810546875,1.0083283167600632,0.17719569196663795,0.09319666328197344
1772046033671065900,2.32606591796875,1.1742016005277633,0.18111571495458484,0.24604495445024221
1772046033681051600,2.3360517578125,1.1871037521988153,0.10566190310679376,0.307492343179509
1772046033691038000,2.346037841796875,1.1765525475680827,0.026976671589724718,0.12362759437826461
1772046033701023000,2.35602294921875,1.1750345442205667,0.053717378999106585,0.08463799330848269
1772046033711008800,2.3660087890625,1.0472516293942928,0.002729534561745822,0.2170785886143334
1772046033720993800,2.375993896484375,0.7452472891718148,-0.13052936399020254,0.3402395609946921
1772046033730979800,2.385979736328125,0.5125976402044295,-0.17977116847783325,0.35684144396651535
1772046033740964900,2.39596484375,0.4376601803809404,-0.16035477607455104,0.30843229091074315
1772046033750951000,2.405950927734375,0.38626492418646813,-0.2140854894792661,0.31518936395552005
1772046033760936700,2.415936767578125,0.6316746860057115,-0.3471946408296004,0.4980656223092228
1772046033770921700,2.425921630859375,0.7277063717842102,-0.8101036460943519,0.8177080566834658
1772046033780907800,2.43590771484375,0.8182821302443742,-0.9222225433208048,0.7512194223839789
1772046033790892800,2.445892822265625,0.9826742355436086,-0.9421396152552217,0.7070411118309945
1772046033800878800,2.45587890625,1.0134785391300916,-0.9388143432900309,0.4892361269045621
1772046033810865000,2.465864990234375,1.3909294577419757,-1.1107899625208228,0.5928611904215068
1772046033820850000,2.475849853515625,1.287680095669627,-1.1034869460310786,1.016137602271512
1772046033830835700,2.485835693359375,-0.29232874938249587,-0.41806448588799683,1.0272093967102467
1772046033840820700,2.49582080078125,-1.6966987034559249,0.8242377507131546,0.29608327961042524
1772046033850806800,2.505806884765625,-2.6304420270919797,1.7866211125738918,-0.18139668732043354
1772046033860792800,2.515792724609375,-2.8827438865125177,1.910382516799122,-0.8743813263460993
1772046033870777900,2.52577783203125,-2.4415830045342446,1.351767367915809,-1.6976557119198143
1772046033880763600,2.535763671875,-2.0425071140915154,1.1707277138721197,-1.3153763502381741
1772046033890748700,2.545748779296875,-1.188487900033593,0.8002066675886511,-0.7132621052376925
1772046033900735000,2.55573486328125,-0.3655769409447908,0.20345716449171303,-0.5044764391995966
1772046033910719700,2.5657197265625,-0.23623218362927437,-0.3309636004641652,-0.2519500503081828
1772046033920705800,2.575705810546875,-0.8621592658936977,-0.6916519656497985,-0.07261438717078417
1772046033930691800,2.58569189453125,-1.6090613365352153,-0.7530339975252747,-0.08081994199082256
1772046033940676900,2.5956767578125,-1.6227888331145046,-0.4930857150048017,-0.2949476631766185
1772046033950663000,2.605662841796875,-0.8526315590918063,-0.24015388711765406,-0.4855418754965067
1772046033960648000,2.61564794921875,0.09965922862589359,-0.038090862131770695,-0.4872966467419639
1772046033970633700,2.6256337890625,0.9778168586403131,-0.028325675045885144,0.22645773552469908
1772046033980620000,2.6356201171875,1.5486030684411525,-0.013468516849540172,0.5795554263856262
1772046033990604800,2.645604736328125,1.5683230834335087,0.04163739389851689,0.5866247071847319
1772046034000590800,2.6555908203125,1.4283026183247565,0.16716361583918332,0.49357013752087947
1772046034010576000,2.665575927734375,1.2435177133381365,0.3414166784826666,0.3032596192468889
1772046034020562000,2.67556201171875,0.9336597370058297,0.48924306810200213,0.11977765008499845
1772046034030548000,2.6855478515625,0.6198538998305797,0.5548596322746947,0.0032571203661151227
1772046034040532700,2.69553271484375,0.4958440738022327,0.49439164650421585,-0.0467008056347724
1772046034050518800,2.705518798828125,0.40712066521048546,0.4442683464743197,-0.0995972327729687
1772046034060503800,2.71550390625,0.3487327736496925,0.282442840260081,-0.11138590677678585
1772046034070489900,2.72548974609375,0.3277332402408123,0.16755341887436806,-0.09583680252721533
1772046034080476000,2.735475830078125,0.33429566749632356,0.0699000501781702,-0.07475843629504088
1772046034090460700,2.745460693359375,0.30214754808545113,0.005697042597830295,-0.15010800688364542
1772046034100447000,2.755447021484375,0.20956337241232395,-0.09065309801269322,-0.27338216644804925
1772046034110432000,2.765431884765625,0.14040741859972475,-0.10204802345857024,-0.024598188088508322
1772046034120417800,2.775417724609375,-0.0235281751036644,-0.0762897512152791,0.17111198813877998
1772046034130403800,2.78540380859375,-0.16585282550156116,-0.06337364408411085,0.2464076685491018
1772046034140388600,2.795388671875,-0.25256781688034535,0.018342004637420178,0.16620605938602237
1772046034150375000,2.805375,-0.34807343295812604,0.026002821588888763,0.11944060015035793
1772046034160360000,2.81535986328125,-0.4306500093579292,0.03265837048795074,0.14983962913788854
1772046034170345700,2.825345703125,-0.3832113818347454,0.0004816460371017456,0.18654778647329656
1772046034180331800,2.835331787109375,-0.2179080069094896,-0.034971981192566455,0.2017826554082334
1772046034190316800,2.84531689453125,-0.05502338356375694,-0.03175966808255762,0.19954810128919778
1772046034200302800,2.855302734375,0.08815525331497191,-0.19455511530749497,0.4620301400709897
1772046034210287900,2.865287841796875,0.23876316341161727,-0.4523749344319105,0.4793977101856842
1772046034220273700,2.875273681640625,0.38230595742762086,-0.4678892048301175,0.4181979395419359
1772046034230260000,2.885260009765625,0.5660901609390974,-0.372397178886272,0.39719701789356765
1772046034240245000,2.895244873046875,0.6042202773690223,-0.23571152075603602,0.32616887700092045
1772046034250230800,2.905230712890625,0.4023912986010313,-0.040102731677144766,0.3960570906108245
1772046034260215800,2.9152158203125,0.04085983365476131,0.2538024732418358,0.33556060939822346
1772046034270201900,2.925201904296875,-0.17568740629553795,0.3708316831352189,0.017867263265140352
1772046034280188000,2.93518798828125,-0.24071663556694983,0.3826087032338604,-0.28297804311532526
1772046034290173000,2.9451728515625,-0.2428232524573803,0.415530072039552,-0.45486572833433747
1772046034300158700,2.95515869140625,-0.26297172199487684,0.4518755700750276,-0.4673156061932444
1772046034310143700,2.965143798828125,-0.32879648555815216,0.5119818829262629,-0.4898254345672205
1772046034320129800,2.9751298828125,-0.4136959519475698,0.5844775390882044,-0.5465173358650878
1772046034330115800,2.98511572265625,-0.33504151742756366,0.43792445734031493,-0.4730519944207743
1772046034340100900,2.995100830078125,-0.1638736343830824,0.12641765435505659,-0.22262177409101278
1772046034350087000,3.0050869140625,-0.05069909062385559,-0.05691051248461008,-0.023909210310503838
1772046034360072000,3.015072021484375,-0.07268997315764426,-0.0632538536293432,0.02699376885499805
1772046034370057700,3.0250576171875,-0.09594050036370753,-0.04801379706263542,0.03250946353655308
1772046034380043800,3.035043701171875,-0.11615677444040774,-0.06620711394436657,0.11359061374682933
1772046034390028800,3.04502880859375,-0.100708445417881,-0.08745134282931685,0.21503113629892467
1772046034400014800,3.055014892578125,0.009837503403425216,-0.05889795997478067,0.19190474692918358
1772046034410000000,3.064999755859375,0.09899930341243743,0.004519778979383409,0.1682800161158666
1772046034419985700,3.074985595703125,0.142644968393445,0.04395363495163619,0.13344894123133272
1772046034429972000,3.084971923828125,0.10634031382501125,0.06199198046736419,0.09527228224594146
1772046034439957000,3.09495703125,0.029316110855340957,0.04928425538986921,0.052538836739026006
1772046034449942800,3.10494287109375,-0.016949965757131577,-0.0181321978116408,0.09709014532286674
1772046034459927800,3.114927734375,0.05573123957216739,-0.057106546513363714,0.09498798541184514
1772046034469913600,3.12491357421875,0.0922778862029314,-0.06745316848270595,0.07468874575942755
1772046034479900000,3.13489990234375,0.0760217479288578,-0.0789846893876791,0.02689092953503132
1772046034489885000,3.144885009765625,-0.043373277780413624,-0.05323664627745747,0.01565535936933011
1772046034499870700,3.15487060546875,-0.178320677408576,-0.03753755736425519,0.029244470391236243
1772046034509855700,3.164855712890625,-0.19858722036778925,-0.08813786378875374,0.09252694732686505
1772046034519841800,3.174841796875,-0.16594167282879352,-0.10484284180887044,0.056256213294342154
1772046034529827800,3.184827880859375,-0.12420505633950232,-0.054895811661332845,-0.03609524960145354
1772046034539812900,3.194812744140625,-0.04936053549647331,-0.013376637315005064,-0.14402975554903968
1772046034549798700,3.204798583984375,0.06211714121699333,0.0047381344377994536,-0.2088464745809324
1772046034559784000,3.214783935546875,0.08787059115469455,-0.0003580927226692438,-0.179827227780316
1772046034569770000,3.22477001953125,0.07715747396051884,-0.031890564453229304,-0.13040347258821128
1772046034579756000,3.234756103515625,0.06502572214007377,-0.015165712688863277,-0.08602660725582391
1772046034589741000,3.244740966796875,0.07618599857985973,0.017329758854955434,-0.06365814184760675
1772046034599726800,3.254726806640625,0.1208645137399435,0.054971799506992096,-0.054794835504889484
1772046034609713200,3.264713134765625,0.1670353132843971,0.07443696295544505,-0.01949015175923705
1772046034619698000,3.274697998046875,0.14434358900487423,0.04937032623812556,-0.01447356570623815
1772046034629684000,3.28468408203125,0.05974164425730705,0.021528744914755225,-0.01821235037576407
1772046034639669000,3.2946689453125,0.009358779975771904,0.002894333202019334,-0.04848327773790806
1772046034649655000,3.304655029296875,0.029526538735628126,-0.005311038954928517,-0.09120333404028788
1772046034659641000,3.31464111328125,0.016561843222379684,0.019476342429593205,-0.08226820457037538
1772046034669626000,3.324626220703125,0.02721533918380737,0.026789953378587958,-0.07468151230104267
1772046034679612000,3.33461181640625,0.09103694623112678,0.012194880184531211,-0.07656292386716232
1772046034689597200,3.34459716796875,0.11500117466449737,0.03038162119500339,-0.08251339323678984
1772046034699583000,3.3545830078125,0.11481938835680484,0.061778556912392375,-0.07358527802955359
1772046034709569000,3.364569091796875,0.09104863666892052,0.06422565780356526,-0.02488456728183664
1772046034719554000,3.374553955078125,0.04201134177744388,0.03373838427700102,0.026066032151365652
1772046034729540000,3.3845400390625,0.048206104764342304,0.026684739438444374,0.04129690989777446
1772046034739525000,3.394525146484375,0.06792436619102954,0.04196384937390685,0.028209848380181937
1772046034749511000,3.404510986328125,0.08815057713985443,0.02934767503738403,-0.006054450333910062
1772046034759497000,3.4144970703125,0.05875614035129547,0.004819821371883154,-0.022358017079439012
1772046034769482200,3.424482177734375,0.034354689544439314,0.011457651951164006,-0.005804393696133047
1772046034779468000,3.434468017578125,0.011942366728186606,0.014114377005025743,0.018839935089042407
1772046034789453000,3.444453125,0.015139701464772224,0.0026840514522045848,0.0045682942962273956
1772046034799438800,3.45443896484375,0.04363865071833133,0.03901800518035888,-0.03557524431534111
1772046034809425200,3.464425048828125,0.04714812014400959,0.05605572228617966,-0.06516599826044403
1772046034819410200,3.47441015625,0.011987374913692474,0.07454502643980085,-0.03956809964405838
1772046034829396000,3.48439599609375,-0.03075169661641121,0.07529460269808769,0.003593585778865963
1772046034839382000,3.494382080078125,0.0019277531921863555,0.01847191462740302,-0.04207059768401086
1772046034849367000,3.504366943359375,0.02735387087166309,-0.01816752485334873,-0.0161707432792522
1772046034859353000,3.51435302734375,0.02244973221719265,-0.042808921895921226,0.012711204809369518
1772046034869338000,3.524338134765625,-0.009717676416039467,-0.07088423890992998,-0.0065704461651854215
1772046034879324000,3.534323974609375,-0.026706220617890356,-0.07356047238186002,-0.03531030976884067
1772046034889310200,3.544310302734375,-0.07032090593874454,-0.05918138002604246,-0.06578130801403895
1772046034899295000,3.554294921875,-0.08203647817373275,-0.027923341322690247,-0.06310003304081037
1772046034909281000,3.564281005859375,-0.05882745202183723,-0.007916545278206467,0.0017846176809216557
1772046034919266000,3.57426611328125,-0.0036269583255052564,-0.04136164569705725,0.0526176101968158
1772046034929252000,3.584252197265625,0.04125789306163788,-0.05161313672885298,0.056551159386616194
1772046034939238100,3.594238037109375,0.06191840377449989,-0.041473508573696014,0.05763605028018355
1772046034949223200,3.60422314453125,0.047750177690386766,-0.04638751103505492,0.08236180113796145
1772046034959209000,3.614208984375,0.024142507609724997,-0.047223377337306735,0.08927374508404172
1772046034969194000,3.624194091796875,-0.004138414978981018,-0.04964366328679025,0.09740083697354421
1772046034979180000,3.634179931640625,0.007494155147671699,-0.036515666970610615,0.09001868169982917
1772046034989166000,3.644166015625,0.034816461837291715,-0.005859466617926955,0.07719173242314718
1772046034999151000,3.654151123046875,0.06182721835970878,0.01191964343972504,0.07362977019182872
1772046035009137000,3.664136962890625,0.08541326113045215,0.04031725121065974,0.09555635988432913
1772046035019122200,3.6741220703125,0.12311492301523684,0.03827354348860681,0.07275472265665885
1772046035029108000,3.68410791015625,0.11853168687820434,0.01655263700261712,0.027883950027218087
1772046035039094000,3.694093994140625,0.09861001183390616,0.00011295885518193244,-0.0016377435699338092
1772046035049079000,3.7040791015625,0.0737953040510416,-0.0015833967339247464,-0.024412250762083566
1772046035059065000,3.714065185546875,0.05961012683212757,0.011674217311292886,-0.04753379955992568
1772046035069050000,3.724050048828125,0.040164252606034276,0.01637961852326989,-0.07107782981984782
1772046035079036000,3.734035888671875,0.030685061120986935,0.005999898001924157,-0.07097647463749163
1772046035089022000,3.74402197265625,-0.010566402199864386,0.012512713962048292,-0.026385194802866316
1772046035099007200,3.75400732421875,-0.0370434902369976,0.013101838961616158,-0.008641110392822884
1772046035108993000,3.763992919921875,-0.02225274834036827,0.00807210116609931,0.005149660681025125
1772046035118979000,3.77397900390625,-0.011361351969838143,0.012370455947145819,0.030896306418604216
1772046035128963800,3.7839638671875,0.02169628350138664,-0.00238799111507833,0.03780241884551942
1772046035138950100,3.7939501953125,0.05358779780268669,-0.016848332013562322,0.0385030048629269
1772046035148935200,3.80393505859375,0.050503275790810584,-0.020345453414320945,0.03712277058486361
1772046035158921000,3.8139208984375,0.07006020917594433,-0.028381898745149372,0.042879233486042355
1772046035168907000,3.823906982421875,0.0427992772847414,-0.023044190979003905,0.049816056145052426
1772046035178892000,3.83389208984375,0.02358721181452274,-0.03677402564585209,0.03733408438113984
1772046035188878000,3.843878173828125,0.02393500233888626,-0.03870572436079383,0.0271922323028557
1772046035198863000,3.853863037109375,0.029494390031695364,-0.02719225056916475,0.0036212409707717594
1772046035208849000,3.863848876953125,0.003589548924565315,-0.03278999751098454,0.013341702998941763
1772046035218835200,3.873835205078125,0.019402035084366796,-0.05521313398219645,0.02260777232311666
1772046035228820000,3.883820068359375,0.06530453908145427,-0.05703231223337352,-0.015485044303722679
1772046035238806000,3.893805908203125,0.07754851910471916,-0.03528809793703258,-0.043679137992346656
1772046035248791000,3.903791015625,0.07979308316111564,-0.02793064784631133,-0.06477081579724327
1772046035258777000,3.913777099609375,0.06736614778637885,-0.015342092169076203,-0.0633487745043356
1772046035268763100,3.92376318359375,0.045048517516255375,-0.03436754902601242,-0.05200198991596698
1772046035278748200,3.933748046875,0.06521452271044254,-0.02586684718430042,-0.057409274053294206
1772046035288734000,3.94373388671875,0.09364449838101864,0.013843378043919802,-0.06643178041256033
1772046035298719000,3.953718994140625,0.12394377505481242,0.033226270036399365,-0.06541276696259156
1772046035308705000,3.963705078125,0.12230360663235187,0.031711481559276576,-0.0016041746604721992
1772046035318691000,3.973691162109375,0.09183189600110053,0.01796593786664307,0.041448666393384334
1772046035328676000,3.983676025390625,0.03428337787389755,0.018654285456985234,0.039179954276420174
1772046035338662100,3.993662109375,0.004515431597828865,0.02547521751821041,0.045114961215434596
1772046035348647200,4.003647216796875,0.016582301488518712,0.02326207151338458,0.04172555623915977
1772046035358633000,4.013633056640625,0.04060965828597545,0.018048939974978567,0.03444031286812387
1772046035368619000,4.023618896484375,0.0890840585976839,0.02154796107187867,0.04637197553920559
1772046035378604000,4.03360400390625,0.13373334766328335,0.016517273428291082,0.04520920623699203
1772046035388590000,4.043590087890625,0.15256079773008824,0.013081892152130603,0.044385655993619
1772046035398575000,4.0535751953125,0.11845628355443477,0.019429324950091538,0.04339863141737878
1772046035408561000,4.063560791015625,0.0762654935568571,0.009204941120930015,0.016297803725022823
1772046035418547000,4.073546875,0.03540039920508861,-0.009924633697606622,-0.0169719127274584
1772046035428532200,4.0835322265625,0.0013905775755643844,-0.025736170009337363,-0.03354854709359351
1772046035438518000,4.09351806640625,-0.007062193471193313,-0.030737704623676834,-0.037873771615256555
1772046035448504000,4.103504150390625,0.0158902275711298,-0.026835290357656777,-0.020334283566335216
1772046035458488800,4.11348876953125,0.03180325149595737,-0.029995800215192138,-0.012698614755854942
1772046035468475100,4.12347509765625,0.03501403023600578,-0.010789689561724661,-0.020432469544070773
1772046035478460200,4.133460205078125,0.02655658301413059,-0.001177227085828781,-0.030473678826051762
1772046035488446000,4.143446044921875,0.03738660458624363,0.0024096184249967336,-0.015245257898210548
1772046035498432000,4.153431884765625,0.02501169165968895,0.01768131223898381,-0.043173247996554705
1772046035508417000,4.1634169921875,0.004238368222117424,0.012381561863049863,-0.023279739600815808
1772046035518403000,4.173403076171875,-0.002049333745241165,0.0011058788826689124,0.02759616432809271
1772046035528388000,4.18338818359375,-0.010163082095980644,-0.0026165757065638898,0.04627147430679761
1772046035538374000,4.193373779296875,-0.016800912675261497,0.0103430417727679,0.022863697012676855
1772046035548360200,4.203360107421875,0.0017038813084363936,0.016721381165646015,-0.011474644185160286
1772046035558345000,4.213344970703125,0.00886310541331768,0.024863478828035294,-0.0247163619749248
1772046035568331000,4.2233310546875,-0.0020797288835048672,0.009937968103215098,-0.03961834569368511
1772046035578316000,4.23331591796875,-0.036842414706945416,-0.015366678621061145,-0.05784553287897724
1772046035588302000,4.243302001953125,-0.00894201586842537,-0.004859861121326685,-0.08339227669686078
1772046035598288100,4.2532880859375,0.009204466196894644,-0.005279913164302707,-0.08021399372061715
1772046035608273200,4.263273193359375,0.007274374917149543,0.009009053222648798,-0.023053077538358047
1772046035618259200,4.27325927734375,0.023301380610466,0.01928768798969686,0.006026292818505316
1772046035628244200,4.283244140625,0.03737725223600864,0.03099412707015872,0.02791888890985865
1772046035638230000,4.29322998046875,0.04846212535202503,0.044790231906250116,0.0518712168428814
1772046035648216000,4.303216064453125,0.06707739397287368,0.04252531918156892,0.04232021593037061
1772046035658201000,4.313201171875,0.06941665057539939,0.04094890017770231,0.03462305815704167
1772046035668187100,4.323187255859375,0.06310089155733585,0.06126984020527452,0.00014858272441197186
1772046035678172200,4.333172119140625,0.03403554059267044,0.07188249269966035,-0.01660025270374026
1772046035688158000,4.343157958984375,0.04686930320262909,0.05751560223829001,-0.029896166632464152
1772046035698144000,4.35314404296875,0.0426291814148426,0.05367682779300958,-0.01963988526111934
1772046035708129300,4.36312939453125,0.04439093039035797,0.060759041138924656,0.00977791870329529
1772046035718115000,4.373114990234375,0.06053133333027363,0.06303279475718736,0.034686054090387185
1772046035728100000,4.38310009765625,0.050042672541737554,0.06403703989628702,0.03536667959857732
1772046035738086000,4.3930859375,0.03507482051253319,0.0638060076193884,0.03464063034635037
1772046035748072200,4.403072265625,0.0004892448216676712,0.06251443343888968,0.030442269907635634
1772046035758057200,4.41305712890625,-0.005514964029192924,0.056546172684244805,0.010721711492585018
1772046035768043000,4.42304296875,0.029907062485814092,0.04538900151699781,-0.02036794380734209
1772046035778028000,4.433028076171875,0.05023498024344444,0.04223141426891088,-0.017375479426514358
1772046035788014000,4.44301416015625,0.05053951614797115,0.029812516070157287,-0.005173548446688801
1772046035798000000,4.453000244140625,0.05401157617270946,0.017915084462240338,-0.019354953672783448
1772046035807985200,4.462985107421875,0.03266600580513477,-0.012916289794258773,-0.017727083042892628
1772046035817971000,4.472970947265625,-0.001415127494931221,-0.022056239387579262,0.0037594712645281103
1772046035827956000,4.4829560546875,-0.04481529328227043,-0.0357533773612231,0.0036912192007526753
1772046035837942000,4.49294189453125,-0.039460488250851626,-0.05424326603673398,-0.009763807979552074
1772046035847928000,4.502927978515625,-0.027680618607997892,-0.0454024089878425,0.012348687073332257
1772046035857913000,4.5129130859375,-0.01664952150583267,-0.031458237450569866,0.0250275833485648
1772046035867899100,4.522899169921875,-0.017156886506080625,-0.028256774528138337,0.013419243480870499
1772046035877884200,4.53288427734375,-0.02741407662630081,-0.021348164183460173,0.02655899416692555
1772046035887870000,4.542869873046875,-0.030218612653017042,-0.02353142650667578,0.05268680297550745
1772046035897856000,4.55285595703125,-0.025263620594143867,-0.02079516994319856,0.04429065748681314
1772046035907841000,4.562841064453125,-0.038438159465789795,-0.003983114819414914,0.023931011150358242
1772046035917827000,4.5728271484375,-0.029798341414332387,0.007506868498772383,0.018631571301678196
1772046035927812000,4.58281201171875,-0.003805237501859665,0.01548343686852604,0.027655109707405787
1772046035937798100,4.592798095703125,-0.01148819321990013,0.01811561200302094,0.025092839737655595
1772046035947784200,4.6027841796875,0.003259878578782081,0.02914729362707585,0.02912407714826986
1772046035957769200,4.612769287109375,0.025354806008934975,0.048472683278657495,0.032437485145730895
1772046035967755000,4.622755126953125,0.039844519132375716,0.04368132081627846,0.03794858585055917
1772046035977740000,4.632739990234375,0.06843465380072593,0.031769166563265026,0.05830813172231428
1772046035987726000,4.64272607421875,0.08451075933277606,0.03717533645574003,0.07793570092455483
1772046035997712100,4.652712158203125,0.10826865153908728,0.05327233864534646,0.10012874583378434
1772046036007697200,4.662697265625,0.09150573278665541,0.0661863268846646,0.08829379413598216
1772046036017683000,4.672682861328125,0.08672551277279854,0.06668543551322072,0.08724232145482674
1772046036027668000,4.68266796875,0.07489946590065956,0.058079811992309986,0.11087971995347179
1772046036037654300,4.692654296875,0.03357143021225929,0.0443958622938022,0.14425181906819343
1772046036047640000,4.70264013671875,0.025272388422489165,0.03136555419843644,0.11126657297974452
1772046036057625000,4.712625,0.03925532106757164,0.02681877761427313,0.0928467173331417
1772046036067611000,4.72261083984375,0.052045244535803795,0.02605952021218836,0.08770286077181808
1772046036077596200,4.73259619140625,0.036435587471723554,0.0389202438943088,0.08665491348830982
1772046036087582200,4.742582275390625,0.04165302985906601,0.02028802413865924,0.084198999103019
1772046036097568000,4.752568115234375,0.05468377634584903,-0.00006155746150761842,0.06608605398111976
1772046036107553000,4.762552978515625,0.04289864600598812,0.004475866772420704,0.03655063781929202
1772046036117539000,4.7725390625,0.017945406535267827,-0.0027708164202049374,0.024943777522630987
1772046036127524000,4.782524169921875,-0.0031236849784851074,0.0014568477448076008,0.028276465609297155
1772046036137510100,4.79251025390625,-0.016727847439050675,-0.004431844967603683,0.02933608506429009
1772046036147496000,4.802495849609375,-0.02783551690876484,-0.014844079519063233,0.020357892770785837
1772046036157481200,4.812481201171875,-0.036137481307983395,-0.004325644646771252,0.024822562295757234
1772046036167467000,4.822467041015625,-0.007810381489992141,0.01449442583117634,0.028396685322327538
1772046036177452000,4.8324521484375,0.011682254487276077,0.02439056408666074,0.032890151683520524
1772046036187438000,4.84243798828125,0.028480829074978828,0.026869777149148285,0.03357417929177172
1772046036197423000,4.852423095703125,0.03945464303195476,0.03101049368306994,0.023640074512921272
1772046036207409200,4.8624091796875,0.04625964687168598,0.02630914759170264,0.011662371609872206
1772046036217395000,4.87239501953125,0.0500800819426775,0.022867592303082346,-0.015305596083588897
1772046036227380000,4.8823798828125,0.039974867513775825,0.024078100604005157,-0.018259797113528473
1772046036237366000,4.892365966796875,0.029259996753931043,0.017532295689731834,-0.01626315253674984
1772046036247351300,4.902351318359375,0.029323125118017195,0.019681619210727513,-0.008557044271985068
1772046036257337000,4.912337158203125,0.03162029614448547,0.015606186465360224,-0.0018897410030476749
1772046036267323100,4.9223232421875,0.036301731958985325,0.005149382119812071,-0.011789340724097564
1772046036277308000,4.932307861328125,0.04503974968791008,0.010213058717548847,-0.025311186062917112
1772046036287294200,4.942294189453125,0.05782324341535568,0.009207644534669816,-0.02798110852506943
1772046036297279200,4.952279296875,0.06298632526695729,-0.0016726459199562667,-0.011423914078343658
1772046036307265000,4.96226513671875,0.07984510560929775,0.006066679627820849,-0.021246722236135974
1772046036317251000,4.9722509765625,0.06828618524074553,0.003088796328194439,-0.028231786217354237
1772046036327236000,4.982236083984375,0.052231122496724125,-0.010953903680108486,-0.03650984915117733
1772046036337222100,4.99222216796875,0.03495966970026493,-0.013595065838657319,-0.025685526667488738
1772046036347207200,5.002207275390625,0.010607903254032134,-0.021626615798659623,-0.020316683977562932
1772046036357193000,5.01219287109375,0.002118307328224182,-0.019324001412093637,-0.030035776032553984
1772046036367179300,5.02217919921875,0.005157236632704735,0.003191306854598224,-0.024743816237431018
1772046036377164000,5.0321640625,0.014930442628264427,0.004362798319384456,-0.019441709507629273
1772046036387150000,5.042150146484375,0.004195698124170303,-0.0032795696599408983,-0.025865952135156838
1772046036397135000,5.052135009765625,-0.018085107266902923,0.007518741599656641,-0.025774556657811625
1772046036407121200,5.06212109375,-0.02588204475343227,-0.0027142639273777603,-0.02526874429383315
1772046036417107200,5.072107177734375,0.005662263545393943,0.0031719080343842504,-0.029615988851059226
1772046036427092000,5.082092041015625,0.03632511283457279,0.012321136912703513,-0.045657360996445635
1772046036437078000,5.092078125,0.07165069323778152,0.01626004726421088,-0.07207256277850829
1772046036447063000,5.10206298828125,0.070187634947896,0.016702201541140674,-0.05282578218793496
1772046036457049000,5.112049072265625,0.052284313988685605,0.03011274112574756,-0.04024440517015755
1772046036467035100,5.12203515625,0.055934653189778326,0.01917023562248796,-0.044542851282749325
1772046036477020000,5.13202001953125,0.06229015969634056,0.013783939474262296,-0.0550867219903972
1772046036487006200,5.142006103515625,0.034085809475183484,0.010454064399190246,-0.04897388339960016
1772046036496991200,5.1519912109375,0.00661444970369339,0.00803396111279726,-0.02011272237068042
1772046036506977000,5.16197705078125,-0.017300678890943527,0.0071298518799245356,0.0044360096860677
1772046036516963000,5.171963134765625,0.01757540417909622,-0.0025350349029526114,0.00035459472448565063
1772046036526948000,5.181947998046875,0.06728957541882992,0.011362228752672671,-0.021765421481151133
1772046036536934100,5.19193408203125,0.09997603949010371,0.010809161447174847,-0.048739407923445104
1772046036546919200,5.201919189453125,0.08361468727588653,-0.008426613692194223,-0.03175250768940895
1772046036556904400,5.211904541015625,0.02369534836411476,-0.0025828195674344897,-0.002082925487589091
1772046036566889700,5.2218896484375,-0.051074353677034376,-0.011215769486688077,0.036543139499425885
1772046036576875800,5.231875732421875,-0.05870177981555461,-0.01542969738729298,0.042882178928377104
1772046036586861600,5.241861572265625,-0.046748307171463964,0.004829794776625931,0.021552874709013847
1772046036596846600,5.2518466796875,-0.008458031743764877,-0.005458922993019223,0.03022517939112149
1772046036606832600,5.26183251953125,0.0012438625812530516,-0.017718502444215117,0.03202407290609553
1772046036616817700,5.271817626953125,-0.028580197796225545,-0.032442426182329655,0.006571322948019951
1772046036626803700,5.2818037109375,-0.03866787656843662,-0.025470979734510183,-0.02333148348778486
1772046036636789500,5.29178955078125,-0.04532850350141525,-0.027770744576863942,-0.0014031356630381196
1772046036646774800,5.30177490234375,-0.014728198054432868,-0.021938531292043626,0.015591683015972375
1772046036656760600,5.311760498046875,0.02411971125602722,-0.00006736614778637886,0.03645566214537248
1772046036666745600,5.32174560546875,0.054018005913496016,-0.0003438084689900279,0.035192574273841454
1772046036676730600,5.331730712890625,0.046968671923875806,0.01538837899621576,0.05481671854313463
1772046036686716700,5.341716552734375,0.019998247411847112,-0.006313786256685852,0.05849765381189063
1772046036696702700,5.35170263671875,0.02023322521150112,0.0027174057325348258,0.030511092793568968
1772046036706687700,5.361687744140625,0.041131636333465574,-0.004128660769946873,0.02742912806496024
1772046036716673500,5.371673583984375,0.1033574986219406,-0.011947006370685994,0.04600792799978517
1772046036726658600,5.381658447265625,0.10645195750594139,0.013126279283128678,0.027598127956315874
1772046036736644900,5.391644775390625,0.0878466257572174,0.07070698264688254,0.004694322695536539
1772046036746629600,5.401629638671875,0.059088148784637445,0.03726411071773618,0.13479266572417692
1772046036756615700,5.41161572265625,0.0505722493737936,-0.06113492524661123,0.18219355505285784
1772046036766601500,5.4216015625,0.038355157357454296,-0.052627903261967,0.11269323564884252
1772046036776586800,5.431586669921875,0.030358897906541824,-0.012687924398481844,0.035504215772589665
1772046036786572800,5.44157275390625,-0.012042319971323013,0.007167224748246371,-0.00641263438812457
1772046036796557600,5.4515576171875,-0.038295536124706264,0.003255056273192167,-0.01548711752980016
1772046036806543600,5.461543701171875,-0.06834171482026577,-0.019234131171554324,-0.02709762195511721
1772046036816529700,5.47152978515625,-0.09803133516311645,-0.048210379080660636,-0.05267839134018868
1772046036826514700,5.4815146484375,-0.1056359649479389,-0.025188546063937247,-0.0367310541538056
1772046036836500700,5.491500732421875,-0.04233984307944774,-0.04285849665869027,0.0004231207828968763
1772046036846485500,5.501485595703125,0.03861410055458545,-0.07076459458563476,0.008209509475948288
1772046036856471800,5.511471923828125,0.03666705814003944,-0.06512198558878153,0.020480048712575808
