time,seconds_elapsed,z,y,x
1772094420886466800,0.113466796875,0.7452665783941745,0.2882880956895649,-0.22251942796139046
1772094420896415700,0.123415771484375,0.8255687801212072,0.3372245605550706,-0.17028328222967684
1772094420906365700,0.13336572265625,0.8145926280766725,0.2815247390344739,-0.07849414765806868
1772094420916316000,0.14331591796875,0.7237731239885091,0.2777143869660795,-0.021507756925653664
1772094420926264800,0.153264892578125,0.5998533143311738,0.3409726610422134,-0.010715674477443099
1772094420936214800,0.16321484375,0.6632008741259574,0.41335064564123747,0.013466315759299323
1772094420946163700,0.173163818359375,0.847106073668599,0.4446269506536424,0.042028320311708375
1772094420956114000,0.183114013671875,1.0643635077148674,0.4416458890162408,0.13595910655451007
1772094420966062800,0.193062744140625,1.2375994292050598,0.36112346866726874,0.2538999970658682
1772094420976012800,0.2030126953125,1.391414026388526,0.24742709299102425,0.33443785244598984
1772094420985962800,0.212962646484375,1.5637942078322171,0.2485771398089826,0.3854073940416798
1772094420995911700,0.22291162109375,1.6265812111347913,0.2890745698921382,0.32775545207262036
1772094421005861600,0.232861572265625,1.5918582727998494,0.2885147440522909,0.18961659945938736
1772094421015810800,0.242810791015625,1.5650503453731537,0.2936427545905113,0.029695547760138285
1772094421025760800,0.2527607421875,1.6086223605960606,0.3264613936740905,-0.06746794592672958
1772094421035710700,0.262710693359375,1.7503548903197048,0.3730101596854627,-0.1555318128975108
1772094421045660000,0.272659912109375,1.8608289429485796,0.35766324521079657,-0.22367827914031221
1772094421055609600,0.282609619140625,1.7992817105740309,0.2617814892970025,-0.18296030164165422
1772094421065558800,0.292558837890625,1.6108125641167164,0.21444449551738798,-0.03280671118376777
1772094421075508500,0.302508544921875,1.3789736470103262,0.19403459856472907,0.09318428785759024
1772094421085458000,0.3124580078125,1.058862572211027,0.13127755200900137,0.2512889560509473
1772094421095404000,0.322404052734375,0.7546124988883733,0.14238858247958122,0.3841838070634752
1772094421105354000,0.33235400390625,0.44790918719470496,0.21096995127461848,0.3688928970923647
1772094421115303000,0.342302978515625,0.4736410098224878,0.32990145112536845,0.2510981096539646
1772094421125252900,0.3522529296875,0.8547808460801839,0.40854397601187226,0.25745250191567465
1772094421135202000,0.3622021484375,1.365561207729578,0.3663872344143688,0.291543809549883
1772094421145152000,0.372152099609375,2.065183056280017,0.30584231095016,0.36759986160714175
1772094421155102000,0.38210205078125,2.7976977051287886,0.21158713332489132,0.4653041202403605
1772094421165051000,0.39205078125,3.2423645494014024,0.05117562209442258,0.5868745172273367
1772094421175001000,0.4020009765625,3.394237949389219,-0.07779021890610456,0.6273176598399877
1772094421184950000,0.411949951171875,3.538617194229364,-0.24701544345021245,0.5507936614774167
1772094421194900000,0.42189990234375,3.5110499728679656,-0.47918519994616504,0.5291181285031139
1772094421204850000,0.431849853515625,3.1487200510203834,-0.6996711675848811,0.5761607424460351
1772094421214799000,0.441799072265625,2.470692779162526,-0.9176143188729882,0.7292043552570044
1772094421224749000,0.4517490234375,1.483362242245674,-0.9493188592348247,0.9309683790300041
1772094421234698000,0.461697998046875,0.2842886507898569,-0.8332849074564874,0.9493772383585571
1772094421244648000,0.47164794921875,-1.007164533677697,-0.6832191414125264,0.772030374418199
1772094421254597000,0.48159716796875,-2.1076690298318863,-0.4049501162383705,0.3723748574566096
1772094421264547000,0.491547119140625,-2.99941445569396,-0.012048567049019038,-0.2732242724725976
1772094421274497000,0.5014970703125,-3.8511248082876204,0.08578874337933957,-0.9344694459535181
1772094421284446000,0.511446044921875,-3.901172741526365,-0.11971768179237842,-1.376773798878491
1772094421294396200,0.521396240234375,-3.5138702909857034,-0.32790392063260076,-1.2737196671172977
1772094421304345000,0.531344970703125,-3.093953857088089,-0.3334825244825333,-0.7192671178061515
1772094421314295000,0.541294921875,-2.371153962045908,-0.4688522411759942,-0.4327052248546853
1772094421324245000,0.551244873046875,-1.8381933327704667,-0.7346040954086929,-0.44612617623545225
1772094421334194200,0.561194091796875,-2.1267548385739325,-1.07687768298164,-0.5497411567497998
1772094421344144100,0.57114404296875,-2.9787971996009346,-1.3074981642089782,-0.6951378350041806
1772094421354093000,0.581093017578125,-4.157203266081214,-1.3741516336813568,-0.4645644443215802
1772094421364043000,0.59104296875,-5.884260867443681,-1.3534348627366124,0.17503255911599844
1772094421373992000,0.600991943359375,-7.605728101453185,-0.9987601318173109,0.5068413417000324
1772094421383942100,0.610942138671875,-9.079239396291971,-0.43079307109042997,0.25921638804934916
1772094421393892000,0.62089208984375,-9.6483088653028,-0.1531795872155577,-0.15029329118952153
1772094421403841000,0.630841064453125,-9.063895696687698,-0.08342778640165925,-0.3954629241099581
1772094421413791200,0.640791259765625,-7.962236769801378,-0.11280571044683456,-0.24882249287217853
1772094421423740200,0.650740234375,-6.880746770718694,-0.40098347762972114,0.1230254911661148
1772094421433690000,0.660690185546875,-6.001469196763634,-0.9144277977913617,0.3992996527286246
1772094421443640000,0.67064013671875,-5.565089119321107,-1.4109518166817725,0.4591840664574876
1772094421453589000,0.680589111328125,-5.309482373136282,-1.7698796750009058,0.4722677121752873
1772094421463539200,0.690539306640625,-5.065246915793419,-1.846804363118857,0.46077542730215937
1772094421473488100,0.700488037109375,-4.795776479429006,-1.704781179885566,0.4874168755881488
1772094421483438000,0.71043798828125,-4.486069894266128,-1.6009499262720346,0.6625114305570722
1772094421493387000,0.720386962890625,-4.29872712149024,-1.3449271466322243,0.8079413534939288
1772094421503337200,0.730337158203125,-4.489015300068259,-1.1139706383835524,0.8838076916653662
1772094421513287200,0.740287109375,-4.68528664470911,-0.8763418858293444,0.6897495660945773
1772094421523236000,0.750236083984375,-4.647532960376143,-0.7710430438812822,0.45978404164463277
1772094421533186000,0.76018603515625,-4.569668214929104,-0.7019986606843769,0.2707908347805962
1772094421543135200,0.77013525390625,-4.031226523894071,-0.46183070850875224,-0.07395166365653276
1772094421553085200,0.780085205078125,-3.1380168706983325,-0.1186941839635372,-0.24442729012053457
1772094421563035100,0.79003515625,-2.096190188962221,0.18188534762021152,-0.16545980759598314
1772094421572984000,0.799984130859375,-0.5691022022366523,0.36408118596170097,0.05320902761816978
1772094421582934000,0.80993408203125,1.5884692148834465,0.3205488451620564,0.9187430306419729
1772094421592883200,0.81988330078125,2.6205373036712407,0.15043960432503373,1.319465519247949
1772094421602833200,0.829833251953125,3.8272494271814823,0.19188341188021002,0.571321193460375
1772094421612783000,0.839783203125,4.616247010752558,0.3659453358657658,-0.5831326272852718
1772094421622732300,0.849732177734375,5.213972665405273,0.2739495910724625,-0.6941502122063189
1772094421632682000,0.859681884765625,5.943932953596115,0.20035203808322546,-0.38878348287865516
1772094421642631200,0.869631103515625,6.654343907186389,0.3446605192421004,-0.024455080690234898
1772094421652580900,0.879580810546875,7.547244348302483,0.48845407314877953,0.20436916477009653
1772094421662531000,0.889531005859375,8.19726074668467,0.5594236157219856,0.297700651679188
1772094421672480000,0.89947998046875,8.669241714340448,0.5956372310061008,0.5896126369543373
1772094421682430000,0.909429931640625,9.039835606664418,0.9706434598796069,0.38643867331817744
1772094421692379000,0.91937890625,9.341664005798101,0.8811731784433126,0.1347416479229927
1772094421702329000,0.9293291015625,9.454145306596159,0.833204024240002,0.16715652851127086
1772094421712278000,0.939278076171875,9.122472973340749,0.648470411049202,0.16038973779007792
1772094421722228000,0.94922802734375,8.472270696997642,0.47832091126702725,0.10820954176299273
1772094421732178000,0.959177978515625,7.9038535544157025,0.47029359909072516,0.29884309971258044
1772094421742127000,0.969127197265625,7.412048526871204,0.4811546733882278,0.6701855453815311
1772094421752077000,0.9790771484375,7.05587712765336,0.43910782190598546,0.8642610604785382
1772094421762026000,0.98902587890625,6.76239920823574,0.405018213038519,0.8077603709038347
1772094421771976000,0.998975830078125,6.402856871280074,0.5031763163864612,0.6949096522714943
1772094421781926100,1.008926025390625,6.083440208485722,0.6969939842648804,0.5004094820216298
1772094421791875000,1.018875,5.721973625469207,0.8562349173460155,0.2158792044956237
1772094421801825000,1.028824951171875,5.078976165938377,0.9740135208345949,-0.04781184474974871
1772094421811774000,1.03877392578125,4.349086604896187,1.0935700207158923,-0.2582194129012525
1772094421821724200,1.04872412109375,3.6724200999975203,1.122277498153597,-0.38106801313050087
1772094421831674000,1.058674072265625,3.0604993312537667,0.99047672598809,-0.43778804454430936
1772094421841623000,1.068623046875,2.397612345382571,0.7838796560354531,-0.4638115435950458
1772094421851573000,1.078572998046875,1.6123159544169903,0.6549335426487028,-0.3400996775999665
1772094421861522000,1.08852197265625,0.6691279260873794,0.6140107267603278,0.024821137523651123
1772094421871472000,1.09847216796875,-0.5686398454219103,0.6000815701290965,0.43484870315678414
1772094421881422000,1.108422119140625,-1.7776859648376702,0.6140827690832317,0.7826968759916723
1772094421891371000,1.11837109375,-2.5914959181040524,0.5785150504872203,0.8520644267283379
1772094421901321200,1.1283212890625,-2.8683763384640217,0.4292755061343312,0.5032490893617272
1772094421911270100,1.138270263671875,-2.702011471787095,0.1303057113021612,0.14648366977348923
1772094421921220000,1.14822021484375,-2.277579021769762,-0.2893975182361901,-0.056712651824951166
1772094421931169000,1.1581689453125,-2.22808521528244,-0.5849610117562115,-0.3664499243870377
1772094421941119200,1.168119140625,-3.058406158366799,-0.8074459711924195,-0.861928233616799
1772094421951069200,1.178069091796875,-4.353311529114842,-1.1097238676592707,-0.8473238080725073
1772094421961018000,1.18801806640625,-5.236416552403569,-1.3344810098111628,-0.2961377497440204
1772094421970968000,1.197968017578125,-6.119309394246339,-1.1751437036834655,0.05036584464807529
1772094421980917000,1.2079169921875,-6.8893538555443286,-0.4434577607437968,0.09066814945135265
1772094421990867200,1.2178671875,-7.119005491739511,0.502039129050076,0.08660639817146584
1772094422000817200,1.227817138671875,-7.509045258289575,1.1296472232040018,-0.021678492116369307
1772094422010766000,1.23776611328125,-7.861327833375334,1.330750883372128,-0.07109377174107358
1772094422020716300,1.24771630859375,-7.669748445942997,1.0818166006885468,0.06399018681356683
1772094422030665200,1.257665283203125,-6.860762551832199,0.5669421015933156,0.2064570038948208
1772094422040615200,1.267615234375,-5.706173998790979,0.08485314302965997,0.40785117144212124
1772094422050565000,1.277565185546875,-4.415205967491865,-0.24668548084348438,0.6385829310242086
1772094422060514000,1.28751416015625,-3.085024116179347,-0.46916028421185907,0.7327107559427618
1772094422070464300,1.29746435546875,-1.8930635715991257,-0.5223891855742782,0.553565646941401
1772094422080413200,1.3074130859375,-0.8715496100515127,-0.475147614993155,0.31980800019949673
1772094422090363400,1.31736328125,0.0986392379283905,-0.4639364851489663,0.20084078971454872
1772094422100313300,1.327313232421875,1.1031728385806083,-0.5138481517221778,0.17382009632000697
1772094422110262300,1.33726220703125,2.0131910032361744,-0.5706373028494417,0.09512061708187684
1772094422120212200,1.347212158203125,2.7620173199385403,-0.6388857864283025,-0.09203689878759905
1772094422130161400,1.357161376953125,3.4772809742569923,-0.7500657953694463,-0.25680167332412673
1772094422140111400,1.367111328125,4.100609856721759,-0.9265113265559076,-0.3362704747006297
1772094422150061300,1.377061279296875,4.492129632696509,-1.1404741029709577,-0.3297200666764751
1772094422160010200,1.38701025390625,4.648140863141418,-1.285868516203016,-0.3422774234978482
1772094422169960200,1.396960205078125,4.720195461004972,-1.307395434486866,-0.3867360488295555
1772094422179909400,1.406909423828125,4.66962028902173,-1.276063307633996,-0.3758214177139103
1772094422189859300,1.416859375,4.581723394381999,-1.2445463257335125,-0.40295824830140914
1772094422199808300,1.426808349609375,4.449012375503778,-1.2297012233011424,-0.35501696848571296
1772094422209758200,1.43675830078125,4.050540296173096,-1.2104568629965184,-0.19416589679419993
1772094422219708400,1.44670849609375,3.4248516988396642,-1.1279347932629287,-0.022230171182379126
1772094422229657300,1.4566572265625,2.941974074116349,-0.9378134226191789,0.08901682031406088
1772094422239607300,1.466607177734375,2.491010760048032,-0.7487053206712007,0.19060734579609706
1772094422249556200,1.47655615234375,1.8775123667240141,-0.6024762832459062,0.19513238547248765
1772094422259506400,1.48650634765625,1.1968453940123318,-0.45584538702145216,0.15722546507287768
1772094422269456400,1.496456298828125,0.4859288289874792,-0.3576291237454861,0.06078041272051632
1772094422279405300,1.5064052734375,0.28222528851926326,-0.21533874094337224,-0.13766623013280332
1772094422289355300,1.516355224609375,0.20588029998540877,-0.11644801247194408,-0.11737323755808174
1772094422299304400,1.526304443359375,-0.10424188024103641,-0.20429226360898464,0.13902918904908002
1772094422309254400,1.53625439453125,-0.282580093306303,-0.335187209508568,0.27545469840578735
1772094422319204400,1.546204345703125,-0.24695465317368506,-0.27985837672483177,0.21444814877919852
1772094422329153300,1.5561533203125,-0.31699498860538006,-0.15116335202232004,0.04157645749151707
1772094422339103500,1.566103515625,-0.5304559529781341,-0.04111362575273961,-0.17552213273122905
1772094422349052400,1.576052490234375,-0.5224532637864351,0.27295415029432624,-0.47863173078186805
1772094422359002400,1.58600244140625,-0.36731063286960125,0.7037002769704908,-0.753615669870749
1772094422368952300,1.595952392578125,-0.3127344085514545,1.0105066837124526,-0.8929284251015632
1772094422378901500,1.605901611328125,-0.27415771739780903,0.9976236751332879,-0.7279536976087838
1772094422388851500,1.6158515625,0.022148703444004058,0.7575411727514118,-0.4343016637332737
1772094422398800400,1.62580029296875,0.5670318257033825,0.5915197126846761,-0.10372720871716737
1772094422408750300,1.635750244140625,1.0989537595808505,0.5891274107206612,0.1799745820954442
1772094422418700500,1.645700439453125,1.569555255576968,0.6459255488719791,0.38014395708814264
1772094422428649500,1.6556494140625,1.9427116918653249,0.6454053974553943,0.504844651457481
1772094422438599400,1.665599365234375,2.153358767861128,0.572114462729916,0.5630246724212542
1772094422448548400,1.67554833984375,2.130039851593971,0.46677872283756733,0.4968321715241298
1772094422458498600,1.68549853515625,1.9295581957817076,0.38682080450356005,0.4576726024486124
1772094422468448500,1.695448486328125,1.528469211950898,0.2890965625282377,0.44829811344705517
1772094422478397400,1.7053974609375,1.0324012662649154,0.22607341238223014,0.25004772381819784
1772094422488347400,1.715347412109375,0.8991337825477123,0.2550240509260446,-0.14309285829141735
1772094422498296300,1.72529638671875,1.0356184747457504,0.3519067275106907,-0.4909672615461051
1772094422508246500,1.73524658203125,0.9926081850588321,0.36964988947212696,-0.5932737898103893
1772094422518196200,1.7451962890625,1.087139987668395,0.4164069644719362,-0.6431285385645925
1772094422528145400,1.7551455078125,1.258877195033431,0.3848641174778342,-0.4334799355542287
1772094422538095400,1.765095458984375,0.9843658418923615,0.1304474578604102,-0.10180756576620041
1772094422548044500,1.77504443359375,0.4642711239308119,-0.24178484932035207,0.10982453921157866
1772094422557994200,1.784994140625,-0.17306407205462454,-0.4386193808019161,0.2572234606664628
1772094422567944200,1.794944091796875,-1.33049515504539,-0.5769077614210546,0.2396030483018607
1772094422577893400,1.804893310546875,-2.4707494777858257,-0.7490316300161183,0.11691139219999312
1772094422587843300,1.81484326171875,-3.3713913268089293,-0.8106875834621489,-0.04593209541775286
1772094422597792500,1.82479248046875,-4.559188906490802,-0.7331209441788494,-0.2606968358654529
1772094422607742200,1.8347421875,-6.239256793141364,-0.74823580346331,-0.3993388522278517
1772094422617692400,1.8446923828125,-7.93925512266457,-0.8629534850113093,-0.4250757163569331
1772094422627641300,1.854641357421875,-9.486048511335254,-0.9546119241416454,-0.3735368869733065
1772094422637591300,1.86459130859375,-10.770964987510443,-0.9375735494486988,-0.44652869262173767
1772094422647540200,1.874540283203125,-11.246890893399716,-0.8802128089785576,-0.7833532940737903
1772094422657490200,1.884490234375,-10.869669691890477,-0.7518852658815681,-1.4160527930825948
1772094422667440400,1.8944404296875,-9.96032314288616,-0.5924474219888448,-2.0068116774626077
1772094422677389300,1.904389404296875,-8.840320750057696,-0.5269096586734057,-2.266075338719785
1772094422687339300,1.91433935546875,-7.827470571959018,-0.6319235462002456,-2.192220267305523
1772094422697288200,1.9242880859375,-6.844824977988004,-0.8314970011264086,-1.8904590881891548
1772094422707238400,1.93423828125,-5.840903956276178,-1.083542986089736,-1.4379445991560815
1772094422717188400,1.944188232421875,-4.621271560916305,-1.3110463582098484,-1.1098800080690532
1772094422727137300,1.95413720703125,-3.352119055584073,-1.30249217261523,-0.8324888617079704
1772094422737087200,1.964087158203125,-2.2423154006868597,-1.2586430940166116,-0.3560275337677449
1772094422747036400,1.974036376953125,-1.1970365326702594,-1.3547060517162084,0.1405980458009988
1772094422756986400,1.983986328125,-0.28731472061276436,-1.4197498940348625,0.8205720678124576
1772094422766936300,1.993936279296875,-0.7826262949734926,-1.4605661808088422,1.3797590982995926
1772094422776885200,2.00388525390625,-0.8338719135642051,-1.3430996389441192,0.9429577267050743
1772094422786835500,2.01383544921875,-0.7231769116610288,-0.8218985671758652,0.041187750434875485
1772094422796784400,2.023784423828125,-0.46085459348559377,-0.4739301654947921,-0.3792677587755024
1772094422806734300,2.033734375,0.23967384851574897,-0.5391445786073804,-0.43996845732331274
1772094422816684500,2.0436845703125,1.0344733963638544,-0.7655701654281467,-0.07553089567199349
1772094422826633500,2.053633544921875,2.084768631237745,-0.7208388241022825,0.4922269062183797
1772094422836583400,2.06358349609375,3.1286867322951553,-0.4428402133673429,1.038396415026486
1772094422846532400,2.073532470703125,3.9917099215418097,-0.2854690379471518,1.4257820138059556
1772094422856482300,2.083482421875,4.883354809638858,0.06888876337693073,1.7799417809404432
1772094422866432500,2.0934326171875,5.714933643829823,0.5176121804308146,2.1892222545333206
1772094422876381400,2.10338134765625,6.609142244935035,0.7120543368831277,2.469884969910979
1772094422886331400,2.113331298828125,7.525281522819399,0.7620193410787731,2.4758079302191733
1772094422896280300,2.1232802734375,8.215526471215487,0.7807818361505866,2.405918255304545
1772094422906230500,2.13323046875,8.71521202287674,0.7052481639996171,2.310614153148234
1772094422916180500,2.143180419921875,8.971621902137993,0.6027127954155206,2.1749771638207136
1772094422926129400,2.15312939453125,9.135737528583407,0.49445305783525106,2.039242997729033
1772094422936079400,2.163079345703125,9.08414704207778,0.3886917860072106,1.949544752755761
1772094422946028500,2.173028564453125,8.82925516616404,0.330987785057351,2.026544990327954
1772094422955978500,2.182978515625,8.368583528029918,0.34608788516409694,2.1387238010481
1772094422965928200,2.19292822265625,7.85788616848886,0.40855880825482305,2.0152721934244036
1772094422975877400,2.20287744140625,7.410221895965933,0.5000822958938778,1.455214736778289
1772094422985827300,2.212827392578125,7.313116443476081,0.4342840550113469,0.6101764823596925
1772094422995776500,2.222776611328125,7.152190552982687,0.13347155492193996,-0.0174341690775007
1772094423005726500,2.2327265625,6.715683049768209,-0.13736936607807873,-0.31910956960655745
1772094423015676200,2.24267626953125,6.142483349084854,-0.11105711321383714,-0.4423167009498924
1772094423025625300,2.252625244140625,5.316611786624789,0.13995477946139873,-0.43157253103032706
1772094423035575300,2.2625751953125,4.511170433253049,0.6276513487737625,-0.29017376330569383
1772094423045524500,2.2725244140625,3.5682255660295485,1.1775841556381434,0.024099764446541664
1772094423055474200,2.28247412109375,2.8943729495078325,1.3640968342654407,0.1430297299273312
1772094423065424400,2.29242431640625,2.4566502252846956,1.306739454796165,0.019130305470898747
1772094423075373300,2.302373291015625,1.8351017964959144,1.1196448115624487,-0.14240611813627183
1772094423085323300,2.3123232421875,0.909621274292469,0.7775929769814014,-0.27106413529664275
1772094423095272000,2.32227197265625,-0.5053057296305895,0.34290289845243094,-0.5440635129721835
1772094423105221600,2.3322216796875,-2.2964684311568737,-0.16442425400316715,-0.7241219374261796
1772094423115171800,2.342171875,-3.706445703718066,-0.620982757730037,-0.9534384964480995
1772094423125120800,2.352120849609375,-4.486615837711096,-0.5905737370714544,-1.293295597463846
1772094423135070700,2.36207080078125,-5.334781649565697,-0.09142828363627195,-1.7290810700140893
1772094423145019600,2.37201953125,-6.273011763226986,0.361542570862174,-1.8150974116042256
1772094423154969900,2.381969970703125,-7.168724923676252,0.3391484412897378,-1.1808864120539277
1772094423164919800,2.391919921875,-7.85851979021728,0.12760215143188833,-0.577747280985117
1772094423174868700,2.40186865234375,-8.50487415896058,0.33774858442917466,-0.5865389285974204
1772094423184818700,2.411818603515625,-8.694705825942755,0.737929148178175,-0.7529016033172607
1772094423194767600,2.421767578125,-8.338849484023452,1.0343083419952541,-0.8140222077775746
1772094423204717800,2.4317177734375,-7.560669647064804,1.3010305756300686,-0.8197664505179971
1772094423214667800,2.441667724609375,-6.666733433160186,1.304472825038433,-0.6936012000214308
1772094423224616700,2.45161669921875,-5.801077557322382,0.8884760488025844,-0.4310395931974053
1772094423234567000,2.46156689453125,-5.094890358906984,0.41286351971141994,-0.26075258464068174
1772094423244515800,2.471515869140625,-4.413541249150038,0.04331720021162182,-0.07709237283505499
1772094423254465800,2.4814658203125,-3.5997482470184563,-0.23953257688153534,0.23939693127050996
1772094423264415700,2.491415771484375,-2.7278502619206906,-0.4595296284921467,0.6032082507822663
1772094423274364700,2.50136474609375,-1.8675515292018652,-0.5705684388643131,0.8951471971295774
1772094423284315000,2.51131494140625,-1.1429337710827587,-0.5959920357931405,1.0544744202546774
1772094423294263800,2.521263916015625,-0.4549655354470014,-0.7034505399931221,1.1355553512692451
1772094423304213800,2.5312138671875,0.34203824444711206,-0.8088962430659681,1.0267473321564495
1772094423314164000,2.5411640625,1.0801818390935658,-0.8905116462834178,0.7581503176257014
1772094423324113000,2.55111279296875,1.7851421260625122,-1.124404792505875,0.5333489710059016
1772094423334062800,2.561062744140625,2.4324480964422226,-1.4439748192310333,0.36068946116417644
1772094423344012800,2.5710126953125,2.9542075327455994,-1.6288452105440199,0.14276814724854192
1772094423353962000,2.5809619140625,3.3540129065066573,-1.7034022927477954,-0.1551113407294266
1772094423363912000,2.590911865234375,3.522216679048538,-1.7105410585865377,-0.3928949002528563
1772094423373860900,2.60086083984375,3.464605032557249,-1.6553617538087069,-0.555147728501074
1772094423383810800,2.610810791015625,3.446551489472389,-1.5972611547566948,-0.6600863223019987
1772094423393761000,2.620760986328125,3.4162007748723027,-1.4575335351146756,-0.7732987869188189
1772094423403710000,2.6307099609375,3.2265456335008142,-1.2793648333974181,-0.7939972184892743
1772094423413660000,2.640659912109375,2.9195003765016794,-1.1589314776163548,-0.6337325683835894
1772094423423608800,2.65060888671875,2.6483371647447345,-0.9764148828878998,-0.534407138289325
1772094423433559000,2.66055908203125,2.602414202481508,-0.6187180276684463,-0.6999073874935507
1772094423443508700,2.6705087890625,2.6015783361792564,-0.1751670539495535,-0.9684264414172619
1772094423453458000,2.6804580078125,2.535302321717143,0.11256224794662557,-1.2470499791175127
1772094423463407900,2.690407958984375,2.314312130883336,0.1673517588224262,-1.3449404445052147
1772094423473356800,2.700356689453125,1.9129630348116158,0.17976685762889683,-1.3511688175007701
1772094423483307000,2.71030712890625,1.565172510448098,0.265525315467827,-1.3804068946838377
1772094423493256700,2.720256591796875,1.1828460947543382,0.30795619783159345,-1.3775164339393378
1772094423503206000,2.730205810546875,0.6489800410717725,0.2992342727209441,-1.3031044592946768
1772094423513155800,2.74015576171875,-0.10880758072137832,0.44811640020459886,-1.0716462120689452
1772094423523105000,2.75010498046875,-0.9527601587951183,0.6777005971867591,-0.9008248774398118
1772094423533054700,2.7600546875,-1.8057921153813599,0.8082998115427792,-0.8349250028137117
1772094423543004700,2.770004638671875,-2.5175346098363396,0.8239603950764983,-0.7100953117698431
1772094423552953600,2.77995361328125,-2.9419360801935195,0.7896171767741441,-0.5674474938321858
1772094423562903800,2.78990380859375,-3.0869647288531064,0.717576022914052,-0.5320131923574954
1772094423572852700,2.799852783203125,-3.0729379570662974,0.6024317134518176,-0.5835944361107424
1772094423582802700,2.809802734375,-2.9301339987188575,0.397804664930515,-0.6422000986080616
1772094423592753000,2.8197529296875,-2.6779268318444487,0.1689126149309799,-0.7779314882207662
1772094423602701800,2.829701904296875,-2.362615266281366,-0.03968852485306561,-0.9181832048021257
1772094423612651800,2.83965185546875,-1.845557724058628,-0.2485514208458364,-0.9558101209502666
1772094423622601700,2.849601806640625,-1.1465279961824417,-0.40064609890151764,-0.860762331642583
1772094423632550700,2.859550537109375,-0.34890579212903977,-0.5826927014980465,-0.6528225418440997
1772094423642500900,2.8695009765625,0.41853170154094693,-0.7761896129895001,-0.4599903048064559
1772094423652449800,2.87944970703125,1.101140455970168,-0.8875012124210595,-0.3497312466351315
1772094423662399700,2.889399658203125,1.6578572238862515,-1.0042490846224128,-0.2796725718291476
1772094423672350000,2.899349853515625,2.0669979967474936,-1.1753280472744256,-0.19909082250837234
1772094423682299000,2.909298828125,2.3389175798296926,-1.2562912701934574,-0.18564778715996072
1772094423692248800,2.919248779296875,2.4853695392906663,-1.251422495113313,-0.19127656856086103
1772094423702197800,2.92919775390625,2.4534365239351987,-1.3514071563012897,-0.2721151969858445
1772094423712147700,2.939147705078125,2.6306851881980893,-1.5176564337745309,-0.3572673777610063
1772094423722098000,2.949097900390625,2.998991261845827,-1.4029783535845577,-0.2820121937578544
1772094423732046800,2.959046875,3.5024808819651603,-1.2780056738734245,-0.03079155370276421
1772094423741996800,2.968996826171875,4.145288956403732,-1.2341934201538562,0.21544746201485393
1772094423751945700,2.97894580078125,4.560471347516775,-1.1683670491553841,0.44130942360348996
1772094423761896000,2.98889599609375,4.482475084644555,-1.1252772644914686,0.7641643172182142
1772094423771846000,2.998845947265625,4.183369388473034,-1.1042929286517202,1.1632399153999984
1772094423781794800,3.008794921875,3.7749277037918567,-1.0364870742738246,1.3597319170542062
1772094423791744800,3.018744873046875,3.364939374190569,-0.9844286049302666,1.5285823169365524
1772094423801695000,3.028695068359375,2.819220970150828,-0.9748680918373167,1.7510567549787461
1772094423811644000,3.038643798828125,2.268233685797453,-1.0242760466720908,1.9584286086961626
1772094423821593900,3.04859375,1.8003373571068046,-1.0425620833385736,2.1154341108754275
1772094423831542800,3.058542724609375,1.2350152579307556,-0.9425986841343342,2.261033691290766
1772094423841493000,3.068492919921875,0.5770698201149702,-0.8633240718893707,2.4793539322629568
1772094423851442700,3.078442626953125,-0.11122983943223953,-0.6869067438840866,2.7717349963545796
1772094423861392000,3.088391845703125,-0.7924906863838433,-0.5340824729122221,2.9197853309229016
1772094423871341800,3.098341796875,-1.4088660964488982,-0.42560975016839797,2.8988609085768458
1772094423881291000,3.108291015625,-2.199474622347951,-0.3549873770650476,2.6216250989079475
1772094423891241000,3.118240966796875,-3.132682523933053,-0.43231100137270984,2.31701875949353
1772094423901190700,3.128190673828125,-4.301488402897119,-0.4076197007738054,2.1804219852231443
1772094423911139800,3.138139892578125,-5.772334277918935,-0.19294804543703795,2.054013135229051
1772094423921089800,3.14808984375,-7.6923121599286794,0.08969619914665818,2.0019222979858515
1772094423931039000,3.1580390625,-9.919765507048368,0.34564036059230563,2.0379497430481015
1772094423940988700,3.16798876953125,-11.968431728291511,0.6255073224823922,1.7372512247271834
1772094423950939000,3.17793896484375,-13.30655664756298,1.0012062828604131,0.6552564909927546
1772094423960887800,3.1878876953125,-13.373797707664966,1.3744696135893464,-1.0540835212409496
1772094423970837800,3.197837646484375,-12.211700386428832,1.397976453644037,-2.583351482354104
1772094423980787700,3.20778759765625,-10.04572412905693,1.027643111952394,-3.563012215295434
1772094423990736600,3.217736572265625,-7.721935144776105,0.471556458633393,-3.898886384154856
1772094424000686800,3.227686767578125,-5.794799207705259,-0.0299179126733914,-3.695897129435837
1772094424010635800,3.2376357421875,-4.473145530763269,-0.41273729951586574,-3.33362302942872
1772094424020585700,3.247585693359375,-3.5621570597708225,-0.6018253815891221,-2.871655506265163
1772094424030536000,3.257535888671875,-2.8548510864585634,-0.4500843758093193,-2.125779856061935
1772094424040484900,3.26748486328125,-2.1085691935420035,-0.2785445541799068,-1.570998732383549
1772094424050434800,3.277434814453125,-1.62421506652534,-0.16475107480473816,-1.2316337987989185
1772094424060383700,3.2873837890625,-1.4276578906804323,-0.21457319993097335,-0.9025205023765563
1772094424070333700,3.297333740234375,-1.1745382851362227,-0.0847107754169032,-0.5804742217309773
1772094424080284000,3.307283935546875,-0.4321569067895412,0.2740084085876122,-0.008680734583735465
1772094424090232800,3.31723291015625,0.7080576684623956,0.5682431742545216,0.6256865515068173
1772094424100183800,3.327183837890625,2.0877689820975065,0.5610887359226122,1.1526546623691916
1772094424110132700,3.3371328125,3.5816532028794286,0.46458121279329057,1.3820808192454277
1772094424120082700,3.347082763671875,4.800115969938039,0.2882940505063161,1.276234864808619
1772094424130033000,3.357032958984375,5.740597077396512,0.03411912722289562,1.2725053228914738
1772094424139981800,3.36698193359375,6.289529182785749,-0.1058134769393131,1.2892173882395028
1772094424149931800,3.376931884765625,6.501662113425136,-0.05657634862679988,1.2134382899601013
1772094424159881500,3.386881591796875,6.496500785139203,0.17133326620664446,1.062371895506233
1772094424169831000,3.396830810546875,6.523440229991078,0.4080270029330626,0.9667807200368493
1772094424179780600,3.406780517578125,6.620934389537572,0.6413717580251396,0.8868722668677568
1772094424189729800,3.416729736328125,6.83468644581139,0.8863662170417607,0.9109874480791389
1772094424199679500,3.426679443359375,7.125483747842908,0.9859563259541988,0.9125784435976296
1772094424209629700,3.436629638671875,7.543796838197111,0.9454421639319509,0.903699775288999
1772094424219578600,3.44657861328125,7.874948946970701,0.9744930479798466,0.8534469671279191
1772094424229528600,3.456528564453125,8.070858472561836,1.0024925232786686,0.7757564092040061
1772094424239477800,3.466477783203125,8.000201466536522,0.9480500083427875,0.7127811898529529
1772094424249427700,3.476427734375,7.714349219691753,0.806925235253945,0.6777198864091187
1772094424259377700,3.486377685546875,7.440820447847247,0.6696534112662077,0.6172486857682467
1772094424269326600,3.49632666015625,7.005122507449984,0.6599995938666164,0.6178665254056454
1772094424279276500,3.506276611328125,6.57962798115909,0.6308478797927498,0.7254222794350236
1772094424289226800,3.516226806640625,6.106432961538434,0.7220267917778342,0.6911353213645517
1772094424299175700,3.52617578125,5.275658429467677,0.8247070487253367,0.580198254333809
1772094424309125600,3.536125732421875,4.519439664426446,0.7450316736597568,0.36271724066473543
1772094424319074600,3.546074462890625,4.046804616776108,0.8307803042244165,0.010152177109476178
1772094424329024800,3.556024658203125,3.6930315108716485,1.0787081132791936,-0.361322133044526
1772094424338974700,3.565974609375,3.32069925044775,1.1919609829716384,-0.589783390411362
1772094424348923600,3.575923583984375,2.877174561947584,1.2559183452278375,-0.6771296654310077
1772094424358873600,3.58587353515625,1.9064894548833369,1.193865939810127,-0.59797564735841
1772094424368822800,3.59582275390625,0.2066238118290901,0.8634758283849805,-0.339625045825541
1772094424378772700,3.605772705078125,-1.927795277762413,0.5558290252961218,-0.026764544942695645
1772094424388722700,3.61572265625,-4.052283340448141,0.45367951422445474,0.1796751059585251
1772094424398671600,3.625671630859375,-5.638590408861637,0.41640272668823597,0.011792318132473155
1772094424408621800,3.635621826171875,-6.505126574665308,0.6056274772858247,-0.5838801577169448
1772094424418571800,3.64557177734375,-6.643775751420855,0.9120856185793876,-1.2371288890838623
1772094424428520700,3.655520751953125,-5.995002631098032,0.9569765343811363,-1.7211844715453684
1772094424438470700,3.665470703125,-5.302278140845894,0.5909406341550871,-1.765191663315147
1772094424448419800,3.675419921875,-4.89344015032351,0.02793327819481492,-1.5558115385152398
1772094424458369800,3.685369873046875,-5.026827461028099,-0.3849524898810312,-1.4261622452951968
1772094424468319700,3.69531982421875,-5.668395764538645,-0.7095064059659838,-1.2949237831875682
1772094424478268700,3.7052685546875,-6.516382712695002,-0.7932328099880367,-1.0621594217993318
1772094424488219000,3.715218994140625,-7.565719916191696,-0.5686391878347844,-0.6834567495606839
1772094424498167800,3.725167724609375,-8.7708982542634,-0.28992011733818795,-0.158647204971686
1772094424508117800,3.73511767578125,-9.716163673388957,-0.12120486987652257,0.3880591871920973
1772094424518067700,3.745067626953125,-10.08448026843071,0.032874515722971405,0.6192093913819641
1772094424528017000,3.755016845703125,-9.512395835512876,-0.029522227886691687,0.5179574867371469
1772094424537966800,3.764966796875,-7.950607706806063,-0.42960342291444537,0.3124871557921171
1772094424547916500,3.77491650390625,-5.994869944629073,-0.8755687094997614,0.2804359208844602
1772094424557865700,3.78486572265625,-4.011093251925707,-1.417981861449033,0.34460681629348544
1772094424567815700,3.794815673828125,-2.25445650485754,-1.7134952322170138,0.20307773672007023
1772094424577764900,3.804764892578125,-0.7343886260271072,-1.9184280222192405,0.09440722638182342
1772094424587714600,3.814714599609375,0.6790268042892217,-2.0640465995959936,0.03495720374854281
1772094424597664500,3.82466455078125,1.8013579323261975,-2.051712895462662,0.05355015093972906
1772094424607613700,3.83461376953125,2.6341321137815714,-1.876986589284241,0.22101495994888246
1772094424617563600,3.844563720703125,3.235277806010842,-1.6504978010341524,0.46577389317657797
1772094424627512600,3.8545126953125,3.688705464366078,-1.486781110778451,0.5503952367443591
1772094424637462500,3.864462646484375,4.019913102719188,-1.401944626622647,0.4650485015114769
1772094424647412700,3.874412841796875,4.43216762368679,-1.3491158304937183,0.32821583612598476
1772094424657361700,3.884361572265625,4.848844052749872,-1.2810904881462455,0.2496590350278653
1772094424667311600,3.8943115234375,5.251584895440936,-1.2032338529404252,0.2369866552583873
1772094424677261600,3.904261474609375,5.566114370715618,-1.1088053645748643,0.20366351898508145
1772094424687210800,3.914210693359375,5.709090178498625,-1.052517514033243,0.1560497906233184
1772094424697160700,3.92416064453125,5.706920433244109,-0.9715754800327122,0.17397965252958236
1772094424707109600,3.934109619140625,5.520327602052689,-0.890636807033047,0.2033204594347626
1772094424717059600,3.9440595703125,5.25844133720696,-0.8020501034982502,0.24077128836363554
1772094424727009800,3.954009765625,4.862154200699925,-0.6809949625570326,0.2975274322704412
1772094424736958700,3.963958740234375,4.25599915587604,-0.5435405485440046,0.30079814277049155
1772094424746908700,3.97390869140625,3.6890520858466624,-0.4242365986516699,0.29950156362131236
1772094424756857600,3.983857666015625,3.2276176466464994,-0.21895554320104418,0.25316216604430225
1772094424766807800,3.993807861328125,2.798340679207444,0.0006762826932128519,0.23086901262830942
1772094424776757800,4.0037578125,2.2268770085364578,0.1349832746591419,0.2287421018685214
1772094424786706700,4.013706787109375,1.5776865395843982,0.21647289607245473,0.1578797277305275
1772094424796656600,4.02365673828125,0.7041746895492077,0.289692080735974,0.024114815885201094
1772094424806606800,4.03360693359375,-0.4823275896251201,0.33188601253870875,0.016201887336187062
1772094424816555800,4.0435556640625,-1.723821103659272,0.3760460933152586,0.061123024746263396
1772094424826505700,4.053505615234375,-2.9527134947955607,0.5518363754633814,0.14457933398950845
1772094424836454700,4.06345458984375,-4.028851026934385,0.8304252802416682,0.27774085484789685
1772094424846404900,4.07340478515625,-4.857955579966307,1.1557478791441769,0.43259917066432535
1772094424856354800,4.083354736328125,-5.464891546034813,1.358807934077084,0.498179019555822
1772094424866303700,4.0933037109375,-5.789852983474731,1.4158638463817537,0.43057738251313565
1772094424876253700,4.103253662109375,-5.818428505095839,1.3897422937840223,0.18980448671430347
1772094424886203000,4.113202880859375,-5.476204382687807,1.2629828767865896,-0.06350481444941833
1772094424896152800,4.12315283203125,-4.791341711851954,1.0941377376012504,-0.23387491644602268
1772094424906102800,4.133102783203125,-3.9310231053888796,0.9005691491130738,-0.3070757982678711
1772094424916051700,4.1430517578125,-2.996239917311072,0.7297543903551995,-0.2808012835981324
1772094424926001700,4.153001708984375,-2.1685645202994346,0.643224692415446,-0.21011127035235985
1772094424935951600,4.16295166015625,-1.3994663999408483,0.5310749981919303,-0.07605274585532024
1772094424945900800,4.17290087890625,-0.6922825917035341,0.41880120266471055,0.03476931649362668
1772094424955850500,4.1828505859375,-0.009343582406640053,0.35384675566256046,0.09935253729689866
1772094424965800000,4.192800048828125,0.594534165135026,0.3706170174712315,0.11042067847382277
1772094424975749600,4.20274951171875,1.16462187127769,0.34880941908247765,0.14325422286558895
1772094424985699600,4.212699462890625,1.712370319840312,0.3434941423438489,0.19211409709723665
1772094424995648500,4.2226484375,2.2186691521614788,0.3020949411153793,0.1940660348826088
1772094425005598700,4.2325986328125,2.793925785374641,0.25697171439509836,0.1284661843826994
1772094425015547600,4.242547607421875,3.3836364758759734,0.205716451193206,0.03247473928304389
1772094425025497600,4.25249755859375,3.8855169072329994,0.1661326288236305,-0.014719466758705675
1772094425035447600,4.262447509765625,4.29368971184492,0.15944138755667953,-0.04314117692443542
1772094425045396700,4.272396728515625,4.660005488458276,0.11023476398028433,-0.1134138232746627
1772094425055346700,4.2823466796875,4.956841486132145,0.06985453053601086,-0.15746161191631108
1772094425065296600,4.292296630859375,5.117196883261204,0.01482347512245178,-0.1767871659646742
1772094425075245600,4.30224560546875,5.255298363006115,-0.047729025304503736,-0.1501646598411724
1772094425085195800,4.31219580078125,5.2430216497570274,-0.045288573349826035,-0.11887204301478341
1772094425095144000,4.32214404296875,5.0982840929985045,0.011322883122973143,-0.09311535080722533
1772094425105094100,4.33209423828125,4.8793759691357605,0.08773837960977107,0.012750472807255572
1772094425115044000,4.342044189453125,4.674419213736057,0.13607757270187137,0.1345637158065103
1772094425124993000,4.351992919921875,4.408506177592277,0.126066027905792,0.21620929496651514
1772094425134943000,4.36194287109375,4.2195355113536115,0.017299509847164152,0.23687734966501592
1772094425144892000,4.371891845703125,3.9744145033478735,-0.1305021106570959,0.18168304824745282
1772094425154842000,4.381842041015625,3.7563188649117945,-0.2900425016088411,0.14161209994805976
1772094425164792000,4.3917919921875,3.3999902293056246,-0.38234099220838397,0.14727594352918677
1772094425174741000,4.401740966796875,2.831420526510477,-0.46124757485855367,0.19271986270435154
1772094425184691200,4.411691162109375,2.1068518682301045,-0.5603335701737553,0.1905121965922415
1772094425194641200,4.42164111328125,1.1211176605939865,-0.6697403588972985,0.14837774902493692
1772094425204590000,4.431590087890625,-0.07452595641314982,-0.7821649610720575,0.21676548581086097
1772094425214540000,4.4415400390625,-1.3152964168697594,-0.8661075651280582,0.16592691365107892
1772094425224489000,4.451489013671875,-2.5498651000767945,-0.9181790400836616,-0.06342136481651105
1772094425234439200,4.461439208984375,-3.8638638783514496,-0.8796230263918637,-0.14129421137161552
1772094425244389000,4.47138916015625,-5.143163099166751,-0.6519070344343781,-0.06934130205055698
1772094425254338000,4.481338134765625,-6.684670071867108,-0.3857666192755103,0.018087787847756408
1772094425264288300,4.491288330078125,-8.426817105811834,-0.26417693306617435,0.12711418525185436
1772094425274238200,4.50123828125,-10.205627106243371,-0.23129209687858818,0.22803276628907768
1772094425284187100,4.511187255859375,-11.785166580218077,-0.050806058129668236,0.23223261086540295
1772094425294137000,4.52113720703125,-12.943821067523956,0.40246144122779365,0.20965397330522537
1772094425304086000,4.5310859375,-13.569625400191544,0.8157405560027807,0.332661380825378
1772094425314036200,4.5410361328125,-13.518786024314164,0.9991449664164334,0.27832543153651057
1772094425323986200,4.550986083984375,-12.849082928687332,1.0191941402979194,-0.23712551573980598
1772094425333935000,4.56093505859375,-11.484023240739106,0.8582805978294461,-0.8781560956444591
1772094425343885000,4.570885009765625,-9.695016840463877,0.38920390024781226,-1.3551660704433917
1772094425353834200,4.580834228515625,-7.754715132349729,-0.16788257776349783,-1.3842245532758533
1772094425363784200,4.5907841796875,-5.968837677749991,-0.47459319598078725,-1.2049498630780726
1772094425373734000,4.60073388671875,-4.555664239495992,-0.6988121396027505,-0.8398536183223128
1772094425383683000,4.61068310546875,-3.686958328437805,-0.8120273076333105,-0.30646753017641604
1772094425393633000,4.620633056640625,-3.075402301353216,-0.7404201612763106,0.18510854745041577
1772094425403583000,4.6305830078125,-2.6772230674892663,-0.5306663808584213,0.5562872173923998
1772094425413532000,4.640531982421875,-2.3492279614418745,-0.3853175603337586,0.8543350020088255
1772094425423482000,4.650482177734375,-1.6495628582715987,-0.1590381770506501,0.984786405391991
1772094425433431000,4.66043115234375,-0.5255214191854,0.16224647157266736,1.0678705659877508
1772094425443381000,4.670381103515625,1.0660820020705462,0.34873423495441674,1.0421233996603638
1772094425453331000,4.6803310546875,2.792501305529475,0.519718431995064,0.7548663275189698
1772094425463279900,4.69027978515625,4.199735416862368,0.6367550580099225,0.42924445340894163
1772094425473230000,4.70022998046875,5.196175142908096,0.6765725430049002,0.1409694363966584
1772094425483180000,4.710179931640625,6.007154841184616,0.7506387729518115,0.01913432405889034
1772094425493129000,4.72012890625,6.884746069487929,0.7704159249588847,0.1603195586306974
1772094425503079200,4.7300791015625,7.626988916146755,0.7691491198934615,0.2761614219030365
1772094425513028000,4.740028076171875,8.063779912477731,0.786461927613616,0.2792905685079284
1772094425522978000,4.74997802734375,8.409898704236745,0.7563551047720014,0.32524398070834576
1772094425532928000,4.759927978515625,8.849466764065623,0.8037659675054252,0.2733856187804602
1772094425542877000,4.769876953125,9.317892085066438,0.9066839056663215,0.19788215910466386
1772094425552827100,4.7798271484375,9.688205406883359,0.9118238989032804,0.11561361660757101
1772094425562776000,4.789776123046875,9.879935016441344,0.7285939682736993,0.08690370061760767
1772094425572726000,4.79972607421875,9.942785148108005,0.47704395013377066,0.06697011593980715
1772094425582676200,4.80967626953125,9.79208196094334,0.2840601027309894,0.03818898874400183
1772094425592625200,4.819625244140625,9.47447147078812,0.12203823369443416,0.04519490371700376
1772094425602575000,4.8295751953125,8.947136864700912,0.03105214086771011,-0.02408460341002792
1772094425612525000,4.839525146484375,8.167578140604496,0.030895050609856842,-0.02003554721493274
1772094425622474200,4.84947412109375,7.247074822291731,0.01848082858622074,0.013124891043640672
1772094425632424200,4.859424072265625,6.353811977604031,0.1437958919942379,0.01986826435662806
1772094425642373000,4.869373046875,5.361264582821726,0.3009741203919053,0.0364588222168386
1772094425652323000,4.879322998046875,4.41719217287302,0.2832270129077136,-0.035334603959880764
1772094425662273300,4.889273193359375,3.6644209179371594,0.31025749704390765,-0.21892569605205206
1772094425672222200,4.89922216796875,3.0900586032152173,0.3432806457236409,-0.5236509126057848
1772094425682172200,4.909172119140625,2.8618957442730664,0.22733166881501674,-0.8444310092404484
1772094425692121000,4.91912109375,2.1754314834594726,0.061684595018625256,-1.0017016651619226
1772094425702071300,4.9290712890625,1.0091647675842046,-0.05557108057439327,-0.8396597031854093
1772094425712021000,4.93902099609375,-0.46758653208911416,-0.08683905614987016,-0.40173013127855955
1772094425721970200,4.94897021484375,-1.8929495898306368,0.0016590192534029482,0.017520641784556208
1772094425731920100,4.958920166015625,-3.2147897292554375,0.23643954276964066,0.27932196829319
1772094425741870000,4.9688701171875,-3.9422926874220368,0.43003918398320673,0.2689892652513459
1772094425751819000,4.978819091796875,-4.171130669146776,0.5689690773762762,0.09023461687229573
1772094425761769000,4.98876904296875,-4.1536674931704995,0.5533275638692081,-0.061965896178036925
1772094425771718100,4.99871826171875,-4.171210748645663,0.36279987744688985,-0.16712752161249517
1772094425781668000,5.008668212890625,-4.705201890012622,0.10023016038164496,-0.2584125608531758
1772094425791618000,5.0186181640625,-5.944994445347786,-0.2969885578870773,-0.036640133600495756
1772094425801567000,5.02856689453125,-7.244971712532639,-0.6517885226212442,0.21834888254478574
1772094425811517000,5.038516845703125,-8.362217500129342,-0.5990691782161593,0.08696905747139826
1772094425821465900,5.0484658203125,-9.101028034251927,-0.14395020577311515,-0.2924353698284365
1772094425831416000,5.058416015625,-9.205823456722497,0.3730589672632515,-0.6224002233125269
1772094425841366000,5.068365966796875,-8.554920923155546,0.7834932870663702,-0.7741025775823742
1772094425851315000,5.07831494140625,-7.09157329493463,0.930194472048059,-0.66737377589643
1772094425861265200,5.08826513671875,-5.323568766155839,0.6228183025941252,-0.43088816549535836
1772094425871215000,5.098215087890625,-3.7941695798784494,0.17311273350194095,-0.3326643034348264
1772094425881164000,5.1081640625,-2.8098873246163127,-0.14120770213194192,-0.1253357682693284
1772094425891114000,5.118114013671875,-2.1575503743320703,-0.3009784312408417,0.413756669158861
1772094425901063000,5.12806298828125,-1.6849819621771573,-0.23812881103083489,0.816209196427837
1772094425911013000,5.13801318359375,-1.243386195912957,-0.11271109096594153,0.8881406793683767
1772094425920963000,5.147963134765625,-0.5856956096410751,-0.13064436867199838,0.7950926855757832
1772094425930912000,5.157912109375,0.22459552184939383,-0.20177140336185692,0.491938663861528
1772094425940862200,5.1678623046875,1.1512369045257567,-0.3109237789329141,0.11364331204844638
1772094425950812200,5.177812255859375,2.02537770011425,-0.5533928111251444,-0.07292029304848983
1772094425960761000,5.187760986328125,2.9330303046822546,-0.750217844126001,-0.09002285555144772
1772094425970711000,5.1977109375,3.656668988636136,-0.8448495999787002,-0.059769746973784635
1772094425980660000,5.207659912109375,4.174285918307304,-0.9271495513942092,0.06035716864003334
1772094425990610200,5.217610107421875,4.567640508493781,-0.9244739755094051,0.15605050300937146
1772094426000560000,5.22756005859375,4.769553658413887,-0.8448312606044113,0.26699610040644184
1772094426010509000,5.237509033203125,4.7384740450173615,-0.7754459550153464,0.41133736959006634
1772094426020459300,5.247459228515625,4.627963752031326,-0.7681440345041454,0.4783311769327149
1772094426030408200,5.257408203125,4.485987476679682,-0.7822533700078725,0.44821500174086537
1772094426040358100,5.267358154296875,4.16334600661993,-0.7669432073470205,0.4442750684760511
1772094426050308000,5.27730810546875,3.8238171146452427,-0.7548102134175598,0.40987785496413703
1772094426060257000,5.287257080078125,3.412062359893322,-0.7404132931441069,0.32787721528876573
1772094426070207200,5.297207275390625,2.797134226027131,-0.6623856122203171,0.28473765493268144
1772094426080157000,5.307156982421875,2.010806153926253,-0.5158322747441009,0.2321956763884984
1772094426090106000,5.317106201171875,1.4826561398029328,-0.04470375919919461,0.056113526021176946
1772094426100055800,5.327055908203125,0.9021060763567685,-0.1542936859373003,0.11171627124231308
1772094426110005000,5.3370048828125,0.07496902400553226,-0.7360513716075568,0.3978163919009268
1772094426119955000,5.346954833984375,-0.564466359129548,-0.7975795339554548,0.23063980698231606
1772094426129905000,5.35690478515625,-1.4067811068683862,-0.6713238286964595,-0.26837785535473374
1772094426139854000,5.36685400390625,-2.407023147806525,-0.4993767049077898,-0.7410663502253592
1772094426149803800,5.3768037109375,-3.2484441615760327,-0.2268582060843706,-1.0201951340340076
1772094426159753700,5.386753662109375,-3.7514153107792136,0.057273500578105443,-0.9771224466353654
1772094426169702700,5.39670263671875,-3.9558389822155235,0.1459319176422432,-0.6211168324384838
1772094426179652900,5.40665283203125,-4.187761485952139,-0.0373236223526299,-0.17675569311417638
1772094426189601800,5.416601806640625,-4.199778671482205,-0.1755542449025437,0.027933460857905445
1772094426199551700,5.4265517578125,-4.020425728416443,-0.03481408721711486,0.04750782030187547
1772094426209502000,5.436501953125,-3.744630180683732,0.24797769434479996,0.02275507183931768
1772094426219451000,5.446450927734375,-3.3545483285576103,0.4091841736115515,0.09928316185511649
1772094426229400800,5.45640087890625,-2.7759073136031627,0.37102972645796833,0.23684870809242128
1772094426239349800,5.466349853515625,-2.0756623647183177,0.2309758888025768,0.38561647021509704
1772094426249299700,5.4762998046875,-1.4453765027225016,0.05711858857760671,0.37421628407221286
1772094426259250000,5.48625,-0.7513976284950972,0.005095912066637538,0.2286694202248007
1772094426269198800,5.49619873046875,-0.11921908462047576,0.05152229837393388,0.08470533205680549
1772094426279148800,5.506148681640625,0.2701233473151922,0.044243813537247476,0.09807809691429138
1772094426289099000,5.51609912109375,0.5895020161867142,0.04133887674282305,0.24353249670527874
1772094426299048000,5.5260478515625,1.1249135457456112,0.0445092595404014,0.37230668759122487
1772094426308998000,5.535997802734375,1.6607810023784637,0.01604768315516412,0.512408182046935
1772094426318946800,5.54594677734375,2.2661136249035594,-0.038793037318065764,0.5276923334836959
1772094426328896800,5.555896728515625,2.902486697858572,-0.17563109126472845,0.42400998682156205
1772094426338847000,5.565846923828125,3.3582325700283047,-0.3809157086456194,0.37319348036311567
1772094426348796000,5.5757958984375,3.529408051857352,-0.5375064560115337,0.4108252188168466
1772094426358745900,5.585745849609375,3.436648519617319,-0.6114318161830306,0.396153609787859
1772094426368694800,5.59569482421875,3.340565395912528,-0.6401798448268323,0.29960473173484203
1772094426378645000,5.60564501953125,3.349232101970911,-0.6719812696918844,0.25370343331415207
1772094426388595000,5.615594970703125,3.4362481221228838,-0.6891244199335574,0.25619389842301604
1772094426398544000,5.6255439453125,3.525549622863531,-0.6936367827914655,0.23301278319135307
1772094426408493800,5.635493896484375,3.5243431696832177,-0.6842145821906626,0.180327669849433
1772094426418444000,5.645444091796875,3.398904772156477,-0.6403126043610274,0.19024967319853603
1772094426428393000,5.65539306640625,3.187802353608608,-0.5529034201730042,0.239113803480193
1772094426438343000,5.665343017578125,2.9892735854297876,-0.49108825757727026,0.19436441504098473
1772094426448291800,5.675291748046875,2.8902199214816093,-0.45351782085672016,0.08354235269203782
1772094426458242000,5.685241943359375,2.8463953928023575,-0.4775844136860221,-0.002100369812734425
1772094426468191700,5.695191650390625,2.868806546574831,-0.5756099401628598,-0.14241649339981377
1772094426478141000,5.705140869140625,2.9254104773283003,-0.5740129167623818,-0.21011676851138472
1772094426488091000,5.7150908203125,2.6830659482985735,-0.450527881793119,-0.17203538659401238
1772094426498040800,5.725040771484375,2.2296283530712127,-0.25525742129050194,-0.1589895521359518
1772094426507989800,5.73498974609375,1.7434218761861324,-0.01056426504170522,-0.08825732544995844
1772094426517939700,5.744939697265625,1.42702777608335,0.12205869196057319,0.0047755803713575
1772094426527889000,5.754888916015625,1.318396720972657,0.083743775281962,0.05081376651208847
1772094426537838800,5.7648388671875,1.2002338674068451,-0.08210302233761176,0.07823748774956911
1772094426547788800,5.774788818359375,0.7929512896329164,-0.22649717248594387,0.02357559444196522
1772094426557737700,5.78473779296875,0.10477964037954807,-0.21760334314079954,-0.10764286605725064
1772094426567687700,5.794687744140625,-0.8922995526134967,-0.0877976537826471,-0.22033901518238708
1772094426577636900,5.804636962890625,-2.0402572893381117,-0.0023661080768331883,-0.25835136871784925
1772094426587586800,5.8145869140625,-3.098153646865487,-0.04400048803435638,-0.3326785876885056
1772094426597536800,5.824536865234375,-4.428875011882186,-0.13095285009928048,-0.33915110817085947
1772094426607485700,5.834485595703125,-6.386121425056457,-0.08929894345737993,-0.3594620382610708
1772094426617436000,5.844435791015625,-8.757031641474367,0.20607231542617083,-0.44185456333085893
1772094426627385900,5.8543857421875,-10.889108551853894,0.6487186136566102,-0.5855096586149185
1772094426637334800,5.864334716796875,-12.509240732979773,1.1733214566923678,-0.8604034352023154
1772094426647285000,5.874284912109375,-13.34036773175001,1.4028101574108003,-1.1175595297209917
1772094426657234000,5.88423388671875,-13.07777594898343,1.1264143787626177,-1.3384189337819814
1772094426667183900,5.894183837890625,-11.939195112413167,0.5775591380018741,-1.4573817055538296
1772094426677133800,5.9041337890625,-10.501973859095573,-0.0012410130370408296,-1.4677289120450614
1772094426687082800,5.914082763671875,-9.07067907321751,-0.5984787380423396,-1.4201901851482688
1772094426697033000,5.924032958984375,-7.62630853266716,-1.176319761725515,-1.3219193421408533
1772094426706982000,5.93398193359375,-6.3934899079978464,-1.4529171273604033,-1.0337401867184788
1772094426716931800,5.943931884765625,-5.3381771372228854,-1.511882234287262,-0.4856651365499943
1772094426726882000,5.953882080078125,-4.477622383916378,-1.5655794838137924,0.13687003825381397
1772094426736831000,5.9638310546875,-3.807021462666988,-1.3880610626988112,0.4685619529925287
1772094426746781000,5.973781005859375,-3.1970746243447064,-0.9556131370734423,0.44613340969383714
1772094426756731000,5.98373095703125,-2.514403326073289,-0.5894491900209338,0.11693126594424247
1772094426766679800,5.9936796875,-1.781858282086253,-0.3359327671788633,-0.11904270514026284
1772094426776630000,6.003630126953125,-1.0658458552271126,-0.17707747241444885,-0.10200834903530775
1772094426786579000,6.013578857421875,-0.1566793389648199,-0.11735453285761177,0.043468408717960115
1772094426796529000,6.02352880859375,0.8067676335394381,-0.19717077769860625,0.15591865679062902
1772094426806479000,6.03347900390625,1.9952853441894054,-0.21510325168706476,0.023838848488032815
1772094426816428000,6.043427978515625,3.3762247383147477,0.029233474073186515,0.09670344756022095
1772094426826378000,6.0533779296875,4.575729706925154,0.20647695070430636,0.2949606322560459
1772094426836327700,6.06332763671875,5.688180661460757,0.24546068828888237,0.47210254820883274
1772094426846276900,6.07327685546875,6.600776567649841,0.2982874385911971,0.7231930590782314
1772094426856226800,6.083226806640625,7.25043465411365,0.38534978210292753,1.111325457637012
1772094426866176000,6.093176025390625,7.676425439488887,0.5094293854318559,1.3760459229953586
1772094426876125700,6.103125732421875,7.833320467031002,0.6099877548545599,1.424433667936921
1772094426886076000,6.113075927734375,7.7085636220276355,0.6295115166224539,1.3479784970268607
1772094426896024800,6.12302490234375,7.51770787269473,0.7266793668240308,1.1140094360239803
1772094426905974800,6.132974853515625,7.395055891016125,0.8936205720841884,0.8102876243591308
1772094426915924700,6.1429248046875,7.424983411768078,1.0320616590470075,0.6029189489794895
1772094426925873700,6.152873779296875,7.486719444712996,1.1309146858565509,0.531777374307625
1772094426935824000,6.162823974609375,7.492539529168606,1.1819510456107556,0.5501669444138184
1772094426945772800,6.172772705078125,7.508664734539389,1.1755891093634068,0.5946016043480485
1772094426955722800,6.18272265625,7.42460697967112,1.1445827073335646,0.5983427636377513
1772094426965673000,6.1926728515625,7.184146949213742,1.134951247896254,0.5769931016169488
1772094426975622000,6.202621826171875,6.773456024301051,1.1499294751890003,0.47189087821952996
1772094426985571800,6.21257177734375,6.279750716093182,1.1988099720835685,0.2942881946208887
1772094426995520800,6.222520751953125,5.753699135553837,1.2189407598339022,0.05425581499105319
1772094427005470700,6.232470703125,5.12761014072597,1.1508050889797508,-0.317816351458244
1772094427015421000,6.2424208984375,4.46676372077167,1.026646648260951,-0.6395817328032106
1772094427025369900,6.252369873046875,3.696824473413825,1.0176429653331638,-0.8056219706356524
1772094427035319800,6.26231982421875,2.775425667566061,1.1066060278996825,-0.8360512303646653
1772094427045270000,6.27227001953125,1.7735680081248282,1.19441524425596,-0.8504949854545295
1772094427055219000,6.282218994140625,0.9143588242083788,1.1787605790063738,-0.7541213543705642
1772094427065169000,6.2921689453125,0.37804713093936443,0.998179263189435,-0.6044692106287926
1772094427075117800,6.302117919921875,0.04700257419347763,0.7283993224844336,-0.43305966431554405
1772094427085068000,6.312068115234375,-0.3156786453098058,0.4672127303406596,-0.11732391852363944
1772094427095018500,6.3220185546875,-0.7867641254305839,0.16629092465788126,0.3187654323440045
1772094427104967400,6.331967529296875,-1.1717922012984752,-0.255317407849431,0.5666773131772875
1772094427114917400,6.34191748046875,-1.5984072560518978,-0.692557755383104,0.44159017677363005
1772094427124867300,6.351867431640625,-2.698648717355728,-1.2117303900636731,0.2508126985750161
1772094427134816500,6.36181640625,-4.27628966423273,-1.8939253029949963,0.34171606328804044
1772094427144766200,6.37176611328125,-5.355958293107152,-2.2995077988527712,0.5602123184142634
1772094427154715400,6.38171533203125,-5.974046936830878,-1.9865517103746533,0.45295514547266064
1772094427164665300,6.391665283203125,-6.594708061391115,-0.9615833705894649,-0.3276342368457466
1772094427174615300,6.401615234375,-7.154957095086574,0.3991027784496546,-1.2240868905507027
1772094427184564500,6.411564453125,-7.263743633019923,1.537332463494688,-1.673662111261487
1772094427194514200,6.42151416015625,-7.074440958347916,1.9314973471507428,-1.432058902118355
1772094427204464400,6.43146435546875,-6.563845305615663,1.6598608187936246,-0.7607173185694962
1772094427214413300,6.441413330078125,-5.716176337367296,0.953745370440185,-0.11250804267451167
1772094427224363300,6.45136328125,-4.669636071112752,0.2303221558678895,0.16950458947476
1772094427234312200,6.461312255859375,-3.5462598179370164,-0.23146116983518003,0.378193590205349
1772094427244262100,6.47126220703125,-2.3673019627928733,-0.46754101244695484,0.5196289270807057
1772094427254212400,6.48121240234375,-1.1247732604920864,-0.6233903303284197,0.6806404500309378
1772094427264161300,6.491161376953125,0.009485036703944206,-0.7029600530624389,0.8790282023038715
1772094427274111200,6.501111328125,0.7911293349027633,-0.6531848723504692,1.0781249065637588
1772094427284060200,6.51106005859375,1.3286001350790262,-0.5299694115702063,1.1798532696139066
1772094427294010400,6.52101025390625,1.9515204367429018,-0.3721955553669482,1.0338079181924462
1772094427303960300,6.530960205078125,2.5119828209280968,-0.26690212024636567,0.8126993616759777
1772094427313909200,6.5409091796875,3.0465520544439553,-0.30008477033674713,0.5191867362711579
1772094427323859200,6.550859130859375,3.585046936970949,-0.46013870030120013,0.2287767530567944
1772094427333809400,6.560809326171875,4.05278836736083,-0.6510575779981911,0.04481104636541568
1772094427343758300,6.57075830078125,4.385575383859873,-0.7730714079037309,-0.153428538741637
1772094427353708300,6.580708251953125,4.5621518479496235,-0.8299135313272475,-0.30374764022585005
1772094427363657200,6.5906572265625,4.655794008243084,-0.8582483760602772,-0.3680179774213582
1772094427373607400,6.600607421875,4.697402614438533,-0.8009574128907173,-0.29365088309803977
1772094427383557400,6.610557373046875,4.463741158080101,-0.678790876641497,-0.1397080838244874
1772094427393506300,6.62050634765625,3.8506343944221735,-0.5623379687987268,-0.032964002371020616
1772094427403456300,6.630456298828125,3.059613196069002,-0.45605742233693597,-0.09072560612647794
1772094427413406500,6.640406494140625,2.302399574771523,-0.2588583683919161,-0.1872180321513675
1772094427423355400,6.65035546875,1.6039052689462898,-0.07410707341395319,-0.28032376574687656
1772094427433305300,6.660305419921875,1.0641606786191462,0.0026949381723999975,-0.45361474189255385
1772094427443254300,6.670254150390625,0.7108586973577737,-0.06273746507242321,-0.6971659798309207
1772094427453204500,6.68020458984375,0.3145581168472767,-0.20921507043130694,-0.8234589483603835
1772094427463154400,6.690154541015625,-0.3207657393157482,-0.308083587070927,-0.8166652696322649
1772094427473103400,6.700103271484375,-1.2040642393499612,-0.3173444596301764,-0.6924912660181523
1772094427483053600,6.710053466796875,-2.0242092408567665,-0.25278993519842624,-0.5331354013204574
1772094427493003300,6.720003173828125,-2.7653701374977824,-0.06427037372812629,-0.38592820304539055
1772094427502952400,6.729952392578125,-3.585440320202708,0.22062515691369772,-0.3341105932530016
1772094427512902100,6.739902099609375,-4.2276024979531766,0.4087541116312146,-0.4234419046100229
1772094427522851300,6.749851318359375,-4.57620375417769,0.5115832755301147,-0.5494786333560944
1772094427532801300,6.75980126953125,-4.795234627637267,0.5645569600224495,-0.6575566576939076
1772094427542751200,6.769751220703125,-4.792682020545006,0.542936299040541,-0.7539404448457062
1772094427552700200,6.7797001953125,-4.495636764034629,0.4463613001655787,-0.7730762302093207
1772094427562650400,6.789650390625,-3.896235869646072,0.3059713441573083,-0.7484966463565826
1772094427572599300,6.799599365234375,-3.087735713225603,0.13701375757344067,-0.6500470857813954
1772094427582549200,6.80954931640625,-2.1330437095850705,-0.07035137414224446,-0.5603184456698597
1772094427592499200,6.819499267578125,-1.0966150875002145,-0.20359313889630137,-0.5180068057715892
1772094427602448100,6.8294482421875,-0.156682846096158,-0.25564956241324543,-0.44420733700208365
1772094427612398300,6.8393984375,0.6159212365567683,-0.267047447001189,-0.23683241454474627
1772094427622348300,6.849348388671875,1.217642098325491,-0.2089326732933521,0.03456380225047469
1772094427632297200,6.859297119140625,1.704518437296152,-0.13778043109700083,0.25837489572390915
1772094427642247400,6.869247314453125,2.1174071645140646,-0.10911693893149495,0.45011583039350805
1772094427652196400,6.8791962890625,2.4899726491719485,-0.1704815082155168,0.547314514124766
1772094427662146300,6.889146240234375,2.772728683567047,-0.2596841516915709,0.5866987588016316
1772094427672096300,6.89909619140625,3.0452947478592396,-0.29244660360850394,0.5852788090011105
1772094427682045200,6.909045166015625,3.2378198917090892,-0.3041147565051913,0.6630257367547601
1772094427691995400,6.918995361328125,3.365363737082481,-0.3414876248270273,0.7864579090256244
1772094427701945300,6.9289453125,3.4583670149505137,-0.36618338240534065,0.9204976922895759
1772094427711894300,6.938894287109375,3.489813708093762,-0.34929924842603505,0.9845563229631632
1772094427721844500,6.948844482421875,3.417582584619522,-0.2894238947864622,0.9241131793729961
1772094427731793400,6.95879345703125,3.290527399545908,-0.1729185991693288,0.7730204083688557
1772094427741743400,6.968743408203125,3.164210465618968,-0.052897623581439256,0.6806593739271164
1772094427751693300,6.978693359375,3.043494420439005,0.010685352404415607,0.6647797408152372
1772094427761642200,6.988642333984375,2.9577029736459255,-0.026746991019695996,0.6290354966085404
1772094427771592400,6.998592529296875,2.903250667968392,-0.07929587422870099,0.5930562015369534
1772094427781541400,7.008541259765625,2.8138918840825555,-0.12515972671583295,0.5542821611803025
1772094427791491300,7.0184912109375,2.7449603866755963,-0.13520575830340384,0.4407333772812038
1772094427801441500,7.028441650390625,2.7265339186251163,-0.13516206529214977,0.3152984138205647
1772094427811390500,7.038390380859375,2.7541747897446154,-0.12676233960688113,0.20758461968526243
1772094427821340400,7.04834033203125,2.6852713493883607,-0.11657076206877827,0.12689298024922607
1772094427831290400,7.058290283203125,2.43536193806231,-0.13301029408574103,0.08365209667682648
1772094427841239300,7.0682392578125,1.9626000491619109,-0.17283150540776548,0.03442804704159498
1772094427851189200,7.078189208984375,1.4771557888209819,-0.1387443807583302,0.02094941065683961
1772094427861139200,7.08813916015625,1.0353326435416936,-0.028333091167360543,0.058436918334290384
1772094427871088400,7.09808837890625,0.6650543930381536,0.05760616659857332,0.05388093553036451
1772094427881038300,7.108038330078125,0.464108626845479,0.13257372929938135,-0.04815568975135684
1772094427890987500,7.117987548828125,0.31126959669589993,0.22054032817445693,-0.2004075676627457
1772094427900937200,7.127937255859375,-0.029095161581039426,0.2878665823418647,-0.2551545454379171
1772094427910887200,7.13788720703125,-0.4633107544660568,0.33703641757182773,-0.2766292586104944
1772094427920836000,7.147836181640625,-0.8843710977017879,0.4601232104711234,-0.2534477415200323
1772094427930786300,7.157786376953125,-1.2842255713015793,0.3999083226788789,-0.1293910076100379
1772094427940735200,7.1677353515625,-1.8340648546636102,0.10322634652294219,-0.12118749861661345
1772094427950685200,7.177685302734375,-2.571341603347659,-0.10547302947118878,-0.32899745149035003
1772094427960635400,7.187635498046875,-3.8156530974119898,-0.2577257841654122,-0.448221102688089
1772094427970584300,7.197584228515625,-5.599983907091617,-0.4341073102049529,-0.23193499789200722
1772094427980534300,7.2075341796875,-7.682074843552708,-0.5544393975686281,0.017221622305363414
1772094427990484200,7.217484130859375,-9.895285730308293,-0.20055289441756902,-0.1912682025913149
1772094428000433400,7.227433349609375,-11.398452743220329,0.04255282824300229,-0.6572204845421016
1772094428010383400,7.23738330078125,-11.993774259340762,0.014811930815130471,-1.1653870104312896
1772094428020332300,7.247332275390625,-11.697906814438104,-0.11703297275304794,-1.638659771463275
1772094428030282200,7.2572822265625,-10.644953758531809,-0.2386849836088717,-1.9850920130856333
1772094428040232400,7.267232421875,-9.175503137260675,-0.6796735777601599,-1.8235428761273622
1772094428050181400,7.277181396484375,-7.889489513498544,-1.4731087053872645,-1.127081683564931
1772094428060131300,7.28713134765625,-6.961082290193438,-1.998112238178402,-0.4683719833783805
1772094428070080300,7.297080322265625,-6.248081320109963,-2.269893143442273,-0.042202334304898975
1772094428080030500,7.307030517578125,-5.734999695780873,-2.4015270346082747,0.17213380546718834
1772094428089980400,7.31698046875,-5.57233894431889,-2.2509958430096506,0.06204889828637242
1772094428099930400,7.326930419921875,-5.956390868631005,-1.8591817602634428,-0.20065102102980018
1772094428109880300,7.33688037109375,-6.2537441681772465,-1.4271142853230236,-0.2343760343685746
1772094428119830000,7.346830078125,-5.800294882512092,-0.9107488900829106,-0.25999460588023066
1772094428129779200,7.356779296875,-4.749584052574634,-0.31898769679255784,-0.42788185981884597
1772094428139729200,7.366729248046875,-3.035439124277234,0.051258989528939126,-0.542924827798456
1772094428149678300,7.37667822265625,-0.9718950673758983,0.174611666822806,-0.6084985392101109
1772094428159628000,7.3866279296875,1.12883218049407,0.2843699723977595,-0.6656567428454756
1772094428169578200,7.396578125,3.084020492094755,0.36041553959362205,-0.6026426527887583
1772094428179527200,7.406527099609375,4.665359124445915,0.3032599663067609,-0.3945644043676555
1772094428189477000,7.41647705078125,5.869582353749871,0.20773016563579438,-0.1289366149060428
1772094428199427000,7.426427001953125,6.724008979564905,0.18155461782850324,0.24359043743759393
1772094428209376000,7.4363759765625,7.242177697899937,0.203623168708384,0.683860508055985
1772094428219326200,7.446326171875,7.363343824934959,0.218265807371214,1.077825923617184
1772094428229275100,7.456275146484375,7.256965517187118,0.21792371593527496,1.4469529582589864
1772094428239225000,7.46622509765625,7.289052261799574,0.1786927255913615,1.6827807988710701
1772094428249175300,7.47617529296875,7.37837363628447,0.27221220935322343,1.5307380336657166
1772094428259124200,7.486124267578125,7.490650938943028,0.40355084389969703,1.3292545073345303
1772094428269074200,7.49607421875,7.660813444337248,0.37696255057305095,1.234852176323533
1772094428279023000,7.506023193359375,7.785376812595128,0.23309352027736602,1.157769521164894
1772094428288973000,7.51597314453125,7.829919134154915,0.06055398355349898,1.100412580087036
1772094428298923300,7.52592333984375,7.821147798678278,-0.08646832314133644,1.02541527983509
1772094428308872200,7.5358720703125,7.841162412703037,-0.14898030889481306,0.9137274675022811
1772094428318822100,7.545822265625,7.914875883689522,-0.14117548036277294,0.8493057026047259
1772094428328772400,7.5557724609375,7.861689067903161,-0.007542962725460529,0.8572211519043892
1772094428338721300,7.56572119140625,7.572612598314881,0.23574461930803953,0.8735519628498702
1772094428348671200,7.575671142578125,7.132717206227779,0.4181878565393388,0.7213141134638339
1772094428358620200,7.5856201171875,6.541590803709626,0.5120744931131601,0.5144609498582781
1772094428368570000,7.595570068359375,6.019058044946194,0.4885105891089886,0.2461928019557148
1772094428378520300,7.605520263671875,5.509361971402168,0.49807957776933903,-0.08982227321173995
1772094428388469200,7.61546923828125,4.576917455404996,0.6005271950047463,-0.30459702359680085
1772094428398419200,7.625419189453125,3.351811597070098,0.6920464448601007,-0.3301048282103613
1772094428408369400,7.635369384765625,2.1043232265353202,0.8012631909042597,-0.24793065859898925
1772094428418318300,7.645318359375,1.078288572692871,0.8924738862670958,-0.2699322817225009
1772094428428268300,7.655268310546875,0.3257207313746214,0.8806168597348034,-0.40211547733433545
1772094428438217200,7.66521728515625,-0.39712592541873454,0.6963678151905536,-0.37012002773452546
1772094428448167200,7.675167236328125,-1.2364338925570248,0.33687574711740015,-0.21737181767355648
1772094428458117000,7.6851171875,-2.0516747554093597,0.013596125284582376,-0.10471055719871074
1772094428468066300,7.69506640625,-2.948654574793577,-0.03584595101550221,-0.12691767629906534
1772094428478016300,7.705016357421875,-3.73721025981605,0.10037950572445987,-0.28905666890926657
1772094428487966200,7.71496630859375,-4.107920471996069,0.21512612110599874,-0.4068925190104171
1772094428497915400,7.724915283203125,-4.116708758607507,0.17665157515257596,-0.7138181316852569
1772094428507865000,7.734864990234375,-4.040459631663561,-0.11812179090306162,-1.0363054340966045
1772094428517814300,7.744814208984375,-4.380696964168548,-0.5762199252873659,-0.943960620137304
1772094428527764200,7.75476416015625,-5.104920754534006,-0.9637658291950821,-0.4677680261358618
1772094428537714200,7.764714111328125,-5.91339402294755,-0.7769235532872378,-0.3128049895696342
1772094428547663000,7.7746630859375,-6.800020790621638,0.065002925786376,-0.610808496652916
1772094428557613000,7.784613037109375,-7.560561510515212,0.873506443207711,-0.9371429760117084
1772094428567562000,7.79456201171875,-7.612471730494499,1.766280189204216,-1.4373279285624623
1772094428577512200,7.80451220703125,-7.02685795391798,2.354010227282345,-1.5346299265377223
1772094428587462100,7.814462158203125,-6.22775983209312,2.1162617938712236,-1.1560933315809816
1772094428597411000,7.8244111328125,-5.340549711573123,1.2771794521823525,-0.7240727645222097
1772094428607361300,7.834361328125,-4.550480114856362,0.5460387220352888,-0.5689103329263627
1772094428617311200,7.844311279296875,-3.7884845199793573,0.038245924829319114,-0.5217934847034513
1772094428627260200,7.85426025390625,-2.9192624760925767,-0.13260543961189686,-0.37989568141549823
1772094428637210000,7.864210205078125,-1.917034229773283,-0.028038492134958504,-0.15092245593853293
1772094428647159000,7.874158935546875,-0.8574906895607709,0.09983641182370483,0.15493600242882966
1772094428657109200,7.884109130859375,0.04876373864710331,0.19930413646548986,0.5333498477887362
1772094428667059200,7.89405908203125,0.9218623317062854,0.26873554621860385,0.8317321250565349
1772094428677008100,7.904008056640625,1.674443617027998,0.2481572704290971,0.969448185680434
1772094428686958300,7.913958251953125,2.3159733420938253,0.09985387441515922,0.9514882391631603
1772094428696908300,7.923908203125,2.959281182748079,-0.06600242168512195,0.9162415692150593
1772094428706857200,7.933857177734375,3.5081723716050384,-0.24239622268434613,0.8538188691802322
1772094428716807200,7.94380712890625,3.788709560906887,-0.49006406562868504,0.7944928199864923
1772094428726756000,7.953756103515625,3.826201379433274,-0.6968139515228569,0.7374290897015482
1772094428736706300,7.963706298828125,3.7863229580312967,-0.7057502683028578,0.7723648670695722
1772094428746656300,7.97365625,3.817511877021193,-0.6282193579200654,0.8226698438093065
1772094428756605200,7.983605224609375,3.8445968678236007,-0.5988362097105011,0.8601271755442023
1772094428766555400,7.993555419921875,3.696728611823916,-0.5463020491465926,0.8749019892193377
1772094428776504300,8.00350439453125,3.473867950943112,-0.48657742908932267,0.8101807299185544
1772094428786454300,8.013454345703124,3.3501667524725196,-0.39797596637681126,0.6234853882007301
1772094428796404200,8.023404296875,3.263132027620077,-0.3100345750082284,0.49011890108846123
1772094428806353200,8.033353271484375,3.1183523852854966,-0.2167352368030697,0.44992060008235274
1772094428816303400,8.043303466796875,2.8259400492727753,-0.23501564744636416,0.470853607593663
1772094428826253000,8.053253173828125,2.430207624039054,-0.18299115343764424,0.45082580529376864
1772094428836202200,8.0632021484375,2.0281185232549905,0.02064955092743039,0.4738293720014393
1772094428846152200,8.073152099609375,1.7994202422618866,0.11124627911038697,0.5302098692625761
1772094428856101400,8.083101318359375,1.486997383877635,-0.013374299227446316,0.619734438169375
1772094428866051000,8.093051025390626,0.9070219054490327,-0.2604093972261995,0.6784989079575985
1772094428876001000,8.1030009765625,0.016354922473430632,-0.2009664436545223,0.4976870713204145
1772094428885950200,8.1129501953125,-0.9359609996855258,0.139220839163661,0.014135054466873407
1772094428895900200,8.122900146484374,-1.6986650350928305,0.28865619834959505,-0.26849209285154935
1772094428905850000,8.13285009765625,-2.3027006035447117,0.07919993957355619,-0.26918884294405576
1772094428915799000,8.142799072265625,-2.780964596992731,-0.00681070292815566,-0.35424459587372836
1772094428925749200,8.152749267578125,-2.937265165773034,-0.2140808498367667,-0.3602990005418658
1772094428935698200,8.1626982421875,-2.902014404171705,-0.49752325906082984,-0.3365173621337861
1772094428945648000,8.172648193359375,-3.0274580623954535,-0.6223758195236325,-0.4174924946863204
1772094428955598000,8.18259814453125,-3.114539548999071,-0.7623851787164807,-0.5801658133689314
1772094428965547000,8.192547119140626,-2.953995935821533,-0.9396556164197624,-0.7196200959622859
1772094428975497200,8.202497314453124,-2.71462837677598,-0.9549163139156996,-0.9202500011388212
1772094428985446100,8.212446044921874,-2.532969494855404,-0.7958879276067018,-0.972658452963829
1772094428995396000,8.22239599609375,-2.533847446733713,-0.6999198085837066,-0.8113088571656495
1772094429005346300,8.23234619140625,-2.492267482110858,-0.5267918775126338,-0.6744561353728175
1772094429015295200,8.242295166015625,-2.1047253775954244,-0.2944305439673364,-0.5066326673854142
1772094429025245200,8.2522451171875,-1.574883757123351,-0.10666340829953551,-0.30935236489772794
1772094429035195100,8.262195068359375,-1.0972679984509943,-0.02385682253614068,-0.026330592238530515
1772094429045144300,8.272144287109375,-0.5332248331695795,-0.011436755293607711,0.24739194861240685
1772094429055094300,8.28209423828125,-0.04922200380861759,0.06463482312634587,0.39006731214411555
1772094429065043200,8.292043212890626,0.25360885036587716,0.22275135528743265,0.4406707603737712
1772094429074993200,8.3019931640625,0.6103349608570336,0.3272724908612668,0.4412237180814147
1772094429084943400,8.311943359375,1.0770990706473589,0.29593714913800356,0.4252851943891495
1772094429094892300,8.321892333984374,1.562576648736,0.2053486773267388,0.34019166673235596
1772094429104841200,8.33184130859375,2.126995077070594,0.17189093662202357,0.23156397262252865
1772094429114791200,8.341791259765625,2.726315891960263,0.11196399892568587,0.1590638229485601
1772094429124740000,8.351739990234375,3.231546218267083,0.023490035050362346,0.14134148457944393
1772094429134690300,8.361690185546875,3.6434798367172476,0.00923237711712718,0.15068090226761996
1772094429144639200,8.37163916015625,3.9244378817796703,0.05607318487763405,0.22930384567081927
1772094429154589200,8.381589111328125,4.017498442792892,0.1024285472087562,0.2934326920364052
1772094429164539100,8.3915390625,3.9800539705395694,0.1206869652159512,0.29106742420978843
1772094429174488300,8.40148828125,3.921247561305761,0.14280673482641576,0.25911139330491423
1772094429184438300,8.411438232421874,3.937564489856362,0.11260770365670322,0.187029322912544
1772094429194388200,8.42138818359375,3.998043800738454,0.0013813713558018207,0.14329181492961943
1772094429204337200,8.431337158203124,3.9931840857475995,-0.09929843248948454,0.14062398395985365
1772094429214287400,8.441287353515625,3.7949931712210176,-0.15990370783880353,0.1712335686918348
1772094429224236300,8.451236328125,3.439024601098895,-0.16177856179997324,0.1274331515405327
1772094429234186200,8.461186279296875,3.076870035818219,-0.11215499145314096,0.04749678745120763
1772094429244136200,8.47113623046875,2.6857494882941246,-0.032874680119752885,0.009751797881349921
1772094429254085400,8.48108544921875,2.2662089019715785,0.07475567351579665,0.013757087999954818
1772094429264035300,8.491035400390626,1.845999622607231,0.26134952762052416,0.01818593729287386
1772094429273984300,8.500984375,1.4518255327314138,0.4765709257945418,0.02290595155209303
1772094429283934200,8.510934326171874,1.0580705450505017,0.5349455194823444,-0.06421082556061446
1772094429293884200,8.52088427734375,0.828241798722744,0.3916888489313423,-0.2299493770327419
1772094429303833300,8.530833251953124,0.6101970136910677,0.046356823635846374,-0.30825726313740015
1772094429313783300,8.540783203125,0.2700684022575617,-0.4325253017105162,-0.3260172301031649
1772094429323733000,8.55073291015625,-0.2580868725627661,-0.849086726091802,-0.30167795781232415
1772094429333682200,8.56068212890625,-0.9233820886194706,-1.1224692213334142,-0.34164332684539256
1772094429343632100,8.570632080078125,-1.6638900743097065,-1.2893924525454639,-0.4096426945013925
1772094429353581300,8.580581298828125,-2.587225401178002,-1.4057627236060797,-0.3840017284948379
1772094429363531000,8.590531005859376,-3.9737037247300147,-1.4650418649181722,-0.3798486274033785
1772094429373481200,8.600481201171876,-5.739730815955996,-1.3698821396686136,-0.43068193886615336
1772094429383430100,8.61043017578125,-7.655044797807931,-1.1405689416475593,-0.5082059811167419
1772094429393380000,8.620380126953124,-9.639737436312437,-0.97272187358886,-0.5227141797449439
1772094429403329000,8.6303291015625,-11.1792944439888,-0.8090269567735493,-0.6086150782618671
1772094429413279200,8.640279296875,-11.73338378601074,-0.5483414460197091,-0.9180687846422195
1772094429423229200,8.650229248046875,-11.566597479051351,-0.5633876239821315,-1.0864566815793513
1772094429433178000,8.66017822265625,-10.97145950280428,-0.9607980654306709,-1.0233873542040586
1772094429443128000,8.670128173828125,-10.068916788595914,-1.3799762481816111,-1.0608632445089519
1772094429453078300,8.680078369140626,-8.89691649750471,-1.5035362846158444,-1.152996169283241
1772094429463027200,8.690027099609376,-7.69007285656929,-1.4638501709155738,-0.9679444300539791
1772094429472977200,8.69997705078125,-6.691386812901497,-1.3739165097512305,-0.42347967933714387
1772094429482926000,8.709926025390626,-5.841793598592281,-1.3234319386608897,0.19714198999553917
1772094429492876300,8.719876220703124,-4.56357632779479,-1.1975061960086226,0.3558522502660751
1772094429502826200,8.729826171875,-2.72988381357491,-0.7812374709635973,-0.08720569750517607
1772094429512775200,8.739775146484375,-1.5129700295239685,-0.15413564583137632,-0.5651496652185917
1772094429522725000,8.74972509765625,-0.6848410435259342,0.37326749544739724,-0.6199722655132412
1772094429532674300,8.75967431640625,0.19112579844594,0.7529507031559943,-0.46517494090273975
1772094429542624300,8.769624267578125,1.163060613310337,1.0301562638171016,-0.22295462277457118
1772094429552574200,8.77957421875,2.229859239217639,1.2983711471624673,-0.03700798053219914
1772094429562523100,8.789523193359376,3.364576970618963,1.4166931368127464,0.26820962264835835
1772094429572473300,8.799473388671874,4.457479759597778,1.3977356306254862,0.6430297543652356
1772094429582423300,8.80942333984375,5.189958752611279,1.3268354634940625,1.0174567951112985
1772094429592372200,8.819372314453124,5.585715727764367,1.1844682891286908,1.4462208445921538
1772094429602322200,8.829322265625,5.940994562056661,1.0801634266540407,1.8106974230796098
1772094429612271400,8.839271240234375,6.09478285575509,1.1652195449098943,1.9230526132799683
1772094429622221300,8.84922119140625,6.043199383512139,1.374981362503767,1.7528985834531485
1772094429632171300,8.859171142578125,6.064759473413229,1.3874480453670024,1.6459934753522276
1772094429642120200,8.8691201171875,6.219512812751531,1.345346102696657,1.4146224680185318
1772094429652070400,8.8790703125,6.3961360385924575,1.320804366636276,1.062029584874585
1772094429662020000,8.88902001953125,6.545614067876339,1.317558954974264,0.6209303699556737
1772094429671969300,8.89896923828125,6.631026744484901,1.296219229825586,0.22974786311127243
1772094429681919000,8.9089189453125,6.7112541274100534,1.196063595984876,0.01118358425013721
1772094429691868400,8.918868408203124,6.724181998044252,1.1258185317613183,-0.06342676251083612
1772094429701818000,8.928818115234375,6.553898496618866,1.0839496671944857,-0.053707186398655175
1772094429711768000,8.93876806640625,6.35545565315783,1.0805994799837468,-0.14813085245862603
1772094429721717000,8.948717041015625,5.976349368554353,1.1859160037189722,-0.36920514137931165
1772094429731667200,8.958667236328125,5.432189299872517,1.3030170732721686,-0.6179132140915841
1772094429741616000,8.9686162109375,5.029627905401587,1.3243378014594316,-0.7640632679965347
1772094429751566000,8.978566162109376,4.534468306732178,1.2796174929842352,-0.7426454361103475
1772094429761516000,8.98851611328125,3.792808228397369,1.3070830075368285,-0.673492843298614
1772094429771465200,8.99846533203125,3.008442396280169,1.2784516640752552,-0.7016950746279209
1772094429781415200,9.008415283203124,2.0339614040642977,1.0008002593427896,-0.8794985232293605
1772094429791365000,9.018365234375,0.9304378523498773,0.7452166017726063,-1.1791909332476556
1772094429801314000,9.02831396484375,0.08218377768993378,0.7632979096472263,-1.3080080134272574
1772094429811264300,9.03826416015625,-0.5056541046768427,0.8130950829952954,-1.1828194990083574
1772094429821214200,9.048214111328125,-0.7715881836086511,0.6750158150821923,-0.8788611021086573
1772094429831163100,9.0581630859375,-0.8656646436661481,0.3551420561701059,-0.33549656771868464
1772094429841113000,9.068113037109375,-0.9068857118487358,-0.14934709638059138,0.2635872600773349
1772094429851062300,9.078062255859376,-0.8288321658313273,-0.7019619819357991,0.7032056983865798
1772094429861012200,9.08801220703125,-0.6788824273824692,-1.1077750716790555,0.7165059094645082
1772094429870962200,9.097962158203124,-0.8916232607871294,-1.5777143043741584,0.2868666845843196
1772094429880911000,9.1079111328125,-1.8817261850267648,-2.00080644569844,-0.31081469253525135
1772094429890861300,9.117861328125,-3.9214182416975496,-2.130909620165825,-0.4695613392934203
1772094429900810200,9.127810302734375,-6.195514682048559,-2.157597136083245,-0.14477847329080104
1772094429910760200,9.13776025390625,-7.455321266886592,-1.2664186964541673,-0.7281696053817868
1772094429920710100,9.147710205078125,-7.965949652844667,-0.04654606259763241,-1.7973755846917627
1772094429930659300,9.157659423828125,-7.837319765800237,0.8064785874649882,-2.3436152361266314
1772094429940609300,9.167609375,-6.887738821563124,1.0331582221120594,-2.0568867909692226
1772094429950559200,9.177559326171876,-5.493212216112017,0.8252173363350331,-1.3706442100822924
1772094429960508200,9.187508056640626,-3.979827760568261,0.4837861178703606,-0.7676314088068902
1772094429970458400,9.197458251953124,-2.6768776150524616,-0.34523251044377684,-0.11560410899370908
1772094429980407300,9.2074072265625,-1.3386013046115637,-1.0998096457578241,0.353870173070766
1772094429990357200,9.217357177734375,-0.1840975072443485,-1.433038999196887,0.7834785278886556
1772094430000307200,9.22730712890625,0.3299666983813047,-1.4697025502055883,1.2913554231815039
1772094430010256400,9.23725634765625,0.41754561311304567,-1.0243106065288186,2.054667507484555
1772094430020206300,9.247206298828125,-0.426702148514986,-0.7613881305031478,2.4977380224764345
1772094430030156000,9.257156005859375,-0.4132353486984968,-0.6957426690295339,1.923292997907102
1772094430040105200,9.267105224609375,0.16411095027029513,-0.36507439825013277,1.1146625661704688
1772094430050055200,9.27705517578125,0.14116671253442764,-0.5223306603200734,0.6749823512040078
1772094430060004400,9.28700439453125,0.4891431148588657,-1.0375056036666035,0.1549418111151084
1772094430069954000,9.2969541015625,1.0662000754922627,-1.2926025006331503,-0.18018349387208
1772094430079904300,9.306904296875,1.6289362498283386,-1.3756548778511584,-0.492792613809742
1772094430089853200,9.316853271484375,2.2190181117296217,-1.4863875814162193,-0.6513316456992179
1772094430099803000,9.326802978515625,2.695209975078702,-1.5026022186361252,-0.6413087027262896
1772094430109752000,9.336751953125,2.991975245603919,-1.2926006009370088,-0.5161490490756928
