time,seconds_elapsed,z,y,x
1772094420886466800,0.113466796875,-0.11433398723602295,-0.00811261311173439,-0.02230394072830677
1772094420896415700,0.123415771484375,-0.11008943617343903,-0.058572858572006226,-0.0341012142598629
1772094420906365700,0.13336572265625,-0.11233049631118774,-0.12866006791591644,-0.03225910663604736
1772094420916316000,0.14331591796875,-0.1185939610004425,-0.16653980314731598,-0.009472956880927086
1772094420926264800,0.153264892578125,-0.10328424721956253,-0.14619244635105133,0.017440149560570717
1772094420936214800,0.16321484375,-0.07816749811172485,-0.08237844705581665,0.02465447038412094
1772094420946163700,0.173163818359375,-0.0438031367957592,-0.037254370748996735,0.01204679999500513
1772094420956114000,0.183114013671875,0.003304081968963146,-0.02138897404074669,-0.025522466748952866
1772094420966062800,0.193062744140625,0.05233314633369446,-0.01559127401560545,-0.07947757840156555
1772094420976012800,0.2030126953125,0.07618886232376099,-0.016874192282557487,-0.14805248379707336
1772094420985962800,0.212962646484375,0.09912507236003876,-0.02284047193825245,-0.20025044679641724
1772094420995911700,0.22291162109375,0.12775403261184692,-0.011373542249202728,-0.21393179893493652
1772094421005861600,0.232861572265625,0.16215887665748596,0.02296285890042782,-0.17208129167556763
1772094421015810800,0.242810791015625,0.16940350830554962,0.10797783732414246,-0.1037202775478363
1772094421025760800,0.2527607421875,0.14114896953105927,0.20221006870269775,-0.03588423505425453
1772094421035710700,0.262710693359375,0.07649807631969452,0.22619113326072693,-0.027734939008951187
1772094421045660000,0.272659912109375,-0.0004773952532559633,0.12696361541748047,-0.08328022062778473
1772094421055609600,0.282609619140625,-0.07555185258388519,-0.020106930285692215,-0.15101860463619232
1772094421065558800,0.292558837890625,-0.1358117312192917,-0.13753102719783783,-0.19298815727233887
1772094421075508500,0.302508544921875,-0.17581303417682648,-0.2282470017671585,-0.1821025013923645
1772094421085458000,0.3124580078125,-0.209753155708313,-0.2754318416118622,-0.07973404973745346
1772094421095404000,0.322404052734375,-0.25697535276412964,-0.26349589228630066,0.12111692875623703
1772094421105354000,0.33235400390625,-0.31518885493278503,-0.20596253871917725,0.351109117269516
1772094421115303000,0.342302978515625,-0.36084815859794617,-0.16703177988529205,0.5042928457260132
1772094421125252900,0.3522529296875,-0.3659225404262543,-0.11972418427467346,0.5208398699760437
1772094421135202000,0.3622021484375,-0.3278578221797943,0.009415973909199238,0.37399402260780334
1772094421145152000,0.372152099609375,-0.2493390142917633,0.2536875009536743,0.07304137945175171
1772094421155102000,0.38210205078125,-0.12620995938777924,0.5034537315368652,-0.2754760682582855
1772094421165051000,0.39205078125,-0.00790675450116396,0.7228561043739319,-0.6243845224380493
1772094421175001000,0.4020009765625,0.08113549649715424,0.9116758704185486,-0.9302459359169006
1772094421184950000,0.411949951171875,0.14468783140182495,0.9898335337638855,-1.1828738451004028
1772094421194900000,0.42189990234375,0.20883777737617493,0.9088993668556213,-1.3607001304626465
1772094421204850000,0.431849853515625,0.2920898199081421,0.6590602397918701,-1.4479961395263672
1772094421214799000,0.441799072265625,0.3928864598274231,0.23995515704154968,-1.4132485389709473
1772094421224749000,0.4517490234375,0.5074923634529114,-0.25641676783561707,-1.2185863256454468
1772094421234698000,0.461697998046875,0.5860295295715332,-0.7296770811080933,-0.8737280368804932
1772094421244648000,0.47164794921875,0.6171261668205261,-0.9407874345779419,-0.42147931456565857
1772094421254597000,0.48159716796875,0.5757293701171875,-0.8750907182693481,0.18033374845981598
1772094421264547000,0.491547119140625,0.45274224877357483,-0.6138224005699158,0.7912030220031738
1772094421274497000,0.5014970703125,0.26782745122909546,-0.18940229713916779,1.2702643871307373
1772094421284446000,0.511446044921875,0.08595378696918488,0.156274676322937,1.4925628900527954
1772094421294396200,0.521396240234375,0.003623358439654112,0.3278037905693054,1.4243217706680298
1772094421304345000,0.531344970703125,0.0056260558776557446,0.48977193236351013,1.1197352409362793
1772094421314295000,0.541294921875,0.0020533623173832893,0.6415936350822449,0.655577540397644
1772094421324245000,0.551244873046875,-0.010262159630656242,0.6658313274383545,0.1790386587381363
1772094421334194200,0.561194091796875,-0.07456930726766586,0.5383300185203552,-0.20294569432735443
1772094421344144100,0.57114404296875,-0.18912145495414734,0.21747927367687225,-0.39503684639930725
1772094421354093000,0.581093017578125,-0.28049322962760925,-0.19576551020145416,-0.31589803099632263
1772094421364043000,0.59104296875,-0.3344113230705261,-0.5029963254928589,-0.0023033414036035538
1772094421373992000,0.600991943359375,-0.3453598916530609,-0.5566468238830566,0.425605446100235
1772094421383942100,0.610942138671875,-0.298505574464798,-0.34324848651885986,0.7781373858451843
1772094421393892000,0.62089208984375,-0.18966421484947205,0.013800721615552902,0.9360201358795166
1772094421403841000,0.630841064453125,-0.06021007522940636,0.3181297183036804,0.8422518372535706
1772094421413791200,0.640791259765625,0.03367704898118973,0.47990429401397705,0.5487819314002991
1772094421423740200,0.650740234375,0.07621199637651443,0.5098387598991394,0.18510572612285614
1772094421433690000,0.660690185546875,0.006958415266126394,0.3442358672618866,-0.1524033397436142
1772094421443640000,0.67064013671875,-0.11640080064535141,0.11907622963190079,-0.4022882878780365
1772094421453589000,0.680589111328125,-0.23710235953330994,-0.02360253967344761,-0.5677318572998047
1772094421463539200,0.690539306640625,-0.31014886498451233,-0.052878137677907944,-0.7229248881340027
1772094421473488100,0.700488037109375,-0.3134496808052063,-0.04322941228747368,-0.8721678256988525
1772094421483438000,0.71043798828125,-0.2753451466560364,-0.08577634394168854,-0.996328592300415
1772094421493387000,0.720386962890625,-0.2300482988357544,-0.21931491792201996,-1.0205050706863403
1772094421503337200,0.730337158203125,-0.19911088049411774,-0.3805442750453949,-0.9945206642150879
1772094421513287200,0.740287109375,-0.16741429269313812,-0.4851217269897461,-0.9737177491188049
1772094421523236000,0.750236083984375,-0.13451094925403595,-0.398114413022995,-0.9354990124702454
1772094421533186000,0.76018603515625,-0.06762164831161499,-0.04878789186477661,-0.849624752998352
1772094421543135200,0.77013525390625,0.047522783279418945,0.4106824994087219,-0.7287212610244751
1772094421553085200,0.780085205078125,0.20435598492622375,0.8605110049247742,-0.5749310851097107
1772094421563035100,0.79003515625,0.3630750775337219,1.217848777770996,-0.40340936183929443
1772094421572984000,0.799984130859375,0.4442616105079651,1.0528564453125,-0.29461362957954407
1772094421582934000,0.80993408203125,0.41031670570373535,0.4634415805339813,-0.27352219820022583
1772094421592883200,0.81988330078125,0.3919448256492615,0.1475612223148346,-0.13645048439502716
1772094421602833200,0.829833251953125,0.2849728465080261,0.0072722844779491425,0.1143638864159584
1772094421612783000,0.839783203125,0.12557536363601685,-0.16441841423511505,0.39512884616851807
1772094421622732300,0.849732177734375,0.014361225068569183,-0.3590603470802307,0.5924075245857239
1772094421632682000,0.859681884765625,-0.02347969450056553,-0.474269300699234,0.701011061668396
1772094421642631200,0.869631103515625,-0.01024990901350975,-0.3962802290916443,0.7394292950630188
1772094421652580900,0.879580810546875,0.009087015874683857,-0.23265038430690765,0.6863887906074524
1772094421662531000,0.889531005859375,0.006095487624406815,-0.12427889555692673,0.5682485699653625
1772094421672480000,0.89947998046875,0.024028168991208076,0.0021521192975342274,0.45220282673835754
1772094421682430000,0.909429931640625,0.05499114841222763,0.15316453576087952,0.3229798376560211
1772094421692379000,0.91937890625,0.09820501506328583,0.26292264461517334,0.17992988228797913
1772094421702329000,0.9293291015625,0.20716451108455658,0.29794028401374817,0.10855210572481155
1772094421712278000,0.939278076171875,0.33029302954673767,0.2683713734149933,0.12745538353919983
1772094421722228000,0.94922802734375,0.3897462487220764,0.2358424812555313,0.20208168029785156
1772094421732178000,0.959177978515625,0.3813636898994446,0.193788081407547,0.2945227026939392
1772094421742127000,0.969127197265625,0.3422898054122925,0.14549671113491058,0.3582918345928192
1772094421752077000,0.9790771484375,0.33612069487571716,0.08119764178991318,0.3830006718635559
1772094421762026000,0.98902587890625,0.36860060691833496,0.021058671176433563,0.3698371946811676
1772094421771976000,0.998975830078125,0.4154350459575653,0.01530732586979866,0.3591049313545227
1772094421781926100,1.008926025390625,0.4440957307815552,0.05735570937395096,0.37349003553390503
1772094421791875000,1.018875,0.44471243023872375,0.06097770109772682,0.4659641683101654
1772094421801825000,1.028824951171875,0.37339696288108826,-0.0016952669247984886,0.5721587538719177
1772094421811774000,1.03877392578125,0.24584265053272247,-0.08988966047763824,0.6342165470123291
1772094421821724200,1.04872412109375,0.12318570166826248,-0.15814195573329926,0.6495630145072937
1772094421831674000,1.058674072265625,0.029844922944903374,-0.1727115958929062,0.6193333268165588
1772094421841623000,1.068623046875,-0.0012538719456642866,-0.1357269436120987,0.5406217575073242
1772094421851573000,1.078572998046875,0.055010341107845306,-0.07616697251796722,0.4651379883289337
1772094421861522000,1.08852197265625,0.16050320863723755,-0.07578800618648529,0.4644394516944885
1772094421871472000,1.09847216796875,0.2486303299665451,-0.1013440415263176,0.5724278688430786
1772094421881422000,1.108422119140625,0.2870757281780243,-0.07336593419313431,0.7482684254646301
1772094421891371000,1.11837109375,0.26955446600914,0.009114126674830914,0.8805529475212097
1772094421901321200,1.1283212890625,0.23541618883609772,0.11403228342533112,0.9032382965087891
1772094421911270100,1.138270263671875,0.22850054502487183,0.08932071179151535,0.782200276851654
1772094421921220000,1.14822021484375,0.2235928773880005,-0.23302218317985535,0.5350645184516907
1772094421931169000,1.1581689453125,0.15337906777858734,-0.8878020644187927,0.16957198083400726
1772094421941119200,1.168119140625,-0.049253396689891815,-1.5649805068969727,-0.26682209968566895
1772094421951069200,1.178069091796875,-0.36015915870666504,-1.9289480447769165,-0.7018927335739136
1772094421961018000,1.18801806640625,-0.6490048170089722,-1.9769320487976074,-1.1052037477493286
1772094421970968000,1.197968017578125,-0.7718713283538818,-1.6696999073028564,-1.4278805255889893
1772094421980917000,1.2079169921875,-0.7244247198104858,-1.0896003246307373,-1.6341530084609985
1772094421990867200,1.2178671875,-0.5270784497261047,-0.4982447922229767,-1.6916590929031372
1772094422000817200,1.227817138671875,-0.29938268661499023,-0.011321209371089935,-1.563521385192871
1772094422010766000,1.23776611328125,-0.14466728270053864,0.2981487214565277,-1.293451189994812
1772094422020716300,1.24771630859375,-0.04225010424852371,0.45730534195899963,-0.9740625023841858
1772094422030665200,1.257665283203125,0.017092768102884293,0.42358651757240295,-0.6808429956436157
1772094422040615200,1.267615234375,0.04819875583052635,0.2966163158416748,-0.43646419048309326
1772094422050565000,1.277565185546875,0.07293933629989624,0.18844343721866608,-0.24358275532722473
1772094422060514000,1.28751416015625,0.11038871109485626,0.1331234574317932,-0.0944497212767601
1772094422070464300,1.29746435546875,0.17424607276916504,0.12744860351085663,0.01371440663933754
1772094422080413200,1.3074130859375,0.2599646747112274,0.16787326335906982,0.1068616583943367
1772094422090363400,1.31736328125,0.344612181186676,0.21669623255729675,0.16719737648963928
1772094422100313300,1.327313232421875,0.4034525752067566,0.20915895700454712,0.1924705058336258
1772094422110262300,1.33726220703125,0.4266401529312134,0.1545684039592743,0.1740037351846695
1772094422120212200,1.347212158203125,0.4167555868625641,0.1073436439037323,0.10975737124681473
1772094422130161400,1.357161376953125,0.3942693769931793,0.08548834174871445,-0.0028466330841183662
1772094422140111400,1.367111328125,0.37721821665763855,0.057552315294742584,-0.13137371838092804
1772094422150061300,1.377061279296875,0.35016143321990967,-0.01658826507627964,-0.2600683569908142
1772094422160010200,1.38701025390625,0.3072190284729004,-0.13086344301700592,-0.37358587980270386
1772094422169960200,1.396960205078125,0.24926453828811646,-0.2564009130001068,-0.45658230781555176
1772094422179909400,1.406909423828125,0.18189989030361176,-0.3418518900871277,-0.5184441208839417
1772094422189859300,1.416859375,0.14808470010757446,-0.37201806902885437,-0.5590185523033142
1772094422199808300,1.426808349609375,0.14421886205673218,-0.3815806806087494,-0.5901620984077454
1772094422209758200,1.43675830078125,0.15024520456790924,-0.374793142080307,-0.5592579245567322
1772094422219708400,1.44670849609375,0.15405938029289246,-0.33197110891342163,-0.48404040932655334
1772094422229657300,1.4566572265625,0.16322878003120422,-0.29642459750175476,-0.36935463547706604
1772094422239607300,1.466607177734375,0.2001314014196396,-0.2780107259750366,-0.2209952473640442
1772094422249556200,1.47655615234375,0.2506835460662842,-0.3181547224521637,-0.05106967315077782
1772094422259506400,1.48650634765625,0.26784148812294006,-0.36214667558670044,0.11530465632677078
1772094422269456400,1.496456298828125,0.24720381200313568,-0.37467673420906067,0.23384317755699158
1772094422279405300,1.5064052734375,0.1952655166387558,-0.4771905839443207,0.25945642590522766
1772094422289355300,1.516355224609375,0.14450187981128693,-0.692270815372467,0.2000541388988495
1772094422299304400,1.526304443359375,0.0968768373131752,-0.8813230395317078,0.08044997602701187
1772094422309254400,1.53625439453125,0.026809966191649437,-0.9489481449127197,-0.07390362024307251
1772094422319204400,1.546204345703125,-0.025062819942831993,-0.8889606595039368,-0.21956120431423187
1772094422329153300,1.5561533203125,-0.023616721853613853,-0.7009196877479553,-0.28022828698158264
1772094422339103500,1.566103515625,0.020713724195957184,-0.3700975477695465,-0.23839455842971802
1772094422349052400,1.576052490234375,0.09008269757032394,0.009592629037797451,-0.12236233055591583
1772094422359002400,1.58600244140625,0.1276572346687317,0.27635079622268677,0.0437811017036438
1772094422368952300,1.595952392578125,0.11071643978357315,0.3917014002799988,0.2190922349691391
1772094422378901500,1.605901611328125,0.08142273128032684,0.4222582280635834,0.39205706119537354
1772094422388851500,1.6158515625,0.06281111389398575,0.4185546338558197,0.5261262059211731
1772094422398800400,1.62580029296875,0.07014705240726471,0.4001617729663849,0.6172963380813599
1772094422408750300,1.635750244140625,0.09980124235153198,0.380344033241272,0.6638748049736023
1772094422418700500,1.645700439453125,0.14317642152309418,0.35274916887283325,0.6763871312141418
1772094422428649500,1.6556494140625,0.20212188363075256,0.29251760244369507,0.6605111360549927
1772094422438599400,1.665599365234375,0.24865131080150604,0.17685893177986145,0.6505652666091919
1772094422448548400,1.67554833984375,0.2644461989402771,-0.00673297792673111,0.6555795669555664
1772094422458498600,1.68549853515625,0.255790114402771,-0.18924792110919952,0.6974433660507202
1772094422468448500,1.695448486328125,0.20426325500011444,-0.32597988843917847,0.7816101908683777
1772094422478397400,1.7053974609375,0.11617626994848251,-0.2985868752002716,0.8730911016464233
1772094422488347400,1.715347412109375,0.014270247891545296,-0.15013444423675537,0.9352102279663086
1772094422498296300,1.72529638671875,-0.08702094852924347,0.02076593227684498,0.941521406173706
1772094422508246500,1.73524658203125,-0.18082210421562195,0.1719462126493454,0.8590642809867859
1772094422518196200,1.7451962890625,-0.24829649925231934,0.22562702000141144,0.6856597661972046
1772094422528145400,1.7551455078125,-0.2908530533313751,0.13232150673866272,0.44845765829086304
1772094422538095400,1.765095458984375,-0.2973005771636963,0.01383720338344574,0.22884780168533325
1772094422548044500,1.77504443359375,-0.32848048210144043,-0.11752601712942123,0.0777471587061882
1772094422557994200,1.784994140625,-0.4113069176673889,-0.29215294122695923,-0.036915235221385956
1772094422567944200,1.794944091796875,-0.49491703510284424,-0.3465934693813324,-0.12221404165029526
1772094422577893400,1.804893310546875,-0.5252640843391418,-0.2490999400615692,-0.18250347673892975
1772094422587843300,1.81484326171875,-0.4887699484825134,-0.18892920017242432,-0.21081142127513885
1772094422597792500,1.82479248046875,-0.42539578676223755,-0.3503319323062897,-0.1828698068857193
1772094422607742200,1.8347421875,-0.3852979242801666,-0.7016391754150391,-0.05425845831632614
1772094422617692400,1.8446923828125,-0.38961145281791687,-1.2035422325134277,0.1398676037788391
1772094422627641300,1.854641357421875,-0.4555905759334564,-1.6762229204177856,0.342355340719223
1772094422637591300,1.86459130859375,-0.5781911015510559,-1.8230257034301758,0.4857577681541443
1772094422647540200,1.874540283203125,-0.6777100563049316,-1.5602055788040161,0.5003898739814758
1772094422657490200,1.884490234375,-0.6944360136985779,-0.9957730770111084,0.35456928610801697
1772094422667440400,1.8944404296875,-0.6715230345726013,-0.3260355293750763,0.08311997354030609
1772094422677389300,1.904389404296875,-0.6319607496261597,0.25627076625823975,-0.2334931343793869
1772094422687339300,1.91433935546875,-0.6321203112602234,0.6377765536308289,-0.5266146659851074
1772094422697288200,1.9242880859375,-0.6805474758148193,0.7544429898262024,-0.7664437890052795
1772094422707238400,1.93423828125,-0.7384947538375854,0.7238398790359497,-0.9581752419471741
1772094422717188400,1.944188232421875,-0.7874628305435181,0.5297484397888184,-1.1573772430419922
1772094422727137300,1.95413720703125,-0.7920550107955933,0.19904561340808868,-1.391217827796936
1772094422737087200,1.964087158203125,-0.727974534034729,-0.10777371376752853,-1.6492685079574585
1772094422747036400,1.974036376953125,-0.5786035656929016,-0.43840429186820984,-1.9489924907684326
1772094422756986400,1.983986328125,-0.36176180839538574,-0.9119790196418762,-2.166478157043457
1772094422766936300,1.993936279296875,-0.17800965905189514,-0.9812434315681458,-2.159923553466797
1772094422776885200,2.00388525390625,-0.09240473806858063,-0.8044577836990356,-2.0199179649353027
1772094422786835500,2.01383544921875,-0.1221863180398941,-0.44120702147483826,-1.7912393808364868
1772094422796784400,2.023784423828125,-0.24030150473117828,-0.06951495260000229,-1.4900482892990112
1772094422806734300,2.033734375,-0.35970982909202576,0.1526041477918625,-1.1366112232208252
1772094422816684500,2.0436845703125,-0.4531119465827942,0.21437989175319672,-0.7529849410057068
1772094422826633500,2.053633544921875,-0.4755646586418152,0.1304304301738739,-0.3584229648113251
1772094422836583400,2.06358349609375,-0.4124535918235779,-0.041735462844371796,0.08214671164751053
1772094422846532400,2.073532470703125,-0.25457262992858887,-0.2512049078941345,0.5624538064002991
1772094422856482300,2.083482421875,-0.018013615161180496,-0.5219847559928894,1.0016247034072876
1772094422866432500,2.0934326171875,0.24977946281433105,-0.659618079662323,1.3376158475875854
1772094422876381400,2.10338134765625,0.4814766049385071,-0.6346884965896606,1.4921334981918335
1772094422886331400,2.113331298828125,0.6508303880691528,-0.46132075786590576,1.4482290744781494
1772094422896280300,2.1232802734375,0.7500922679901123,-0.19667819142341614,1.2607356309890747
1772094422906230500,2.13323046875,0.798751711845398,0.15489202737808228,1.0197590589523315
1772094422916180500,2.143180419921875,0.8124622106552124,0.5554375648498535,0.8096295595169067
1772094422926129400,2.15312939453125,0.8225802183151245,0.9275042414665222,0.6398948431015015
1772094422936079400,2.163079345703125,0.8719877004623413,1.2397441864013672,0.4969150424003601
1772094422946028500,2.173028564453125,0.9733325839042664,1.5188030004501343,0.37817221879959106
1772094422955978500,2.182978515625,1.09446382522583,1.6956182718276978,0.3009115159511566
1772094422965928200,2.19292822265625,1.1517372131347656,1.6699905395507812,0.2650718688964844
1772094422975877400,2.20287744140625,1.0730857849121094,1.4166951179504395,0.2507600486278534
1772094422985827300,2.212827392578125,0.8621466159820557,1.0360381603240967,0.2758653163909912
1772094422995776500,2.222776611328125,0.5929324626922607,0.6567806005477905,0.35668984055519104
1772094423005726500,2.2327265625,0.35589951276779175,0.33591076731681824,0.5168067812919617
1772094423015676200,2.24267626953125,0.1940123289823532,0.07320751249790192,0.7530858516693115
1772094423025625300,2.252625244140625,0.09715713560581207,-0.13199271261692047,0.9935678243637085
1772094423035575300,2.2625751953125,0.04136471822857857,-0.28140538930892944,1.1627341508865356
1772094423045524500,2.2725244140625,0.023850655183196068,-0.2299046665430069,1.169854760169983
1772094423055474200,2.28247412109375,0.05492495000362396,0.004296388477087021,0.9047891497612
1772094423065424400,2.29242431640625,0.17265895009040833,0.2898319959640503,0.4233700633049011
1772094423075373300,2.302373291015625,0.3370388150215149,0.5494739413261414,-0.06800045818090439
1772094423085323300,2.3123232421875,0.4404144287109375,0.6889590620994568,-0.35673636198043823
1772094423095272000,2.32227197265625,0.4488356113433838,0.6495680212974548,-0.4011158049106598
1772094423105221600,2.3322216796875,0.37417277693748474,0.5780036449432373,-0.27873507142066956
1772094423115171800,2.342171875,0.21058118343353271,0.4294365644454956,-0.10865335911512375
1772094423125120800,2.352120849609375,-0.02612091414630413,0.006837635301053524,-0.052427250891923904
1772094423135070700,2.36207080078125,-0.29600459337234497,-0.6573930978775024,-0.17515210807323456
1772094423145019600,2.37201953125,-0.5078030824661255,-1.272898554801941,-0.3632192611694336
1772094423154969900,2.381969970703125,-0.616773247718811,-1.607047200202942,-0.4928411543369293
1772094423164919800,2.391919921875,-0.6929648518562317,-1.6582667827606201,-0.569450855255127
1772094423174868700,2.40186865234375,-0.7288933396339417,-1.3800472021102905,-0.6180447936058044
1772094423184818700,2.411818603515625,-0.6824688911437988,-0.8296826481819153,-0.674163818359375
1772094423194767600,2.421767578125,-0.5432153940200806,-0.21750423312187195,-0.8200342059135437
1772094423204717800,2.4317177734375,-0.37950024008750916,0.28797656297683716,-1.0470898151397705
1772094423214667800,2.441667724609375,-0.27000728249549866,0.6315693259239197,-1.2395991086959839
1772094423224616700,2.45161669921875,-0.23572634160518646,0.8165192604064941,-1.3223994970321655
1772094423234567000,2.46156689453125,-0.2218502014875412,0.9203662872314453,-1.297109603881836
1772094423244515800,2.471515869140625,-0.19466334581375122,0.956732451915741,-1.1853950023651123
1772094423254465800,2.4814658203125,-0.13924002647399902,0.9420600533485413,-1.0175762176513672
1772094423264415700,2.491415771484375,-0.05591917410492897,0.8726531267166138,-0.8252190947532654
1772094423274364700,2.50136474609375,0.052480004727840424,0.7563108205795288,-0.633072555065155
1772094423284315000,2.51131494140625,0.18604044616222382,0.6705769896507263,-0.4395504593849182
1772094423294263800,2.521263916015625,0.3309049606323242,0.6386047005653381,-0.24528588354587555
1772094423304213800,2.5312138671875,0.4493873417377472,0.6065204739570618,-0.10969240963459015
1772094423314164000,2.5411640625,0.5251239538192749,0.5720086097717285,-0.04399009421467781
1772094423324113000,2.55111279296875,0.5621100068092346,0.5433611273765564,-0.03636493533849716
1772094423334062800,2.561062744140625,0.574483335018158,0.5227602124214172,-0.0627552717924118
1772094423344012800,2.5710126953125,0.574799656867981,0.5073281526565552,-0.10210917890071869
1772094423353962000,2.5809619140625,0.5750406384468079,0.4499487578868866,-0.13370119035243988
1772094423363912000,2.590911865234375,0.5841761827468872,0.38613587617874146,-0.11910439282655716
1772094423373860900,2.60086083984375,0.6008334755897522,0.3650497794151306,-0.05593527480959892
1772094423383810800,2.610810791015625,0.5990109443664551,0.319312185049057,0.028793182224035263
1772094423393761000,2.620760986328125,0.5538203120231628,0.21140970289707184,0.10172757506370544
1772094423403710000,2.6307099609375,0.4917978346347809,0.0714067593216896,0.17301876842975616
1772094423413660000,2.640659912109375,0.43802595138549805,-0.013339284807443619,0.2512502074241638
1772094423423608800,2.65060888671875,0.410773903131485,-0.0014900057576596737,0.3018399775028229
1772094423433559000,2.66055908203125,0.4189056158065796,0.047587260603904724,0.28717154264450073
1772094423443508700,2.6705087890625,0.44581523537635803,0.11548613756895065,0.2112702578306198
1772094423453458000,2.6804580078125,0.4391900897026062,0.16872885823249817,0.1161341443657875
1772094423463407900,2.690407958984375,0.3862420916557312,0.18316465616226196,0.016194457188248634
1772094423473356800,2.700356689453125,0.2915129065513611,0.12524516880512238,-0.11422373354434967
1772094423483307000,2.71030712890625,0.15508057177066803,-0.05346038565039635,-0.2881509065628052
1772094423493256700,2.720256591796875,0.031187929213047028,-0.26931941509246826,-0.4589537978172302
1772094423503206000,2.730205810546875,-0.04932751879096031,-0.4449256360530853,-0.5638312697410583
1772094423513155800,2.74015576171875,-0.09523295611143112,-0.5310967564582825,-0.5966485738754272
1772094423523105000,2.75010498046875,-0.1096770167350769,-0.558341383934021,-0.568840742111206
1772094423533054700,2.7600546875,-0.11190928518772125,-0.5626559853553772,-0.5049338936805725
1772094423543004700,2.770004638671875,-0.12343711405992508,-0.5380961894989014,-0.427383154630661
1772094423552953600,2.77995361328125,-0.13455261290073395,-0.4738199710845947,-0.3788142800331116
1772094423562903800,2.78990380859375,-0.15543507039546967,-0.3716341257095337,-0.3719690144062042
1772094423572852700,2.799852783203125,-0.17561890184879303,-0.21262796223163605,-0.38020938634872437
1772094423582802700,2.809802734375,-0.21066860854625702,-0.003965751733630896,-0.3794117569923401
1772094423592753000,2.8197529296875,-0.24789853394031525,0.2264975607395172,-0.34673210978507996
1772094423602701800,2.829701904296875,-0.28098785877227783,0.4527139961719513,-0.2942107319831848
1772094423612651800,2.83965185546875,-0.3252360224723816,0.5968858003616333,-0.25335490703582764
1772094423622601700,2.849601806640625,-0.3720444142818451,0.6369079947471619,-0.2502458989620209
1772094423632550700,2.859550537109375,-0.4119926393032074,0.6244034171104431,-0.2700859010219574
1772094423642500900,2.8695009765625,-0.43858516216278076,0.5988708734512329,-0.29331037402153015
1772094423652449800,2.87944970703125,-0.4537356197834015,0.5730289220809937,-0.32986199855804443
1772094423662399700,2.889399658203125,-0.45672810077667236,0.5098683834075928,-0.3394979238510132
1772094423672350000,2.899349853515625,-0.46719059348106384,0.40112027525901794,-0.3088236451148987
1772094423682299000,2.909298828125,-0.5007847547531128,0.254713773727417,-0.23708081245422363
1772094423692248800,2.919248779296875,-0.5829824209213257,0.14395876228809357,-0.0994875356554985
1772094423702197800,2.92919775390625,-0.688868522644043,0.11074337363243103,0.07107540965080261
1772094423712147700,2.939147705078125,-0.7891250848770142,0.11119984090328217,0.1938103884458542
1772094423722098000,2.949097900390625,-0.853186309337616,0.13335968554019928,0.2098030000925064
1772094423732046800,2.959046875,-0.8811678886413574,0.16132739186286926,0.10773734748363495
1772094423741996800,2.968996826171875,-0.9075459241867065,0.12781620025634766,-0.05460858717560768
1772094423751945700,2.97894580078125,-0.9143681526184082,0.052406929433345795,-0.2148589789867401
1772094423761896000,2.98889599609375,-0.8851292729377747,0.0006130379624664783,-0.3083026707172394
1772094423771846000,2.998845947265625,-0.8282486796379089,-0.004164939280599356,-0.3296939730644226
1772094423781794800,3.008794921875,-0.7391306757926941,-0.025001000612974167,-0.31489628553390503
1772094423791744800,3.018744873046875,-0.6448339819908142,-0.1223326176404953,-0.2713075280189514
1772094423801695000,3.028695068359375,-0.5768600702285767,-0.23810508847236633,-0.20166227221488953
1772094423811644000,3.038643798828125,-0.5220881700515747,-0.3178398609161377,-0.1139148399233818
1772094423821593900,3.04859375,-0.4479166269302368,-0.3544449806213379,-0.04257911443710327
1772094423831542800,3.058542724609375,-0.3271198868751526,-0.35207822918891907,0.020382806658744812
1772094423841493000,3.068492919921875,-0.1808808147907257,-0.3224329948425293,0.06487641483545303
1772094423851442700,3.078442626953125,-0.024552997201681137,-0.259250283241272,0.09267422556877136
1772094423861392000,3.088391845703125,0.10523480921983719,-0.16790743172168732,0.08580070734024048
1772094423871341800,3.098341796875,0.19716580212116241,-0.0940995141863823,0.05801940709352493
1772094423881291000,3.108291015625,0.2697412371635437,-0.030996590852737427,0.03668726980686188
1772094423891241000,3.118240966796875,0.34805363416671753,-0.103446826338768,0.023961622267961502
1772094423901190700,3.128190673828125,0.4356606602668762,-0.33329451084136963,0.030852504074573517
1772094423911139800,3.138139892578125,0.5329869389533997,-0.7858127355575562,0.1130637526512146
1772094423921089800,3.14808984375,0.6389616131782532,-1.3367393016815186,0.33809518814086914
1772094423931039000,3.1580390625,0.7724655866622925,-1.7932155132293701,0.7661357522010803
1772094423940988700,3.16798876953125,0.8793084621429443,-1.9733607769012451,1.3468068838119507
1772094423950939000,3.17793896484375,0.8770480155944824,-1.8208026885986328,1.8883605003356934
1772094423960887800,3.1878876953125,0.7751308679580688,-1.395612120628357,2.1732442378997803
1772094423970837800,3.197837646484375,0.6280402541160583,-0.8921518921852112,2.0436532497406006
1772094423980787700,3.20778759765625,0.46761009097099304,-0.4631239175796509,1.5935051441192627
1772094423990736600,3.217736572265625,0.31835561990737915,-0.11921819299459457,1.1107217073440552
1772094424000686800,3.227686767578125,0.19165456295013428,0.028494764119386673,0.7753441333770752
1772094424010635800,3.2376357421875,0.1057676151394844,-0.09450199455022812,0.567870020866394
1772094424020585700,3.247585693359375,0.008494522422552109,-0.42259490489959717,0.42934074997901917
1772094424030536000,3.257535888671875,-0.11849884688854218,-0.7843480706214905,0.2668815553188324
1772094424040484900,3.26748486328125,-0.2752572000026703,-1.109268307685852,0.06571484357118607
1772094424050434800,3.277434814453125,-0.4126238524913788,-1.1969445943832397,-0.0402643196284771
1772094424060383700,3.2873837890625,-0.4965449273586273,-1.0392345190048218,-0.049978356808423996
1772094424070333700,3.297333740234375,-0.47781863808631897,-0.6918796896934509,-0.018255047500133514
1772094424080284000,3.307283935546875,-0.40746912360191345,-0.31374508142471313,-0.04436668008565903
1772094424090232800,3.31723291015625,-0.358001172542572,0.15240876376628876,-0.13477779924869537
1772094424100183800,3.327183837890625,-0.32143956422805786,0.6203562021255493,-0.28397271037101746
1772094424110132700,3.3371328125,-0.2923620939254761,0.9673652648925781,-0.46481969952583313
1772094424120082700,3.347082763671875,-0.3008611798286438,1.1284675598144531,-0.6190571784973145
1772094424130033000,3.357032958984375,-0.3443109393119812,1.1050591468811035,-0.6922658681869507
1772094424139981800,3.36698193359375,-0.40598878264427185,0.9342434406280518,-0.6585150361061096
1772094424149931800,3.376931884765625,-0.46645587682724,0.7538052201271057,-0.5336090326309204
1772094424159881500,3.386881591796875,-0.4856642484664917,0.6855940818786621,-0.3553793728351593
1772094424169831000,3.396830810546875,-0.45009851455688477,0.7465775609016418,-0.18028880655765533
1772094424179780600,3.406780517578125,-0.3981778621673584,0.8810926079750061,-0.059579286724328995
1772094424189729800,3.416729736328125,-0.3215259909629822,1.025816798210144,-0.021205533295869827
1772094424199679500,3.426679443359375,-0.2378033846616745,1.156821370124817,-0.0489896722137928
1772094424209629700,3.436629638671875,-0.15940098464488983,1.2819149494171143,-0.10265582799911499
1772094424219578600,3.44657861328125,-0.08067501336336136,1.3568098545074463,-0.15122584998607635
1772094424229528600,3.456528564453125,-0.0018843282014131546,1.319320559501648,-0.17799142003059387
1772094424239477800,3.466477783203125,0.07579611241817474,1.2366180419921875,-0.1622661054134369
1772094424249427700,3.476427734375,0.1469762772321701,1.1205244064331055,-0.09716112911701202
1772094424259377700,3.486377685546875,0.21984638273715973,0.9168659448623657,-0.016400165855884552
1772094424269326600,3.49632666015625,0.3166895806789398,0.6808187961578369,0.06882497668266296
1772094424279276500,3.506276611328125,0.4046613574028015,0.3968520164489746,0.14637072384357452
1772094424289226800,3.516226806640625,0.4747472405433655,0.11318621784448624,0.25146785378456116
1772094424299175700,3.52617578125,0.5182719230651855,0.01497811358422041,0.39382174611091614
1772094424309125600,3.536125732421875,0.5299994349479675,0.023574797436594963,0.487081378698349
1772094424319074600,3.546074462890625,0.5125214457511902,0.0955970287322998,0.48950082063674927
1772094424329024800,3.556024658203125,0.502600908279419,0.15662549436092377,0.3720218539237976
1772094424338974700,3.565974609375,0.5102145671844482,0.13234034180641174,0.14866337180137634
1772094424348923600,3.575923583984375,0.5353702306747437,-0.07461711019277573,-0.12134414166212082
1772094424358873600,3.58587353515625,0.5748330354690552,-0.44053176045417786,-0.3042636811733246
1772094424368822800,3.59582275390625,0.5913845896720886,-0.8329706192016602,-0.2768256664276123
1772094424378772700,3.605772705078125,0.5967322587966919,-1.1320470571517944,-0.06024607643485069
1772094424388722700,3.61572265625,0.6068498492240906,-1.1978085041046143,0.2418820858001709
1772094424398671600,3.625671630859375,0.600013792514801,-1.0381754636764526,0.5094068646430969
1772094424408621800,3.635621826171875,0.551741361618042,-0.6638041138648987,0.6436498761177063
1772094424418571800,3.64557177734375,0.4898914396762848,-0.23455584049224854,0.5528793931007385
1772094424428520700,3.655520751953125,0.4016531705856323,0.03243483230471611,0.21869954466819763
1772094424438470700,3.665470703125,0.25679105520248413,0.1219920814037323,-0.19952017068862915
1772094424448419800,3.675419921875,0.04653770104050636,-0.00022170739248394966,-0.5948893427848816
1772094424458369800,3.685369873046875,-0.20053237676620483,-0.2944505512714386,-0.8807870745658875
1772094424468319700,3.69531982421875,-0.4413692355155945,-0.6891088485717773,-1.0427833795547485
1772094424478268700,3.7052685546875,-0.6356108784675598,-1.12637197971344,-1.11082124710083
1772094424488219000,3.715218994140625,-0.7475875020027161,-1.4537240266799927,-1.0711945295333862
1772094424498167800,3.725167724609375,-0.6987509727478027,-1.4265260696411133,-0.8977859020233154
1772094424508117800,3.73511767578125,-0.5317915678024292,-1.0277631282806396,-0.6116756200790405
1772094424518067700,3.745067626953125,-0.3551185131072998,-0.3819747865200043,-0.3572884202003479
1772094424528017000,3.755016845703125,-0.2195071429014206,0.31410494446754456,-0.20672687888145447
1772094424537966800,3.764966796875,-0.1485002636909485,0.8758190274238586,-0.1686488687992096
1772094424547916500,3.77491650390625,-0.11993733048439026,1.2506831884384155,-0.18943031132221222
1772094424557865700,3.78486572265625,-0.13975894451141357,1.3835554122924805,-0.2056526392698288
1772094424567815700,3.794815673828125,-0.1918375939130783,1.3143779039382935,-0.1942143589258194
1772094424577764900,3.804764892578125,-0.2586551010608673,1.0961275100708008,-0.14696606993675232
1772094424587714600,3.814714599609375,-0.3180835247039795,0.794174075126648,-0.08481508493423462
1772094424597664500,3.82466455078125,-0.3318837285041809,0.4813899099826813,-0.021729694679379463
1772094424607613700,3.83461376953125,-0.2917775809764862,0.24663838744163513,0.04304290935397148
1772094424617563600,3.844563720703125,-0.22975556552410126,0.13746310770511627,0.12904466688632965
1772094424627512600,3.8545126953125,-0.15424109995365143,0.11614184081554413,0.22809135913848877
1772094424637462500,3.864462646484375,-0.08634214848279953,0.14894352853298187,0.31646379828453064
1772094424647412700,3.874412841796875,-0.045703113079071045,0.19129124283790588,0.3715275824069977
1772094424657361700,3.884361572265625,-0.02422567456960678,0.2316811978816986,0.38312724232673645
1772094424667311600,3.8943115234375,-0.01428888738155365,0.2689044773578644,0.35834813117980957
1772094424677261600,3.904261474609375,-0.011388883925974369,0.28831183910369873,0.2965644299983978
1772094424687210800,3.914210693359375,-0.010950793512165546,0.26010578870773315,0.2377202957868576
1772094424697160700,3.92416064453125,-0.015541993081569672,0.18824151158332825,0.19336681067943573
1772094424707109600,3.934109619140625,0.0059244162403047085,0.1196102499961853,0.18103556334972382
1772094424717059600,3.9440595703125,0.02492336742579937,0.07504921406507492,0.18921352922916412
1772094424727009800,3.954009765625,0.0335293710231781,0.05445605888962746,0.2353392094373703
1772094424736958700,3.963958740234375,0.04064096882939339,0.10283085703849792,0.29384511709213257
1772094424746908700,3.97390869140625,0.05714670941233635,0.1631155163049698,0.30975937843322754
1772094424756857600,3.983857666015625,0.08206862211227417,0.1847977489233017,0.263158917427063
1772094424766807800,3.993807861328125,0.08370806276798248,0.15567901730537415,0.16452793776988983
1772094424776757800,4.0037578125,0.06783918291330338,0.13512849807739258,0.022854715585708618
1772094424786706700,4.013706787109375,0.04914379492402077,0.04563402384519577,-0.11497132480144501
1772094424796656600,4.02365673828125,0.021099768579006195,-0.08527762442827225,-0.20522540807724
1772094424806606800,4.03360693359375,-0.013791103847324848,-0.25175634026527405,-0.22328990697860718
1772094424816555800,4.0435556640625,-0.024346500635147095,-0.4219318628311157,-0.1921987533569336
1772094424826505700,4.053505615234375,-0.012189438566565514,-0.5607419013977051,-0.11136090755462646
1772094424836454700,4.06345458984375,0.041692424565553665,-0.6451091766357422,0.0017877670470625162
1772094424846404900,4.07340478515625,0.13827888667583466,-0.664230465888977,0.13789473474025726
1772094424856354800,4.083354736328125,0.221464604139328,-0.6006649136543274,0.28950759768486023
1772094424866303700,4.0933037109375,0.26704299449920654,-0.4778023660182953,0.41889888048171997
1772094424876253700,4.103253662109375,0.2643011212348938,-0.32038614153862,0.48363757133483887
1772094424886203000,4.113202880859375,0.22907842695713043,-0.18130098283290863,0.47983404994010925
1772094424896152800,4.12315283203125,0.1798730492591858,-0.08435625582933426,0.42484599351882935
1772094424906102800,4.133102783203125,0.12353067845106125,-0.006942428182810545,0.3538791537284851
1772094424916051700,4.1430517578125,0.08134637027978897,0.038163840770721436,0.2889676094055176
1772094424926001700,4.153001708984375,0.0549166277050972,0.0669185221195221,0.2501131296157837
1772094424935951600,4.16295166015625,0.04636235907673836,0.08452941477298737,0.233412504196167
1772094424945900800,4.17290087890625,0.04344779625535011,0.11099910736083984,0.23145534098148346
1772094424955850500,4.1828505859375,0.044013503938913345,0.13723082840442657,0.23827920854091644
1772094424965800000,4.192800048828125,0.05987023189663887,0.15546336770057678,0.24990977346897125
1772094424975749600,4.20274951171875,0.07159584760665894,0.16710181534290314,0.2725752294063568
1772094424985699600,4.212699462890625,0.07466913014650345,0.18429677188396454,0.301700621843338
1772094424995648500,4.2226484375,0.06858785450458527,0.21954728662967682,0.3053566813468933
1772094425005598700,4.2325986328125,0.0584513321518898,0.2575921416282654,0.2847462296485901
1772094425015547600,4.242547607421875,0.04278504103422165,0.2809998393058777,0.24299518764019012
1772094425025497600,4.25249755859375,0.01544423121958971,0.30016130208969116,0.19050349295139313
1772094425035447600,4.262447509765625,-0.015197736211121082,0.3228496015071869,0.12059128284454346
1772094425045396700,4.272396728515625,-0.04380008578300476,0.34458816051483154,0.04929579421877861
1772094425055346700,4.2823466796875,-0.0636586919426918,0.3223825693130493,-0.0018847831524908543
1772094425065296600,4.292296630859375,-0.09186050295829773,0.2803530991077423,-0.028545955196022987
1772094425075245600,4.30224560546875,-0.1258164495229721,0.18430069088935852,-0.035548482090234756
1772094425085195800,4.31219580078125,-0.14175014197826385,0.08566545695066452,-0.03105306625366211
1772094425095144000,4.32214404296875,-0.13835246860980988,0.021846432238817215,-0.01376783475279808
1772094425105094100,4.33209423828125,-0.1104113832116127,-0.004772660322487354,0.009318044409155846
1772094425115044000,4.342044189453125,-0.07223685085773468,-0.00013626646250486374,0.025396626442670822
1772094425124993000,4.351992919921875,-0.04448297992348671,0.013006700202822685,0.024159321561455727
1772094425134943000,4.36194287109375,-0.04311589524149895,0.030674222856760025,0.012584993615746498
1772094425144892000,4.371891845703125,-0.061403822153806686,0.05513668805360794,-0.01960090547800064
1772094425154842000,4.381842041015625,-0.08465301245450974,0.05614016577601433,-0.07453513145446777
1772094425164792000,4.3917919921875,-0.09426356106996536,0.05412495136260986,-0.12745825946331024
1772094425174741000,4.401740966796875,-0.08982495218515396,0.04826422408223152,-0.15756836533546448
1772094425184691200,4.411691162109375,-0.0986275002360344,0.004165207967162132,-0.15438348054885864
1772094425194641200,4.42164111328125,-0.1202920600771904,-0.06507718563079834,-0.13027913868427277
1772094425204590000,4.431590087890625,-0.150950089097023,-0.07467841356992722,-0.1124039888381958
1772094425214540000,4.4415400390625,-0.19167377054691315,-0.05041792243719101,-0.1047397032380104
1772094425224489000,4.451489013671875,-0.24189859628677368,-0.01492064818739891,-0.09088779985904694
1772094425234439200,4.461439208984375,-0.2781285345554352,0.009456642903387547,-0.06858149915933609
1772094425244389000,4.47138916015625,-0.2626478374004364,-0.024257376790046692,-0.022637439891695976
1772094425254338000,4.481338134765625,-0.23711836338043213,-0.10814403742551804,0.08659794181585312
1772094425264288300,4.491288330078125,-0.2175036370754242,-0.20250222086906433,0.27611756324768066
1772094425274238200,4.50123828125,-0.19406072795391083,-0.26025858521461487,0.5050960779190063
1772094425284187100,4.511187255859375,-0.10890056937932968,-0.3135913014411926,0.713279664516449
1772094425294137000,4.52113720703125,0.05880831182003021,-0.36920130252838135,0.913378119468689
1772094425304086000,4.5310859375,0.24483917653560638,-0.40745922923088074,1.1254900693893433
1772094425314036200,4.5410361328125,0.362228125333786,-0.355905145406723,1.3096438646316528
1772094425323986200,4.550986083984375,0.3762477934360504,-0.21128112077713013,1.3607698678970337
1772094425333935000,4.56093505859375,0.2930874228477478,-0.06395192444324493,1.2429063320159912
1772094425343885000,4.570885009765625,0.1682317703962326,0.02441415935754776,0.9683176875114441
1772094425353834200,4.580834228515625,0.040733885020017624,0.05004322901368141,0.6097148656845093
1772094425363784200,4.5907841796875,-0.042430777102708817,-0.0398176833987236,0.25429603457450867
1772094425373734000,4.60073388671875,-0.06087803095579147,-0.24653460085391998,-0.016291722655296326
1772094425383683000,4.61068310546875,-0.014450876042246819,-0.5049778819084167,-0.15814632177352905
1772094425393633000,4.620633056640625,0.06115508824586868,-0.7753706574440002,-0.189131960272789
1772094425403583000,4.6305830078125,0.14248669147491455,-0.9627038240432739,-0.09906437993049622
1772094425413532000,4.640531982421875,0.2346816062927246,-1.0295395851135254,0.04744622856378555
1772094425423482000,4.650482177734375,0.3414440155029297,-0.9696935415267944,0.15919806063175201
1772094425433431000,4.66043115234375,0.3988734781742096,-0.7192908525466919,0.1367460936307907
1772094425443381000,4.670381103515625,0.4127432405948639,-0.30749475955963135,-0.0020858272910118103
1772094425453331000,4.6803310546875,0.4075099527835846,0.20015297830104828,-0.16399462521076202
1772094425463279900,4.69027978515625,0.4038369059562683,0.6219212412834167,-0.2656594514846802
1772094425473230000,4.70022998046875,0.39886507391929626,0.881023645401001,-0.2812635600566864
1772094425483180000,4.710179931640625,0.3976653218269348,0.9886339902877808,-0.23187817633152008
1772094425493129000,4.72012890625,0.40132981538772583,0.959232747554779,-0.14282755553722382
1772094425503079200,4.7300791015625,0.38773757219314575,0.8475527763366699,-0.034915726631879807
1772094425513028000,4.740028076171875,0.37577155232429504,0.7892325520515442,0.08893389254808426
1772094425522978000,4.74997802734375,0.3583419620990753,0.828178346157074,0.19032177329063416
1772094425532928000,4.759927978515625,0.3541203737258911,0.9351924657821655,0.22282880544662476
1772094425542877000,4.769876953125,0.3499282896518707,1.0063257217407227,0.1762852668762207
1772094425552827100,4.7798271484375,0.3381390869617462,0.990420937538147,0.08492165058851242
1772094425562776000,4.789776123046875,0.30582404136657715,0.9091372489929199,-0.004376005847007036
1772094425572726000,4.79972607421875,0.24930603802204132,0.781135618686676,-0.08383869379758835
1772094425582676200,4.80967626953125,0.1854735165834427,0.6147639751434326,-0.1470663994550705
1772094425592625200,4.819625244140625,0.12207288295030594,0.4094392657279968,-0.18401281535625458
1772094425602575000,4.8295751953125,0.0756547823548317,0.20104528963565826,-0.1859947293996811
1772094425612525000,4.839525146484375,0.0888935849070549,-0.018234340474009514,-0.14900252223014832
1772094425622474200,4.84947412109375,0.10299129784107208,-0.15641990303993225,-0.06202607601881027
1772094425632424200,4.859424072265625,0.11875717341899872,-0.21596740186214447,0.041980333626270294
1772094425642373000,4.869373046875,0.14589372277259827,-0.1437760293483734,0.15227194130420685
1772094425652323000,4.879322998046875,0.14802025258541107,0.03779754787683487,0.24492688477039337
1772094425662273300,4.889273193359375,0.12051086127758026,0.25532880425453186,0.25769779086112976
1772094425672222200,4.89922216796875,0.06604361534118652,0.4693528413772583,0.17102986574172974
1772094425682172200,4.909172119140625,0.0007330463267862797,0.539389967918396,0.005120244342833757
1772094425692121000,4.91912109375,-0.06844357401132584,0.43629780411720276,-0.13375556468963623
1772094425702071300,4.9290712890625,-0.11199398338794708,0.30813291668891907,-0.16702617704868317
1772094425712021000,4.93902099609375,-0.10205967724323273,0.18332450091838837,-0.11044744402170181
1772094425721970200,4.94897021484375,-0.04190072789788246,0.13935916125774384,0.0024812405463308096
1772094425731920100,4.958920166015625,0.03971489518880844,0.2315719872713089,0.13713741302490234
1772094425741870000,4.9688701171875,0.12217381596565247,0.3490946292877197,0.2530190348625183
1772094425751819000,4.978819091796875,0.1863114982843399,0.35724252462387085,0.3026573359966278
1772094425761769000,4.98876904296875,0.23054687678813934,0.12170881778001785,0.252990186214447
1772094425771718100,4.99871826171875,0.18635763227939606,-0.5473392009735107,0.07919394224882126
1772094425781668000,5.008668212890625,0.027659056708216667,-1.4007456302642822,-0.13981617987155914
1772094425791618000,5.0186181640625,-0.18080535531044006,-2.0068867206573486,-0.3100113868713379
1772094425801567000,5.02856689453125,-0.3617407977581024,-2.1868669986724854,-0.45587965846061707
1772094425811517000,5.038516845703125,-0.4782727360725403,-1.8557556867599487,-0.5630767345428467
1772094425821465900,5.0484658203125,-0.48123013973236084,-1.110414981842041,-0.593759298324585
1772094425831416000,5.058416015625,-0.40405213832855225,-0.2670011520385742,-0.6071761846542358
1772094425841366000,5.068365966796875,-0.31307002902030945,0.39518263936042786,-0.6290356516838074
1772094425851315000,5.07831494140625,-0.28256070613861084,0.7069020867347717,-0.6584959626197815
1772094425861265200,5.08826513671875,-0.3104397654533386,0.6098969578742981,-0.6950904726982117
1772094425871215000,5.098215087890625,-0.358995646238327,0.22967366874217987,-0.7166372537612915
1772094425881164000,5.1081640625,-0.35240402817726135,-0.1705256700515747,-0.6606485843658447
1772094425891114000,5.118114013671875,-0.2736365497112274,-0.41452261805534363,-0.532514750957489
1772094425901063000,5.12806298828125,-0.14523065090179443,-0.4798760712146759,-0.3730212152004242
1772094425911013000,5.13801318359375,-0.00043369270861148834,-0.36666688323020935,-0.2240838259458542
1772094425920963000,5.147963134765625,0.0868586003780365,-0.13654740154743195,-0.1130254864692688
1772094425930912000,5.157912109375,0.11350703239440918,0.1156759113073349,-0.06743957102298737
1772094425940862200,5.1678623046875,0.109464630484581,0.31962478160858154,-0.07508230954408646
1772094425950812200,5.177812255859375,0.0826421007514,0.480610728263855,-0.10036210715770721
1772094425960761000,5.187760986328125,0.04957176744937897,0.5662952661514282,-0.13323484361171722
1772094425970711000,5.1977109375,0.028715364634990692,0.570221483707428,-0.15104244649410248
1772094425980660000,5.207659912109375,0.021674232557415962,0.4700477421283722,-0.14901231229305267
1772094425990610200,5.217610107421875,0.022808413952589035,0.28474655747413635,-0.13943660259246826
1772094426000560000,5.22756005859375,0.04154827818274498,0.09268629550933838,-0.1181877851486206
1772094426010509000,5.237509033203125,0.07668394595384598,0.011777456849813461,-0.10611695051193237
1772094426020459300,5.247459228515625,0.12389858812093735,-0.02169128693640232,-0.11328618228435516
1772094426030408200,5.257408203125,0.15133918821811676,-0.08322269469499588,-0.12923845648765564
1772094426040358100,5.267358154296875,0.15460556745529175,-0.15292321145534515,-0.13487529754638672
1772094426050308000,5.27730810546875,0.15882539749145508,-0.2135203778743744,-0.13170795142650604
1772094426060257000,5.287257080078125,0.19641058146953583,-0.2757677733898163,-0.1069466769695282
1772094426070207200,5.297207275390625,0.21673837304115295,-0.3572487533092499,-0.06197541952133179
1772094426080157000,5.307156982421875,0.1678725630044937,-0.3553427457809448,-0.020207997411489487
1772094426090106000,5.317106201171875,0.16578741371631622,-0.4380752742290497,-0.03174564242362976
1772094426100055800,5.327055908203125,0.18979313969612122,-0.5907915830612183,-0.11758784204721451
1772094426110005000,5.3370048828125,0.17382527887821198,-0.6778662204742432,-0.21413147449493408
1772094426119955000,5.346954833984375,0.10380038619041443,-0.6544610261917114,-0.27903538942337036
1772094426129905000,5.35690478515625,0.01110594067722559,-0.5716322064399719,-0.3025083541870117
1772094426139854000,5.36685400390625,-0.0986463874578476,-0.4505140483379364,-0.2901584804058075
1772094426149803800,5.3768037109375,-0.21002641320228577,-0.35899412631988525,-0.2862088084220886
1772094426159753700,5.386753662109375,-0.2883550524711609,-0.3325633108615875,-0.33062422275543213
1772094426169702700,5.39670263671875,-0.32001787424087524,-0.34958481788635254,-0.4104166328907013
1772094426179652900,5.40665283203125,-0.3191467523574829,-0.3157504200935364,-0.48680222034454346
1772094426189601800,5.416601806640625,-0.29709771275520325,-0.20813815295696259,-0.515207052230835
1772094426199551700,5.4265517578125,-0.26490089297294617,-0.1038045585155487,-0.48592159152030945
1772094426209502000,5.436501953125,-0.22408947348594666,-0.0537695586681366,-0.4140988290309906
1772094426219451000,5.446450927734375,-0.18381768465042114,-0.06066261976957321,-0.3226325511932373
1772094426229400800,5.45640087890625,-0.159224271774292,-0.13388566672801971,-0.2459518313407898
1772094426239349800,5.466349853515625,-0.15833690762519836,-0.22663797438144684,-0.1839318722486496
1772094426249299700,5.4762998046875,-0.17065393924713135,-0.2657162845134735,-0.1008775383234024
1772094426259250000,5.48625,-0.18595273792743683,-0.25283271074295044,-0.0013922257348895073
1772094426269198800,5.49619873046875,-0.1951053887605667,-0.21683429181575775,0.13254518806934357
1772094426279148800,5.506148681640625,-0.18778543174266815,-0.13887451589107513,0.286482572555542
1772094426289099000,5.51609912109375,-0.15875659883022308,-0.040368594229221344,0.415687620639801
1772094426299048000,5.5260478515625,-0.1305827498435974,0.024491626769304276,0.4677731692790985
1772094426308998000,5.535997802734375,-0.09992384910583496,0.06921415776014328,0.42131537199020386
1772094426318946800,5.54594677734375,-0.0617745965719223,0.12393998354673386,0.2919267416000366
1772094426328896800,5.555896728515625,-0.02713174559175968,0.19174562394618988,0.148796945810318
1772094426338847000,5.565846923828125,-0.004217641428112984,0.25232186913490295,0.0403522253036499
1772094426348796000,5.5757958984375,-0.0027833874337375164,0.29719939827919006,-0.010548821650445461
1772094426358745900,5.585745849609375,-0.023713968694210052,0.3211393356323242,-0.008414563722908497
1772094426368694800,5.59569482421875,-0.04740395396947861,0.33542993664741516,0.012522474862635136
1772094426378645000,5.60564501953125,-0.0688791573047638,0.3238595426082611,0.024095240980386734
1772094426388595000,5.615594970703125,-0.09919682890176773,0.2870555520057678,0.007525750435888767
1772094426398544000,5.6255439453125,-0.12372720241546631,0.22342999279499054,-0.017050165683031082
1772094426408493800,5.635493896484375,-0.14059486985206604,0.1525900959968567,-0.03582793474197388
1772094426418444000,5.645444091796875,-0.13234812021255493,0.07213813811540604,-0.025188876315951347
1772094426428393000,5.65539306640625,-0.13582631945610046,-0.004978346172720194,-0.01231427863240242
1772094426438343000,5.665343017578125,-0.16078174114227295,-0.06834480166435242,-0.019996700808405876
1772094426448291800,5.675291748046875,-0.22805534303188324,-0.11658328026533127,-0.06205537170171738
1772094426458242000,5.685241943359375,-0.296383261680603,-0.0759519636631012,-0.15066033601760864
1772094426468191700,5.695191650390625,-0.3246673047542572,0.030047733336687088,-0.24465283751487732
1772094426478141000,5.705140869140625,-0.3108750581741333,0.1659187525510788,-0.29235005378723145
1772094426488091000,5.7150908203125,-0.27159735560417175,0.28842708468437195,-0.2739298939704895
1772094426498040800,5.725040771484375,-0.22306764125823975,0.3928735852241516,-0.20133398473262787
1772094426507989800,5.73498974609375,-0.16975539922714233,0.4783465266227722,-0.1072094514966011
1772094426517939700,5.744939697265625,-0.10189379006624222,0.51929771900177,-0.022753693163394928
1772094426527889000,5.754888916015625,-0.03043374791741371,0.4676792025566101,0.04708656296133995
1772094426537838800,5.7648388671875,0.03610639274120331,0.3046833574771881,0.12270861864089966
1772094426547788800,5.774788818359375,0.06383531540632248,0.07199615240097046,0.20577079057693481
1772094426557737700,5.78473779296875,0.05597233027219772,-0.18747828900814056,0.2752430737018585
1772094426567687700,5.794687744140625,0.03361957520246506,-0.4263070225715637,0.29936572909355164
1772094426577636900,5.804636962890625,0.028846126049757004,-0.6159510016441345,0.2378738820552826
1772094426587586800,5.8145869140625,0.03183209151029587,-0.7878236174583435,0.1164998710155487
1772094426597536800,5.824536865234375,0.05007287859916687,-1.0178333520889282,0.010915916413068771
1772094426607485700,5.834485595703125,0.09639056771993637,-1.2234562635421753,0.016556046903133392
1772094426617436000,5.844435791015625,0.17790567874908447,-1.2739663124084473,0.18813394010066986
1772094426627385900,5.8543857421875,0.22550202906131744,-1.2037557363510132,0.49770691990852356
1772094426637334800,5.864334716796875,0.22498804330825806,-1.0297434329986572,0.8956114053726196
1772094426647285000,5.874284912109375,0.1565229892730713,-0.7969061136245728,1.246260166168213
1772094426657234000,5.88423388671875,0.06305935978889465,-0.5398029685020447,1.4280089139938354
1772094426667183900,5.894183837890625,-0.032270342111587524,-0.3186861574649811,1.399227499961853
1772094426677133800,5.9041337890625,-0.13907961547374725,-0.16052980720996857,1.197731852531433
1772094426687082800,5.914082763671875,-0.23665758967399597,-0.055883340537548065,0.929506242275238
1772094426697033000,5.924032958984375,-0.34386366605758667,-0.07995698601007462,0.6354644894599915
1772094426706982000,5.93398193359375,-0.4181186556816101,-0.2362375408411026,0.3180546462535858
1772094426716931800,5.943931884765625,-0.4510081708431244,-0.44475558400154114,-0.004019813146442175
1772094426726882000,5.953882080078125,-0.4317179024219513,-0.5699262619018555,-0.3011660873889923
1772094426736831000,5.9638310546875,-0.3708212375640869,-0.49644404649734497,-0.5313846468925476
1772094426746781000,5.973781005859375,-0.3136022090911865,-0.24696631729602814,-0.676119863986969
1772094426756731000,5.98373095703125,-0.2639278471469879,0.05843007564544678,-0.7298259735107422
1772094426766679800,5.9936796875,-0.23149961233139038,0.29158642888069153,-0.6891079545021057
1772094426776630000,6.003630126953125,-0.20799854397773743,0.4217897057533264,-0.5524281859397888
1772094426786579000,6.013578857421875,-0.19147244095802307,0.4889523684978485,-0.31653955578804016
1772094426796529000,6.02352880859375,-0.1880265772342682,0.5839741826057434,-0.007760958280414343
1772094426806479000,6.03347900390625,-0.21454545855522156,0.6581176519393921,0.3104662299156189
1772094426816428000,6.043427978515625,-0.2518204152584076,0.6813939809799194,0.5727638602256775
1772094426826378000,6.0533779296875,-0.28608238697052,0.6504276394844055,0.7203990817070007
1772094426836327700,6.06332763671875,-0.275922954082489,0.5687268972396851,0.744377613067627
1772094426846276900,6.07327685546875,-0.19282647967338562,0.48128530383110046,0.6956018805503845
1772094426856226800,6.083226806640625,-0.07347772270441055,0.4011017680168152,0.6322740316390991
1772094426866176000,6.093176025390625,0.021442299708724022,0.32965290546417236,0.6006807088851929
1772094426876125700,6.103125732421875,0.06815068423748016,0.2738295793533325,0.609794020652771
1772094426886076000,6.113075927734375,0.0757235735654831,0.2741369307041168,0.6439009308815002
1772094426896024800,6.12302490234375,0.07110006362199783,0.3535792827606201,0.6837207674980164
1772094426905974800,6.132974853515625,0.07843063026666641,0.49179399013519287,0.7111377716064453
1772094426915924700,6.1429248046875,0.11321763694286346,0.6177226305007935,0.7252200245857239
1772094426925873700,6.152873779296875,0.16803637146949768,0.6964753270149231,0.7448998093605042
1772094426935824000,6.162823974609375,0.22035150229930878,0.6926827430725098,0.7504122853279114
1772094426945772800,6.172772705078125,0.25313881039619446,0.6180545687675476,0.7199614644050598
1772094426955722800,6.18272265625,0.2874879837036133,0.5114250779151917,0.6426318287849426
1772094426965673000,6.1926728515625,0.3239741921424866,0.3736806809902191,0.5535712838172913
1772094426975622000,6.202621826171875,0.3569182753562927,0.2699665427207947,0.4739803671836853
1772094426985571800,6.21257177734375,0.3638555407524109,0.21468409895896912,0.4027795195579529
1772094426995520800,6.222520751953125,0.3300328552722931,0.2502410411834717,0.31255829334259033
1772094427005470700,6.232470703125,0.2988065779209137,0.35471969842910767,0.20370157063007355
1772094427015421000,6.2424208984375,0.28467345237731934,0.5046026706695557,0.12558040022850037
1772094427025369900,6.252369873046875,0.28506356477737427,0.6635528206825256,0.10279904305934906
1772094427035319800,6.26231982421875,0.27331531047821045,0.7854779362678528,0.11852341145277023
1772094427045270000,6.27227001953125,0.2632111608982086,0.8290016055107117,0.14734786748886108
1772094427055219000,6.282218994140625,0.2689515948295593,0.8587568402290344,0.16623660922050476
1772094427065169000,6.2921689453125,0.2816644310951233,0.8630298376083374,0.15381234884262085
1772094427075117800,6.302117919921875,0.3026794195175171,0.7669155597686768,0.11687617003917694
1772094427085068000,6.312068115234375,0.33385148644447327,0.5991308093070984,0.10917589068412781
1772094427095018500,6.3220185546875,0.3805798590183258,0.3970056176185608,0.15876901149749756
1772094427104967400,6.331967529296875,0.399512380361557,0.03213236480951309,0.1965503990650177
1772094427114917400,6.34191748046875,0.2950853109359741,-0.7416709065437317,0.11941326409578323
1772094427124867300,6.351867431640625,0.014262033626437187,-1.8452703952789307,-0.1338699609041214
1772094427134816500,6.36181640625,-0.38347893953323364,-2.7547380924224854,-0.47962841391563416
1772094427144766200,6.37176611328125,-0.7936899662017822,-3.1628806591033936,-0.8367027044296265
1772094427154715400,6.38171533203125,-0.9864698052406311,-3.0077731609344482,-1.131438970565796
1772094427164665300,6.391665283203125,-0.9697808623313904,-2.2062771320343018,-1.3204874992370605
1772094427174615300,6.401615234375,-0.8354406356811523,-1.0211892127990723,-1.381574034690857
1772094427184564500,6.411564453125,-0.6701082587242126,0.1215997114777565,-1.3612116575241089
1772094427194514200,6.42151416015625,-0.5227105021476746,0.9177564978599548,-1.3122832775115967
1772094427204464400,6.43146435546875,-0.41347041726112366,1.3894442319869995,-1.2597284317016602
1772094427214413300,6.441413330078125,-0.31619659066200256,1.633958101272583,-1.1542757749557495
1772094427224363300,6.45136328125,-0.28286048769950867,1.6618746519088745,-1.0045617818832397
1772094427234312200,6.461312255859375,-0.3007979691028595,1.5131256580352783,-0.8310970067977905
1772094427244262100,6.47126220703125,-0.3143762946128845,1.2860041856765747,-0.6406195163726807
1772094427254212400,6.48121240234375,-0.2910829484462738,1.0033997297286987,-0.45984387397766113
1772094427264161300,6.491161376953125,-0.2293093353509903,0.6907303929328918,-0.29626747965812683
1772094427274111200,6.501111328125,-0.11644722521305084,0.4216328561306,-0.13674786686897278
1772094427284060200,6.51106005859375,0.021809589117765427,0.2555953860282898,0.011541023850440979
1772094427294010400,6.52101025390625,0.15710563957691193,0.16363723576068878,0.14200210571289062
1772094427303960300,6.530960205078125,0.2622779905796051,0.10625742375850677,0.26897409558296204
1772094427313909200,6.5409091796875,0.31269827485084534,0.06411290168762207,0.367648720741272
1772094427323859200,6.550859130859375,0.31776925921440125,0.005398957058787346,0.43724799156188965
1772094427333809400,6.560809326171875,0.28222164511680603,-0.07090247422456741,0.46201378107070923
1772094427343758300,6.57075830078125,0.2135426104068756,-0.1413956731557846,0.4468333125114441
1772094427353708300,6.580708251953125,0.14018690586090088,-0.2004949450492859,0.3731692135334015
1772094427363657200,6.5906572265625,0.10291106253862381,-0.21471747756004333,0.24578408896923065
1772094427373607400,6.600607421875,0.10968533903360367,-0.1933373510837555,0.08744291961193085
1772094427383557400,6.610557373046875,0.14772780239582062,-0.162385031580925,-0.058852244168519974
1772094427393506300,6.62050634765625,0.1928260326385498,-0.08916833996772766,-0.15475454926490784
1772094427403456300,6.630456298828125,0.23843145370483398,0.016500158235430717,-0.17246703803539276
1772094427413406500,6.640406494140625,0.2715078890323639,0.10800637304782867,-0.1354919821023941
1772094427423355400,6.65035546875,0.2819750905036926,0.18024767935276031,-0.08897019922733307
1772094427433305300,6.660305419921875,0.2755398154258728,0.20263980329036713,-0.06593598425388336
1772094427443254300,6.670254150390625,0.24107390642166138,0.11427018791437149,-0.09143213927745819
1772094427453204500,6.68020458984375,0.171280175447464,-0.13717056810855865,-0.15047389268875122
1772094427463154400,6.690154541015625,0.07387495785951614,-0.4742567241191864,-0.22007909417152405
1772094427473103400,6.700103271484375,-0.0175566878169775,-0.776547908782959,-0.26633045077323914
1772094427483053600,6.710053466796875,-0.06870812177658081,-0.9587414860725403,-0.30367380380630493
1772094427493003300,6.720003173828125,-0.07924012094736099,-1.0450773239135742,-0.32772427797317505
1772094427502952400,6.729952392578125,-0.06049013137817383,-0.9877331256866455,-0.3050982356071472
1772094427512902100,6.739902099609375,-0.037003178149461746,-0.8357023596763611,-0.24004411697387695
1772094427522851300,6.749851318359375,-0.021821629256010056,-0.6840656995773315,-0.1349141150712967
1772094427532801300,6.75980126953125,-0.022701004520058632,-0.5241854786872864,0.017948398366570473
1772094427542751200,6.769751220703125,-0.029492495581507683,-0.3855876922607422,0.18399615585803986
1772094427552700200,6.7797001953125,-0.06431679427623749,-0.32234081625938416,0.30150094628334045
1772094427562650400,6.789650390625,-0.1153830736875534,-0.3065594732761383,0.3581967353820801
1772094427572599300,6.799599365234375,-0.17746029794216156,-0.2988400161266327,0.3551357090473175
1772094427582549200,6.80954931640625,-0.25025662779808044,-0.25585687160491943,0.29624345898628235
1772094427592499200,6.819499267578125,-0.3093801438808441,-0.17545418441295624,0.20227143168449402
1772094427602448100,6.8294482421875,-0.33440080285072327,-0.06543580442667007,0.10353101044893265
1772094427612398300,6.8393984375,-0.33259838819503784,0.046117622405290604,0.021186865866184235
1772094427622348300,6.849348388671875,-0.3125462830066681,0.13139525055885315,-0.0433255210518837
1772094427632297200,6.859297119140625,-0.28841882944107056,0.19485706090927124,-0.0960230827331543
1772094427642247400,6.869247314453125,-0.2609623074531555,0.242540180683136,-0.13491198420524597
1772094427652196400,6.8791962890625,-0.2343546599149704,0.264278769493103,-0.16626617312431335
1772094427662146300,6.889146240234375,-0.21480053663253784,0.2648228704929352,-0.18970848619937897
1772094427672096300,6.89909619140625,-0.20564085245132446,0.2264922708272934,-0.20456865429878235
1772094427682045200,6.909045166015625,-0.19457851350307465,0.13997802138328552,-0.22157514095306396
1772094427691995400,6.918995361328125,-0.1834757924079895,0.029374003410339355,-0.23332607746124268
1772094427701945300,6.9289453125,-0.1632692962884903,-0.08024138957262039,-0.23888801038265228
1772094427711894300,6.938894287109375,-0.1284436732530594,-0.16122332215309143,-0.2194027304649353
1772094427721844500,6.948844482421875,-0.1104535311460495,-0.20430970191955566,-0.17514842748641968
1772094427731793400,6.95879345703125,-0.09569722414016724,-0.22594869136810303,-0.13085366785526276
1772094427741743400,6.968743408203125,-0.07789009809494019,-0.22350788116455078,-0.10294170677661896
1772094427751693300,6.978693359375,-0.04784165695309639,-0.18533386290073395,-0.09424115717411041
1772094427761642200,6.988642333984375,-0.0118563799187541,-0.128282368183136,-0.08351072669029236
1772094427771592400,6.998592529296875,0.011970389634370804,-0.07424044609069824,-0.06643134355545044
1772094427781541400,7.008541259765625,0.02377794124186039,-0.05197397992014885,-0.05213090777397156
1772094427791491300,7.0184912109375,0.03185131400823593,-0.04921361058950424,-0.03662731498479843
1772094427801441500,7.028441650390625,0.031133871525526047,-0.05065317079424858,-0.036907393485307693
1772094427811390500,7.038390380859375,0.03477654233574867,-0.07855990529060364,-0.055509041994810104
1772094427821340400,7.04834033203125,0.029937321320176125,-0.11058951169252396,-0.07979379594326019
1772094427831290400,7.058290283203125,0.015016695484519005,-0.10515160113573074,-0.09821807593107224
1772094427841239300,7.0682392578125,0.008223893120884895,-0.06216278672218323,-0.10051123052835464
1772094427851189200,7.078189208984375,0.016655994579195976,0.020707858726382256,-0.0764508992433548
1772094427861139200,7.08813916015625,0.029864778742194176,0.12372500449419022,-0.03146684914827347
1772094427871088400,7.09808837890625,0.033582549542188644,0.24537581205368042,-0.006823286414146423
1772094427881038300,7.108038330078125,0.03767654299736023,0.35918641090393066,-0.013853270560503006
1772094427890987500,7.117987548828125,0.0774572491645813,0.47357451915740967,-0.007696306798607111
1772094427900937200,7.127937255859375,0.14692813158035278,0.5398709774017334,0.0478796511888504
1772094427910887200,7.13788720703125,0.21082641184329987,0.5106726288795471,0.15049897134304047
1772094427920836000,7.147836181640625,0.2542404234409332,0.34587475657463074,0.2572222352027893
1772094427930786300,7.157786376953125,0.25451022386550903,0.05969145521521568,0.315593421459198
1772094427940735200,7.1677353515625,0.2166278213262558,-0.29469892382621765,0.28259381651878357
1772094427950685200,7.177685302734375,0.17691315710544586,-0.7074864506721497,0.187496617436409
1772094427960635400,7.187635498046875,0.21251924335956573,-1.084046721458435,0.12681913375854492
1772094427970584300,7.197584228515625,0.2798849642276764,-1.4321186542510986,0.16646960377693176
1772094427980534300,7.2075341796875,0.3039470314979553,-1.7380810976028442,0.34189751744270325
1772094427990484200,7.217484130859375,0.24970456957817078,-1.8597207069396973,0.6236048340797424
1772094428000433400,7.227433349609375,0.14991125464439392,-1.7244157791137695,0.9076603651046753
1772094428010383400,7.23738330078125,0.038556765764951706,-1.3565623760223389,1.052482008934021
1772094428020332300,7.247332275390625,-0.06417956203222275,-0.8390358686447144,0.9820210933685303
1772094428030282200,7.2572822265625,-0.09787680953741074,-0.2963652014732361,0.7050771117210388
1772094428040232400,7.267232421875,-0.08160562068223953,0.07552684843540192,0.2894361913204193
1772094428050181400,7.277181396484375,-0.06962352246046066,0.21140612661838531,-0.15884917974472046
1772094428060131300,7.28713134765625,-0.04849054291844368,0.21002528071403503,-0.5083501935005188
1772094428070080300,7.297080322265625,-0.00979534536600113,0.07835991680622101,-0.7282958626747131
1772094428080030500,7.307030517578125,-0.02500530146062374,-0.20621153712272644,-0.815486490726471
1772094428089980400,7.31698046875,-0.10783280432224274,-0.6743574142456055,-0.7541677355766296
1772094428099930400,7.326930419921875,-0.17573368549346924,-1.101516842842102,-0.5667785406112671
1772094428109880300,7.33688037109375,-0.2043786346912384,-1.253049612045288,-0.3145018219947815
1772094428119830000,7.346830078125,-0.19577287137508392,-1.1415811777114868,-0.09901020675897598
1772094428129779200,7.356779296875,-0.17184382677078247,-0.8025844693183899,0.035658128559589386
1772094428139729200,7.366729248046875,-0.15989069640636444,-0.3351425528526306,0.05831163376569748
1772094428149678300,7.37667822265625,-0.1569598913192749,0.17395026981830597,-0.03484121337532997
1772094428159628000,7.3866279296875,-0.17752587795257568,0.6511635184288025,-0.17342722415924072
1772094428169578200,7.396578125,-0.20760361850261688,1.02989661693573,-0.3046398460865021
1772094428179527200,7.406527099609375,-0.23890462517738342,1.2678371667861938,-0.40177372097969055
1772094428189477000,7.41647705078125,-0.245194211602211,1.376921534538269,-0.4552888870239258
1772094428199427000,7.426427001953125,-0.22415049374103546,1.3668378591537476,-0.4519495964050293
1772094428209376000,7.4363759765625,-0.1714334934949875,1.2090258598327637,-0.4034544825553894
1772094428219326200,7.446326171875,-0.0902552604675293,1.0025936365127563,-0.31853118538856506
1772094428229275100,7.456275146484375,-0.03194907680153847,0.8596472144126892,-0.2168692648410797
1772094428239225000,7.46622509765625,0.06205389276146889,0.7475314736366272,-0.06381041556596756
1772094428249175300,7.47617529296875,0.18950265645980835,0.715109646320343,0.11555986851453781
1772094428259124200,7.486124267578125,0.32412800192832947,0.7330809831619263,0.2807064652442932
1772094428269074200,7.49607421875,0.41370609402656555,0.7593181729316711,0.3951813876628876
1772094428279023000,7.506023193359375,0.4438706934452057,0.7632904052734375,0.4661569893360138
1772094428288973000,7.51597314453125,0.4239180386066437,0.7135907411575317,0.4930461347103119
1772094428298923300,7.52592333984375,0.36655324697494507,0.5909540057182312,0.4746246933937073
1772094428308872200,7.5358720703125,0.29555070400238037,0.4453195631504059,0.43367061018943787
1772094428318822100,7.545822265625,0.26256081461906433,0.3037538230419159,0.3669995963573456
1772094428328772400,7.5557724609375,0.2759178876876831,0.19011834263801575,0.30620867013931274
1772094428338721300,7.56572119140625,0.28933683037757874,0.08821175247430801,0.23619255423545837
1772094428348671200,7.575671142578125,0.2864038944244385,0.03878987580537796,0.1552889347076416
1772094428358620200,7.5856201171875,0.29558753967285156,0.14249800145626068,0.09920051693916321
1772094428368570000,7.595570068359375,0.30258792638778687,0.3078800439834595,0.0774075984954834
1772094428378520300,7.605520263671875,0.28371280431747437,0.3935011625289917,0.09576856344938278
1772094428388469200,7.61546923828125,0.2628594636917114,0.3427197337150574,0.18042166531085968
1772094428398419200,7.625419189453125,0.25412046909332275,0.2602299153804779,0.3293378949165344
1772094428408369400,7.635369384765625,0.24970975518226624,0.24711915850639343,0.5073979496955872
1772094428418318300,7.645318359375,0.22448407113552094,0.2696582078933716,0.6154704689979553
1772094428428268300,7.655268310546875,0.18339894711971283,0.2715652883052826,0.5821968913078308
1772094428438217200,7.66521728515625,0.16770243644714355,0.21323198080062866,0.4335114657878876
1772094428448167200,7.675167236328125,0.18187977373600006,0.15241017937660217,0.2740781307220459
1772094428458117000,7.6851171875,0.1864459067583084,0.10917484015226364,0.2053503692150116
1772094428468066300,7.69506640625,0.16804905235767365,0.09139051288366318,0.27137014269828796
1772094428478016300,7.705016357421875,0.1280634105205536,0.08387760072946548,0.4041536748409271
1772094428487966200,7.71496630859375,0.03495875746011734,-0.03710368275642395,0.4563809335231781
1772094428497915400,7.724915283203125,-0.13041770458221436,-0.3459671437740326,0.3009755313396454
1772094428507865000,7.734864990234375,-0.3745725750923157,-0.9378634095191956,-0.10672486573457718
1772094428517814300,7.744814208984375,-0.5818679332733154,-1.5619248151779175,-0.6062520742416382
1772094428527764200,7.75476416015625,-0.7257118821144104,-1.9583464860916138,-1.004525065422058
1772094428537714200,7.764714111328125,-0.8365190029144287,-2.0418946743011475,-1.2175533771514893
1772094428547663000,7.7746630859375,-0.8348164558410645,-1.7473430633544922,-1.234686017036438
1772094428557613000,7.784613037109375,-0.7493447661399841,-1.0716279745101929,-1.127079963684082
1772094428567562000,7.79456201171875,-0.6334033012390137,-0.2779091000556946,-0.9885603785514832
1772094428577512200,7.80451220703125,-0.49013200402259827,0.3975580036640167,-0.8881397843360901
1772094428587462100,7.814462158203125,-0.376101553440094,0.7978713512420654,-0.8716273903846741
1772094428597411000,7.8244111328125,-0.38134142756462097,0.9373581409454346,-0.8477492332458496
1772094428607361300,7.834361328125,-0.4486925005912781,0.9622706770896912,-0.7247676253318787
1772094428617311200,7.844311279296875,-0.5386258363723755,0.8541163206100464,-0.5516968965530396
1772094428627260200,7.85426025390625,-0.6082174181938171,0.6862117648124695,-0.3952537775039673
1772094428637210000,7.864210205078125,-0.6206761002540588,0.5388445258140564,-0.28654253482818604
1772094428647159000,7.874158935546875,-0.5596505403518677,0.46146586537361145,-0.22369034588336945
1772094428657109200,7.884109130859375,-0.43581634759902954,0.4764777719974518,-0.1797347217798233
1772094428667059200,7.89405908203125,-0.28163397312164307,0.49181944131851196,-0.14787159860134125
1772094428677008100,7.904008056640625,-0.13082925975322723,0.48613226413726807,-0.13177253305912018
1772094428686958300,7.913958251953125,-0.008931851014494896,0.44730550050735474,-0.11094900220632553
1772094428696908300,7.923908203125,0.07067345827817917,0.36650148034095764,-0.0900307297706604
1772094428706857200,7.933857177734375,0.11594905704259872,0.2469247579574585,-0.06349925696849823
1772094428716807200,7.94380712890625,0.14877557754516602,0.10482325404882431,-0.023796232417225838
1772094428726756000,7.953756103515625,0.15783700346946716,-0.04574095830321312,0.03926662355661392
1772094428736706300,7.963706298828125,0.18882425129413605,-0.14107459783554077,0.10898521542549133
1772094428746656300,7.97365625,0.24247150123119354,-0.19545848667621613,0.18363921344280243
1772094428756605200,7.983605224609375,0.3077245354652405,-0.22302576899528503,0.25065481662750244
1772094428766555400,7.993555419921875,0.3818994164466858,-0.23399293422698975,0.3260265290737152
1772094428776504300,8.00350439453125,0.4450910687446594,-0.2354058474302292,0.395490825176239
1772094428786454300,8.013454345703124,0.47952255606651306,-0.22300909459590912,0.4665173292160034
1772094428796404200,8.023404296875,0.5136002898216248,-0.19802260398864746,0.5203303694725037
1772094428806353200,8.033353271484375,0.5600476861000061,-0.14667126536369324,0.5686275959014893
1772094428816303400,8.043303466796875,0.6107262969017029,-0.10178805887699127,0.608369767665863
1772094428826253000,8.053253173828125,0.6611739993095398,-0.08932686597108841,0.6464399695396423
1772094428836202200,8.0632021484375,0.7092000246047974,-0.13407528400421143,0.6500810980796814
1772094428846152200,8.073152099609375,0.7522337436676025,-0.2571948170661926,0.5834240317344666
1772094428856101400,8.083101318359375,0.7994221448898315,-0.39589062333106995,0.4797362685203552
1772094428866051000,8.093051025390626,0.8450202345848083,-0.45724931359291077,0.4128190279006958
1772094428876001000,8.1030009765625,0.8517754673957825,-0.38163870573043823,0.4386340379714966
1772094428885950200,8.1129501953125,0.8188894391059875,-0.28413185477256775,0.5302057266235352
1772094428895900200,8.122900146484374,0.74531090259552,-0.2871910333633423,0.5920301675796509
1772094428905850000,8.13285009765625,0.6438987851142883,-0.4084562361240387,0.5790458917617798
1772094428915799000,8.142799072265625,0.5439218282699585,-0.5027857422828674,0.5065532326698303
1772094428925749200,8.152749267578125,0.46750032901763916,-0.5118021368980408,0.3929782509803772
1772094428935698200,8.1626982421875,0.3822059631347656,-0.4898618161678314,0.2652026116847992
1772094428945648000,8.172648193359375,0.2939847707748413,-0.4442583918571472,0.1197897419333458
1772094428955598000,8.18259814453125,0.18082642555236816,-0.350131630897522,-0.005374855827540159
1772094428965547000,8.192547119140626,0.034099288284778595,-0.2548679709434509,-0.11641669273376465
1772094428975497200,8.202497314453124,-0.1123485416173935,-0.14482104778289795,-0.1976156234741211
1772094428985446100,8.212446044921874,-0.2228042036294937,-0.03757556527853012,-0.2408435195684433
1772094428995396000,8.22239599609375,-0.28875404596328735,0.09692785143852234,-0.2378542274236679
1772094429005346300,8.23234619140625,-0.32305529713630676,0.2671411335468292,-0.1914539635181427
1772094429015295200,8.242295166015625,-0.35081222653388977,0.3929014205932617,-0.139305979013443
1772094429025245200,8.2522451171875,-0.3545691668987274,0.44008171558380127,-0.11153001338243484
1772094429035195100,8.262195068359375,-0.3193676471710205,0.428645521402359,-0.09347863495349884
1772094429045144300,8.272144287109375,-0.2676144242286682,0.3852168321609497,-0.062467191368341446
1772094429055094300,8.28209423828125,-0.20377546548843384,0.33631041646003723,-0.009385932236909866
1772094429065043200,8.292043212890626,-0.1289728581905365,0.31583017110824585,0.06558844447135925
1772094429074993200,8.3019931640625,-0.050319455564022064,0.31918865442276,0.14261780679225922
1772094429084943400,8.311943359375,0.001855333335697651,0.31560003757476807,0.21678976714611053
1772094429094892300,8.321892333984374,0.024468183517456055,0.3068748712539673,0.27268147468566895
1772094429104841200,8.33184130859375,0.032837167382240295,0.3041888177394867,0.30636006593704224
1772094429114791200,8.341791259765625,0.03730009123682976,0.29486510157585144,0.3220980167388916
1772094429124740000,8.351739990234375,0.04004368185997009,0.27390122413635254,0.328528493642807
1772094429134690300,8.361690185546875,0.05039127916097641,0.23542745411396027,0.3387146592140198
1772094429144639200,8.37163916015625,0.0649116262793541,0.17235314846038818,0.3348053991794586
1772094429154589200,8.381589111328125,0.08487243205308914,0.10508610308170319,0.3272343575954437
1772094429164539100,8.3915390625,0.10323067009449005,0.07213294506072998,0.2972002923488617
1772094429174488300,8.40148828125,0.11615847051143646,0.08105996996164322,0.26468726992607117
1772094429184438300,8.411438232421874,0.11483541131019592,0.10564520955085754,0.22920329868793488
1772094429194388200,8.42138818359375,0.09974993765354156,0.11677748709917068,0.19907309114933014
1772094429204337200,8.431337158203124,0.0716400071978569,0.07830040156841278,0.18707741796970367
1772094429214287400,8.441287353515625,0.03810778260231018,0.005417659413069487,0.18226344883441925
1772094429224236300,8.451236328125,0.007769848220050335,-0.07643166929483414,0.18163254857063293
1772094429234186200,8.461186279296875,-0.022698834538459778,-0.14518842101097107,0.16770707070827484
1772094429244136200,8.47113623046875,-0.024432020261883736,-0.16066884994506836,0.13556963205337524
1772094429254085400,8.48108544921875,0.011355755850672722,-0.08629091084003448,0.09680415689945221
1772094429264035300,8.491035400390626,0.07735288143157959,0.07687857002019882,0.07043726742267609
1772094429273984300,8.500984375,0.1461208462715149,0.25825461745262146,0.07882572710514069
1772094429283934200,8.510934326171874,0.1756792664527893,0.38000449538230896,0.12194842845201492
1772094429293884200,8.52088427734375,0.13679905235767365,0.39336103200912476,0.15539227426052094
1772094429303833300,8.530833251953124,0.068809874355793,0.31051328778266907,0.148534893989563
1772094429313783300,8.540783203125,-0.006974318064749241,0.16646520793437958,0.07469197362661362
1772094429323733000,8.55073291015625,-0.08205468952655792,0.05178443714976311,-0.04833700880408287
1772094429333682200,8.56068212890625,-0.132603719830513,-0.019131138920783997,-0.1931987702846527
1772094429343632100,8.570632080078125,-0.1658301204442978,-0.10251417756080627,-0.3229389190673828
1772094429353581300,8.580581298828125,-0.18874292075634003,-0.26016783714294434,-0.4068355858325958
1772094429363531000,8.590531005859376,-0.1735176295042038,-0.49118322134017944,-0.42520982027053833
1772094429373481200,8.600481201171876,-0.14965692162513733,-0.7695055603981018,-0.35008689761161804
1772094429383430100,8.61043017578125,-0.11189383268356323,-1.037372350692749,-0.2012161910533905
1772094429393380000,8.620380126953124,-0.033008404076099396,-1.2024766206741333,0.026033248752355576
1772094429403329000,8.6303291015625,0.029229402542114258,-1.210898518562317,0.2967217266559601
1772094429413279200,8.640279296875,0.054015543311834335,-1.1326589584350586,0.518878161907196
1772094429423229200,8.650229248046875,0.0815824568271637,-1.0045052766799927,0.6481104493141174
1772094429433178000,8.66017822265625,0.10294993221759796,-0.8389365077018738,0.7219114899635315
1772094429443128000,8.670128173828125,0.11125712841749191,-0.6685972213745117,0.7902798652648926
1772094429453078300,8.680078369140626,0.11240341514348984,-0.6432257890701294,0.8818969130516052
1772094429463027200,8.690027099609376,0.08074775338172913,-0.8674109578132629,0.9519599080085754
1772094429472977200,8.69997705078125,-0.009508712217211723,-1.2946038246154785,0.8495001196861267
1772094429482926000,8.709926025390626,-0.09479271620512009,-1.473743200302124,0.535807728767395
1772094429492876300,8.719876220703124,-0.08432704210281372,-1.156097650527954,0.13711799681186676
1772094429502826200,8.729826171875,-0.04758421331644058,-0.5738326907157898,-0.23963966965675354
1772094429512775200,8.739775146484375,-0.02927028387784958,0.08454888314008713,-0.5129833817481995
1772094429522725000,8.74972509765625,0.0006332872435450554,0.7094985246658325,-0.6321356296539307
1772094429532674300,8.75967431640625,0.05442426726222038,1.2443262338638306,-0.6138443350791931
1772094429542624300,8.769624267578125,0.11285162717103958,1.62825345993042,-0.5020903944969177
1772094429552574200,8.77957421875,0.17107059061527252,1.8195600509643555,-0.35486531257629395
1772094429562523100,8.789523193359376,0.2317347377538681,1.8002129793167114,-0.21912452578544617
1772094429572473300,8.799473388671874,0.27374467253685,1.544306755065918,-0.11182425916194916
1772094429582423300,8.80942333984375,0.32172709703445435,1.174155831336975,-0.01634727045893669
1772094429592372200,8.819372314453124,0.3903384804725647,0.8238670229911804,0.09326598793268204
1772094429602322200,8.829322265625,0.46526092290878296,0.5498525500297546,0.21186773478984833
1772094429612271400,8.839271240234375,0.5309863090515137,0.3336265981197357,0.3298012614250183
1772094429622221300,8.84922119140625,0.5931791067123413,0.217994824051857,0.45638155937194824
1772094429632171300,8.859171142578125,0.6474015116691589,0.2083318680524826,0.5767958164215088
1772094429642120200,8.8691201171875,0.6911396980285645,0.28392383456230164,0.6774023175239563
1772094429652070400,8.8790703125,0.7008812427520752,0.37453025579452515,0.739926278591156
1772094429662020000,8.88902001953125,0.6649652719497681,0.4628393352031708,0.7782379388809204
1772094429671969300,8.89896923828125,0.5959394574165344,0.5199997425079346,0.7943688631057739
1772094429681919000,8.9089189453125,0.5081115961074829,0.4807279706001282,0.7675638794898987
1772094429691868400,8.918868408203124,0.42070817947387695,0.38844937086105347,0.7040475606918335
1772094429701818000,8.928818115234375,0.3359600305557251,0.3358024060726166,0.641183614730835
1772094429711768000,8.93876806640625,0.23552829027175903,0.299503356218338,0.5823320150375366
1772094429721717000,8.948717041015625,0.13630689680576324,0.2784563899040222,0.5134797692298889
1772094429731667200,8.958667236328125,0.07351793348789215,0.27028903365135193,0.41010773181915283
1772094429741616000,8.9686162109375,0.05895337089896202,0.23799529671669006,0.3057224750518799
1772094429751566000,8.978566162109376,0.06981555372476578,0.1430622637271881,0.22077398002147675
1772094429761516000,8.98851611328125,0.07048427313566208,0.04467257484793663,0.16977818310260773
1772094429771465200,8.99846533203125,0.05752280727028847,-0.007886800915002823,0.1544954478740692
1772094429781415200,9.008415283203124,0.0485847033560276,0.033201247453689575,0.2046254575252533
1772094429791365000,9.018365234375,0.03724433481693268,0.17352692782878876,0.3047237992286682
1772094429801314000,9.02831396484375,0.023369532078504562,0.29553699493408203,0.38786450028419495
1772094429811264300,9.03826416015625,0.026053711771965027,0.3228984475135803,0.4076407253742218
1772094429821214200,9.048214111328125,0.04726738482713699,0.22073426842689514,0.3792079985141754
1772094429831163100,9.0581630859375,0.08740100264549255,0.046304360032081604,0.31545865535736084
1772094429841113000,9.068113037109375,0.1499975323677063,-0.14897166192531586,0.23102979362010956
1772094429851062300,9.078062255859376,0.18812666833400726,-0.38313430547714233,0.09451889991760254
1772094429861012200,9.08801220703125,0.17685644328594208,-0.7124554514884949,-0.09129303693771362
1772094429870962200,9.097962158203124,0.033518675714731216,-1.2902681827545166,-0.34256795048713684
1772094429880911000,9.1079111328125,-0.2243509590625763,-2.1312975883483887,-0.6341867446899414
1772094429890861300,9.117861328125,-0.4792403280735016,-2.829963207244873,-0.8987910151481628
1772094429900810200,9.127810302734375,-0.6847833395004272,-2.908567428588867,-1.089178204536438
1772094429910760200,9.13776025390625,-0.8006048202514648,-2.205322504043579,-1.2096494436264038
1772094429920710100,9.147710205078125,-0.7602669596672058,-0.919532835483551,-1.2824171781539917
1772094429930659300,9.157659423828125,-0.6105253100395203,0.6012052297592163,-1.310064435005188
1772094429940609300,9.167609375,-0.4659670293331146,1.8426928520202637,-1.2964807748794556
1772094429950559200,9.177559326171876,-0.3634706437587738,2.6662380695343018,-1.263672947883606
1772094429960508200,9.187508056640626,-0.29502663016319275,2.968430995941162,-1.2181882858276367
1772094429970458400,9.197458251953124,-0.2834213078022003,2.855837345123291,-1.1715677976608276
1772094429980407300,9.2074072265625,-0.3321734070777893,2.4424853324890137,-1.1303684711456299
1772094429990357200,9.217357177734375,-0.40286511182785034,1.836930513381958,-1.0945755243301392
1772094430000307200,9.22730712890625,-0.4802027642726898,1.0625461339950562,-0.8611637949943542
1772094430010256400,9.23725634765625,-0.3808571994304657,0.134756937623024,-0.6132053732872009
1772094430020206300,9.247206298828125,-0.07115045934915543,-0.07930447906255722,-0.32258340716362
1772094430030156000,9.257156005859375,0.16161538660526276,-0.010805891826748848,-0.005546147003769875
1772094430040105200,9.267105224609375,0.2527993321418762,0.030370306223630905,0.22129179537296295
1772094430050055200,9.27705517578125,0.26174962520599365,0.11433208733797073,0.29826676845550537
1772094430060004400,9.28700439453125,0.21125690639019012,0.24872957170009613,0.28770574927330017
1772094430069954000,9.2969541015625,0.13519497215747833,0.39744359254837036,0.18157704174518585
1772094430079904300,9.306904296875,0.057578470557928085,0.5538811087608337,0.028590427711606026
1772094430089853200,9.316853271484375,-0.023117484524846077,0.6621493697166443,-0.12498818337917328
1772094430099803000,9.326802978515625,-0.10080801695585251,0.6754106283187866,-0.21223920583724976
1772094430109752000,9.336751953125,-0.11897820234298706,0.5756621956825256,-0.24217261373996735
