time,seconds_elapsed,z,y,x
1772044379208419300,0.07741943359375,0.036108839735388754,-0.012505334373190999,0.017394019730202853
1772044379218405000,0.087405029296875,0.03925415202379227,-0.010992518657445906,0.012419044329226017
1772044379228391400,0.097391357421875,0.03401625137031078,-0.004963613756746053,0.010805215924419463
1772044379238376400,0.10737646484375,0.032823242193460465,-0.0063440717970952385,0.012401216411590575
1772044379248362200,0.1173623046875,0.026088965502381323,-0.011133644161187112,0.0194219636275433
1772044379258348300,0.127348388671875,0.03970832553207874,-0.0041414837189018726,0.01405528549524024
1772044379268334300,0.137334228515625,0.03342763782739639,-0.012726320180110632,0.01442543398188427
1772044379278320400,0.1473203125,0.03776420572698116,-0.014649872121214866,0.010170900076255202
1772044379288306200,0.15730615234375,0.03221767751574516,-0.013357201962172984,0.008484499625582247
1772044379298291200,0.167291259765625,0.03669102353751659,-0.011127397083491086,0.011274093811493366
1772044379308277200,0.17727734375,0.02950198881626129,-0.012132519005425274,0.011424699529632926
1772044379318263300,0.18726318359375,0.02994038023352623,-0.009967815252207218,0.015172379891667514
1772044379328249300,0.197249267578125,0.02962123128175735,-0.00974145915042609,0.007895539022795856
1772044379338235400,0.2072353515625,0.04352876060307025,-0.011498933809623121,0.01168740558642894
1772044379348221200,0.21722119140625,0.03423252446949482,-0.01446998550966382,0.018773838449735195
1772044379358206200,0.227206298828125,0.02778700159192085,-0.008723916138336061,0.009662968820426613
1772044379368192500,0.237192626953125,0.03151332863867283,-0.0032226883735507724,0.014576953015476464
1772044379378178300,0.24717822265625,0.03883563435077667,-0.007002170379646122,0.0119689807404764
1772044379388164400,0.257164306640625,0.03328735257387161,-0.0015599793257191777,0.011362356616836041
1772044379398150100,0.267150146484375,0.029388591569662094,-0.008455693656206131,0.009766465727519243
1772044379408136400,0.277136474609375,0.03761223003566265,-0.003266673645749688,0.003971515713166445
1772044379418121200,0.287121337890625,0.03310731983184814,-0.01075301081314683,0.014128095003124326
1772044379428107300,0.297107177734375,0.0407207174450159,-0.004192227525450289,0.012044274466391652
1772044379438093300,0.30709326171875,0.032035306686162945,-0.0066286974247545,0.00866226734528318
1772044379448079400,0.317079345703125,0.03576747895181179,-0.0034052418662235137,0.012052311642374842
1772044379458065200,0.327065185546875,0.03441723338663578,-0.01421845843400806,0.004743449933733791
1772044379468051500,0.337051513671875,0.028427053061127663,-0.016799670566245914,0.00844738248558715
1772044379478036500,0.347036376953125,0.02931201920211315,-0.008237593926116824,0.006892462927475571
1772044379488022300,0.357022216796875,0.038732758498191834,-0.005656126065552235,0.00824203263921663
1772044379498008300,0.36700830078125,0.03677168755829334,-0.007941752784699201,0.011006930775288491
1772044379507994400,0.376994384765625,0.03451777115166187,-0.01204082213398069,0.011410616205353288
1772044379517980400,0.38698046875,0.035409751555323596,-0.00019004267938435077,0.008101235929038376
1772044379527966200,0.39696630859375,0.02971767739355564,-0.004459719355218112,0.007097337849810719
1772044379537952500,0.406952392578125,0.03615150983333587,-0.006130794372595847,0.001390486244019121
1772044379547937300,0.416937255859375,0.04512333631813526,-0.008295936517231166,0.007727799506764859
1772044379557923300,0.42692333984375,0.03225041074156761,-0.0006976634079590439,0.010277904114685953
1772044379567909000,0.4369091796875,0.029112112715840337,0.0013600728394463656,0.010224913552124053
1772044379577895400,0.4468955078125,0.03194412127137184,-0.011112345644831656,0.012947105057630687
1772044379587881200,0.456881103515625,0.030433716708421706,-0.005421002135425805,0.011501911217998713
1772044379597867300,0.4668671875,0.030284663626551626,-0.0025020459488034248,0.007393891377281397
1772044379607852300,0.476852294921875,0.026835399955511093,0.0022524916345253586,0.009232596312835812
1772044379617838300,0.48683837890625,0.029828152030706403,-0.009883388371765613,0.0045713995687663555
1772044379627824400,0.496824462890625,0.028776597151160238,-0.007234773559123277,-0.0008213811191730201
1772044379637810200,0.50681005859375,0.04268354195058346,-0.011460282299667597,0.008397424130327999
1772044379647796500,0.51679638671875,0.038486090260744094,-0.01154766832217574,0.008969780658185482
1772044379657782300,0.5267822265625,0.03863046716749668,-0.010256057609058915,0.012185217307042329
1772044379667767300,0.536767333984375,0.032788755401968954,-0.006589132599346339,0.007152812630403786
1772044379677753000,0.546753173828125,0.027700492352247235,-0.003425115610472858,0.004754665447492152
1772044379687739400,0.556739501953125,0.03488426637649536,-0.006480667256191373,0.010102072623744606
1772044379697725200,0.56672509765625,0.034732290685176845,-0.008988010434620082,0.005737319809291512
1772044379707711200,0.576711181640625,0.027101357415318487,-0.0021916648253798485,0.008529854870960116
1772044379717697300,0.586697265625,0.03143208009600639,-0.007183262567594647,0.0067371079689823084
1772044379727683300,0.596683349609375,0.031116438275575635,-0.001945033120550215,0.014616115982085466
1772044379737668400,0.60666845703125,0.029018589213490483,0.006378047131933271,0.004455883430317044
1772044379747654100,0.616654052734375,0.02841828523278236,-0.0018350699400529265,0.00846460761502385
1772044379757640400,0.626640380859375,0.032901568126678465,-0.006274842485785484,0.005936440844275057
1772044379767626200,0.636626220703125,0.03304419146776199,-0.008240151209384202,0.006891951470822095
1772044379777612300,0.6466123046875,0.026600422155857086,-0.007303527946397661,0.00546308771148324
1772044379787598300,0.656598388671875,0.037221184891462325,-0.0033100378634408115,0.009330375865194945
1772044379797583400,0.666583251953125,0.03138239573538303,0.0009921528425067662,0.009374525534175336
1772044379807569200,0.676569091796875,0.029582652837038037,-0.005418992841430008,0.008363832387980073
1772044379817555500,0.686555419921875,0.03452127828299999,-0.009127309307456016,0.006901413418911397
1772044379827541200,0.696541259765625,0.0394528894662857,-0.0059577028280124065,0.00565819015847519
1772044379837527300,0.70652734375,0.03331307153701782,-0.00632240795455873,0.005157181833777577
1772044379847513000,0.71651318359375,0.036003041273355484,-0.004431114315241575,0.00694457670720294
1772044379857499400,0.72649951171875,0.024926935985684393,-0.003826572550833225,0.0022311383192427457
1772044379867484400,0.736484375,0.03344634252786636,-0.005810841703228652,0.00397303181681782
1772044379877470200,0.74647021484375,0.036435587471723554,-0.00431395420897752,0.004002075248211622
1772044379887456500,0.75645654296875,0.033141222101449964,-0.013468918708339333,0.01137024766234681
1772044379897442300,0.7664423828125,0.04226093262434005,-0.008350954640097916,0.010540336176846176
1772044379907428400,0.776428466796875,0.03641571372747421,-0.009696524030156433,0.0008238653372041881
1772044379917414400,0.786414306640625,0.029677345383167266,-0.001273454001918435,0.007463431215845048
1772044379927399400,0.7963994140625,0.03790449098050594,-0.001657667546533048,0.011486823246721178
1772044379937385200,0.80638525390625,0.03626081542670727,-0.00883786137420684,0.0085689082397148
1772044379947371300,0.816371337890625,0.03685352062284946,-0.0013632511772215365,0.007195628858823329
1772044379957357300,0.826357421875,0.03774667007029056,-0.0021957564786076545,0.0033795411693863567
1772044379967343400,0.83634326171875,0.024268179816007613,-0.002553301212005317,0.007007705071289092
1772044379977329400,0.846329345703125,0.035031565892696376,-0.007947305742651223,0.000849072843696922
1772044379987314400,0.856314453125,0.040563481056690213,0.0042324864706024526,0.010044953875336795
1772044379997300500,0.866300537109375,0.03981646208167076,-0.0028744959903880952,0.01014435912920162
1772044380007286500,0.87628662109375,0.02829202850461006,-0.00974686597790569,0.007676051053218543
1772044380017272600,0.8862724609375,0.02529576929807663,-0.0030270562035962937,0.007243669251631945
1772044380027258400,0.89625830078125,0.030825346374511717,-0.00446220357324928,0.012176814804878085
1772044380037244700,0.90624462890625,0.04025251541137695,-0.003760338914208114,-0.001189702974911779
1772044380047229400,0.9162294921875,0.03697042500078678,-0.0008777326826006174,0.003793163471575826
1772044380057215500,0.926215576171875,0.03770809162557125,-0.00003711713999509811,0.006425064611434936
1772044380067201300,0.936201171875,0.038299627777934074,-0.00732018682025373,0.004891059977188706
1772044380077187600,0.9461875,0.044430677878856656,0.0010699673190712928,0.012289956323150544
1772044380087173400,0.95617333984375,0.02841536262333393,0.0020970088118687272,0.006920209450926631
1772044380097159400,0.966159423828125,0.025569910064339636,-0.0014950608633458613,0.007131879440229386
1772044380107145500,0.9761455078125,0.029153029248118398,0.005294891537725925,0.0010931289989501236
1772044380117130500,0.986130615234375,0.042318800291419024,-0.012955745021812617,0.0031133462475612756
1772044380127116500,0.996116455078125,0.04336509447395801,0.0037470775738358496,0.00421646691756323
1772044380137102300,1.006102294921875,0.03528583291471004,0.0006694967593997717,-0.0018386501366272569
1772044380147088600,1.016088623046875,0.04111702328622341,-0.0008006123257800936,0.006120857500471174
1772044380157074400,1.026074462890625,0.030489246287941932,-0.006705196727067232,0.008956701980903745
1772044380167060500,1.036060546875,0.032435704180598254,-0.009045805036462844,0.010240860039927064
1772044380177045200,1.046045166015625,0.03676818042695522,-0.0077288041537627574,0.005525905548315495
1772044380187031600,1.056031494140625,0.031682839986681935,-0.003017557722888887,0.015987166873272507
1772044380197017300,1.066017333984375,0.034973698225617404,-0.0030831337723881006,0.0063048357652500265
1772044380207003400,1.07600341796875,0.034524200892448426,-0.007888122901320457,-0.0018113420045934618
1772044380216989400,1.085989501953125,0.03436930259168148,-0.0005183613182976842,0.007497114289738238
1772044380226975500,1.0959755859375,0.03331716319024563,-0.005920549155399203,0.006263042450137436
1772044380236961300,1.105961181640625,0.02852291465103626,-0.000455671345628798,0.006136529993638396
1772044380246946300,1.1159462890625,0.03674830668270588,-0.008457556819729506,0.0060471346771344536
1772044380256932600,1.1259326171875,0.041676995256543156,-0.0018526421293616293,0.0005752791373059153
1772044380266918400,1.13591845703125,0.03793196350932121,0.0006921835152432322,-0.0015134733028709887
1772044380276904400,1.145904541015625,0.028356910434365272,-0.0034967195419594644,0.010379336928855627
1772044380286890500,1.155890380859375,0.03523907116353511,0.0005877367600798606,0.006785897280462086
1772044380296876500,1.16587646484375,0.03313303879499435,0.0008794497156515717,0.004212503128498793
1772044380306861300,1.175861328125,0.029689035820960996,-0.00041508360691368577,-0.0017982267946936188
1772044380316847400,1.185847412109375,0.035974984222650525,-0.0017048311565071343,0.005015654471237212
1772044380326833400,1.19583349609375,0.03507306694686413,0.003980009546875953,0.012363131157215684
1772044380336819500,1.2058193359375,0.028182138389348983,0.0033293636184185743,0.01282904990222305
1772044380346805200,1.21580517578125,0.03237257581651211,0.0017226956067606805,0.003463456593174487
1772044380356791600,1.22579150390625,0.03940378962755203,0.002970978634804487,0.006450034655909985
1772044380366776600,1.235776611328125,0.036409868508577345,-0.0010450886061415077,0.005841090711019933
1772044380376762400,1.245762451171875,0.04030278429389,-0.0028631343461573123,0.01443124266816303
1772044380386748700,1.255748779296875,0.039407881280779836,-0.001260229194164276,0.0026445779583416876
1772044380396734500,1.265734375,0.03191898683011531,-0.0042030777130275965,-0.002750358154065907
1772044380406720500,1.275720458984375,0.03296294292509556,-0.0017163023985922335,0.007539583458285778
1772044380416706300,1.285706298828125,0.040298692640662194,0.003512866959162056,0.001797971066366881
1772044380426691600,1.295691650390625,0.029227263528108595,-0.007479542100429534,0.0028336342570371926
1772044380436677400,1.305677490234375,0.03356733855903148,-0.006330152869597077,0.0026491445356048643
1772044380446663400,1.315663330078125,0.03715805652737617,-0.001398103294894099,0.00036806612741202116
1772044380456649500,1.3256494140625,0.0384989497423172,-0.008521598499268293,0.00011113222427666186
1772044380466635500,1.335635498046875,0.030420272704958912,-0.0058470820603892205,0.004167768937628716
1772044380476621300,1.345621337890625,0.025188801792263984,-0.0015293284591287374,0.0044913383361883455
1772044380486607600,1.355607666015625,0.03521452124416828,-0.00623323183376342,0.0008271350065246224
1772044380496592600,1.365592529296875,0.033116672182083126,-0.0034282939482480285,0.003980758465547115
1772044380506578400,1.375578369140625,0.03431143492460251,-0.0016205869391560553,0.0031639621899463236
1772044380516564500,1.385564453125,0.03400456093251705,0.0005254851788282394,0.001928410779312253
1772044380526550500,1.395550537109375,0.0266781635671854,0.00014061404708772896,0.004561006038915366
1772044380536536600,1.40553662109375,0.030417934617400166,-0.007467121010273694,0.005155738795362412
1772044380546522400,1.4155224609375,0.028616438153386114,-0.0017282120320945976,0.008015256412327289
1772044380556507400,1.42550732421875,0.03250526228547096,-0.0024347528662532567,0.008010909030772746
1772044380566493400,1.435493408203125,0.035787352696061134,-0.00037098873686045405,0.0018374628265388309
1772044380576479500,1.4454794921875,0.03593172960281372,-0.0003185278972610831,0.0006700264823623002
1772044380586465300,1.45546533203125,0.03189151430130005,-0.003635981882177293,0.0079802216315642
1772044380596451600,1.46545166015625,0.03023965544104576,-0.0011841317506507039,0.006208079126197845
1772044380606437400,1.475437255859375,0.03023264117836952,-0.007057078904658555,0.004757186198141425
1772044380616422400,1.48542236328125,0.029478607940673827,-0.002005385005660355,-0.0008277743273414671
1772044380626408400,1.495408447265625,0.03950432739257812,0.0027068112732842563,0.002669310540799051
1772044380636394500,1.50539453125,0.03620996202230453,0.004416866594180465,0.00013140782732516527
1772044380646380500,1.515380615234375,0.03127016753256321,0.00007390548642724753,0.0011195786144584416
1772044380656366300,1.525366455078125,0.038001521614193914,0.0036580475835129617,0.0013251841891556977
1772044380666352400,1.535352294921875,0.028414778101444244,-0.0013111556638032197,0.006678820176795125
1772044380676337400,1.54533740234375,0.027221768924593923,-0.0014761004345491527,0.01083058782769367
1772044380686323500,1.555323486328125,0.032761282873153684,0.0018252426657825707,0.006907276904117315
1772044380696309200,1.565309326171875,0.033809915143251414,0.007258519760891795,0.0014636245454661546
1772044380706295600,1.575295654296875,0.033953123006224634,0.008859415618889033,-0.0010288681237027048
1772044380716281300,1.58528125,0.032903321692347526,-0.0065672860937193035,0.0035232787553220986
1772044380726267400,1.595267333984375,0.033192660027742384,0.0013033376835286617,0.0013514694078825414
1772044380736252700,1.605252685546875,0.03677870182096958,-0.005445296326465904,0.006587726093549281
1772044380746238500,1.615238525390625,0.041862288695573804,0.0010484496070072055,0.0035251601851545274
1772044380756224500,1.625224609375,0.03093231388032436,0.005949921380355954,0.0027022081634029745
1772044380766210600,1.63521044921875,0.03572071720063686,0.000671031129360199,-0.0018366043100133537
1772044380776196400,1.6451962890625,0.035275311520695685,0.0017986834524199365,-0.001799706365726888
1772044380786182400,1.655182373046875,0.03557575577199459,-0.0017698592167347668,-0.0047369471277110275
1772044380796167400,1.66516748046875,0.0379670348227024,0.007199738778360188,-0.0001682875053025782
1772044380806153500,1.675153564453125,0.041114685198664666,0.002923120905086398,-0.0003710800684057176
1772044380816139500,1.685139404296875,0.0340805487781763,-0.00792582456320524,0.003716938163898885
1772044380826125300,1.695125244140625,0.03766834413707256,0.003018397973105311,0.0033405060669407247
1772044380836111600,1.705111572265625,0.033175708892941476,0.00023274930994957683,0.0021076032711192963
1772044380846097400,1.715097412109375,0.035271804389357564,-0.0025024112749844787,0.004333170366100966
1772044380856082400,1.72508251953125,0.03153261786103249,0.002965389144234359,-0.001042385192401707
1772044380866068500,1.735068359375,0.02584814248383045,-0.002261332528106868,0.00036945436690002676
1772044380876054500,1.745054443359375,0.03572305528819561,-0.0008201207438483834,0.011940777559299022
1772044380886040600,1.75504052734375,0.029449381846189497,-0.0032975802406668663,0.0016971958393231033
1772044380896026400,1.7650263671875,0.032142858713865276,0.001185666120611131,0.005434683600906282
1772044380906012400,1.775012451171875,0.03304185338020325,-0.002905037259124219,0.005713920667394995
1772044380915997400,1.78499755859375,0.04067863186895847,0.002563676475547254,0.010747512654121964
1772044380925983500,1.7949833984375,0.027213585618138313,-0.005884856787510216,0.0036992563767358658
1772044380935969300,1.80496923828125,0.033793548530340195,-0.0028694544890895484,0.0024125410344451666
1772044380945955600,1.81495556640625,0.027358547046780583,0.0025061010694131256,0.0020993286331184207
1772044380955941400,1.82494140625,0.03753858027756214,-0.009901837343908846,0.0073585095366463064
1772044380965927400,1.834927490234375,0.03633446518480778,-0.00807210116609931,0.002228252242412418
1772044380975912000,1.844911865234375,0.030943419796228406,0.004073021592572331,0.0069120992097072296
1772044380985898000,1.85489794921875,0.03483399749398231,-0.002285370990820229,0.0063708136735484
1772044380995884000,1.864884033203125,0.03602700667083263,0.00033423692304641005,0.003911309958528727
1772044381005869800,1.874869873046875,0.03632160570323467,0.0016859437929466366,0.00752973791770637
1772044381015856000,1.884856201171875,0.03438099302947521,0.0032853783462196587,0.006436535853520035
1772044381025841000,1.8948408203125,0.04066577238738536,-0.0007766834609210491,0.010749814209062606
1772044381035827000,1.904826904296875,0.02614917125701904,-0.00001822977643460035,0.004405687613040208
1772044381045812700,1.914812744140625,0.03242284469902515,0.0034968291398137807,0.001326535896025598
1772044381055799000,1.924799072265625,0.03586041793227195,-0.004171111672185361,0.00042456382131204006
1772044381065784800,1.934784912109375,0.037361470144987106,-0.004720196922309697,0.0022852065940387545
1772044381075771000,1.94477099609375,0.03062836249768734,0.005044314310140907,-0.000056680356990545983
1772044381085756000,1.954755859375,0.02404080080091953,0.0002656286662444472,0.0005955912729725242
1772044381095742000,1.964741943359375,0.03572013267874718,-0.0013399798994883894,-0.003624017449747771
1772044381105728000,1.97472802734375,0.022547931894659996,-0.00790562202539295,0.004352733583096414
1772044381115713800,1.9847138671875,0.028690087911486625,-0.00248608119469136,0.006539356907177716
1772044381125700000,1.9947001953125,0.03766600604951381,-0.0016415566619485615,0.003878649797942489
1772044381135686000,2.004685791015625,0.03317629341483116,0.004757204464450478,0.010565890743210911
1772044381145671000,2.0146708984375,0.042159810337424275,0.0035702231695875523,0.0049016909690573806
1772044381155657000,2.024656982421875,0.034382162073254584,0.005114456936903298,0.0038376602004282175
1772044381165643000,2.03464306640625,0.025102292552590368,0.0012632979340851307,-0.002327328702714294
1772044381175628800,2.04462890625,0.031090719312429425,0.0018519480096176265,0.0007443886265158652
1772044381185614800,2.05461474609375,0.02240004785656929,-0.0013113383268937469,0.0018993856142275035
1772044381195600100,2.06460009765625,0.02658931623995304,0.00724478349648416,0.00116513478923589
1772044381205586000,2.0745859375,0.02658931623995304,0.0019484671866521238,0.00710186789445579
1772044381215572000,2.084572021484375,0.03212941471040249,0.002856375811807811,0.007822327656112611
1772044381225558000,2.09455810546875,0.03063479223847389,0.0005428016398102045,0.006310023397020996
1772044381235544000,2.1045439453125,0.030935236489772793,0.010594459250569344,0.003533489622082561
1772044381245529900,2.11452978515625,0.03257715847790241,-0.0013485285321250557,0.0073326079104095694
1772044381255515000,2.124514892578125,0.03766132987439632,0.0012965791491791605,0.005537121062073856
1772044381265501000,2.1345009765625,0.03706336398124695,-0.007208506606705486,-0.002491488022170961
1772044381275487000,2.144487060546875,0.034976036313176154,-0.004153539482876658,0.006019479485228657
1772044381285472800,2.15447265625,0.030784429842233656,0.008315043076500297,-0.0029560915929265318
1772044381295459000,2.164458984375,0.041858197042346,-0.00016808657590299843,0.00040900092599913476
1772044381305444900,2.17444482421875,0.04065934264659881,0.011848916291072964,0.005044314310140907
1772044381315430000,2.184429931640625,0.035866847673058505,0.0033958895159885284,-0.0014209361812099813
1772044381325416000,2.194416015625,0.035413843208551406,-0.0017110782342031597,0.00005470759561285376
1772044381335402000,2.204402099609375,0.034517186629772184,-0.004361775406077504,0.009995963634457438
1772044381345388000,2.214387939453125,0.03137596599459648,-0.0011903422957286237,0.0010966361302882433
1772044381355373800,2.224373779296875,0.03406885834038258,-0.0025099369943141934,-0.0003990640538744628
1772044381365358800,2.23435888671875,0.039004561176896095,-0.007983582632429898,-0.0012969627416692673
1772044381375345000,2.244344970703125,0.03945055137872696,-0.004462386236339808,0.00483525640303269
1772044381385331000,2.2543310546875,0.03646013739109039,0.00489938941411674,0.003785802149027586
1772044381395316700,2.264316650390625,0.037061610415577886,0.003769581666588783,0.0011001067290082574
1772044381405303000,2.274302978515625,0.03601356266736984,-0.0022820465225726365,0.0038660825773142275
1772044381415288800,2.284288818359375,0.033465631750226016,0.007853855305537581,0.007454298061318695
1772044381425273900,2.29427392578125,0.030615503016114234,0.000952441886626184,0.004392700267303735
1772044381435260200,2.30426025390625,0.0336059170037508,0.0001860971566289663,0.004925765964388847
1772044381445246000,2.314245849609375,0.028521161085367203,-0.0003247019097208977,0.0010611629581078886
1772044381455232000,2.32423193359375,0.03196282597184181,-0.0016988032745197414,0.0011602028857916594
1772044381465217800,2.3342177734375,0.031817864543199535,-0.0034352716783061623,0.004354432349838316
1772044381475203000,2.344203125,0.03855506384372711,0.0037290669931098817,0.00715007268404588
1772044381485188900,2.35418896484375,0.042594110101461406,-0.0011930822420865297,0.010122713552974163
1772044381495175000,2.3641748046875,0.0255278244882822,-0.0030584742551669477,0.003534804796334356
1772044381505161000,2.374160888671875,0.028066987577080725,0.0020003069717437027,0.003067205550894141
1772044381515147000,2.38414697265625,0.033149989929795266,-0.003114076899923384,0.005905278521031141
1772044381525132000,2.394132080078125,0.029407296270132062,-0.0042489261487498875,0.0008362316284328699
1772044381535117800,2.404117919921875,0.03539689207375049,0.004608480176143348,0.002949570520594716
1772044381545104100,2.414104248046875,0.028363340175151824,0.001244702831469476,0.008862648755591363
1772044381555090000,2.42408984375,0.036298809349536894,0.0006754881087690591,0.00018174977507442235
1772044381565076000,2.434075927734375,0.04228431349992752,0.0028212679658085106,0.0024925474680960176
1772044381575062000,2.44406201171875,0.02717442265152931,0.0038541546775028106,-0.000403648897446692
1772044381585047000,2.454047119140625,0.028369769915938377,0.0023063772462308405,0.0008586991885676979
1772044381595032800,2.46403271484375,0.03644903147518635,-0.0019037877947092054,0.001261909694597125
1772044381605019000,2.474018798828125,0.02865969277322292,-0.00022496786229312418,-0.003711969727836549
1772044381615005000,2.4840048828125,0.02072247003316879,0.008629735048860311,0.0077699946806766085
1772044381624991000,2.493990966796875,0.041973932376503945,0.002982596007362008,0.0012949899802915752
1772044381634976000,2.50397607421875,0.0326911402463913,-0.0027254794411361214,0.002771273077931255
1772044381644961800,2.5139619140625,0.0346340910077095,0.00013126169685274362,0.007359130591154098
1772044381654948000,2.523947998046875,0.03687865506410599,-0.002394018997065723,0.002579677762277424
1772044381664934000,2.533933837890625,0.021019407153129575,-0.0018062091717496514,0.006987392935622483
1772044381674920000,2.543919921875,0.03628653438985348,-0.006918328021094202,0.0023009704187512397
1772044381684906000,2.553906005859375,0.03733867379128933,-0.0020282178919762374,0.002557082337979227
1772044381694891000,2.56389111328125,0.03614683365821838,-0.009900997093692422,0.003372453841473907
1772044381704876800,2.573876708984375,0.034950317350029944,-0.008327866025455296,0.0004471957782283425
1772044381714862800,2.58386279296875,0.036440848168730736,0.006401464540138841,-0.003400255163852125
1772044381724849000,2.593848876953125,0.03688800741434097,-0.0008661883752793074,0.010079568530991673
1772044381734835000,2.6038349609375,0.028508886125683783,-0.000025718963146209716,0.0040802915835753085
1772044381744820000,2.613820068359375,0.029701310780644415,0.0014149813644587993,0.0025368250012397764
1772044381754806000,2.623805908203125,0.04301671942770481,0.00023556232154369353,-0.0018563501900993287
1772044381764792000,2.6337919921875,0.040027474483847615,0.003356507353670895,0.0006224975462071598
1772044381774777900,2.64377783203125,0.027602877196669578,0.002006736712530255,0.004967175687011331
1772044381784764200,2.65376416015625,0.0279068285793066,-0.0031111177578568455,0.0077708349308930336
1772044381794749000,2.6637490234375,0.028804654201865194,0.0013490765213966369,0.00550022311778739
1772044381804735000,2.67373486328125,0.03329436683654785,0.00211991476342082,0.009696871090028434
1772044381814720800,2.683720703125,0.04047346468567848,-0.003638539165444672,0.006685231651272624
1772044381824707000,2.69370703125,0.03672726389467716,-0.0013024974333122371,0.0016904555712826549
1772044381834692900,2.70369287109375,0.030296938586235046,-0.0013543006857857107,0.004902622550819069
1772044381844678000,2.713677978515625,0.034036125114560126,-0.004129354889690876,0.000264587486628443
1772044381854664000,2.723663818359375,0.039867315486073494,0.00003298895414918661,0.008624766612797975
1772044381864650000,2.73364990234375,0.03642681964337825,-0.0005948240879923105,0.011026512258592993
1772044381874636000,2.743635986328125,0.032386604341864585,-0.0021426745845004916,0.0020139153719879684
1772044381884621800,2.753621826171875,0.02266191366314888,0.001348565064743161,-0.00161899777026847
1772044381894608100,2.763608154296875,0.024305004695057867,-0.00453545147255063,0.004979669842403381
1772044381904593000,2.773593017578125,0.03567629353702068,-0.0006736249452456831,0.004592077030614018
1772044381914579000,2.783578857421875,0.027889292922616004,-0.004215462270565331,-0.00016485343920066953
1772044381924564700,2.793564697265625,0.018466215538978575,-0.0037709699060767886,0.010727182252146304
1772044381934551000,2.803551025390625,0.03432254084050655,0.00038023148924112317,0.008292301521729677
1772044381944536800,2.813536865234375,0.029981881287693975,0.004784750058501958,-0.0009463226730935275
1772044381954521900,2.82352197265625,0.03177460992336273,0.0016583981988951564,0.0039123328718356784
1772044381964508200,2.833508056640625,0.032220600125193594,-0.003306713395193219,0.006625044162943959
1772044381974494700,2.84349462890625,0.030427286967635154,0.0008433189563453197,0.004559983125608414
1772044381984480500,2.85348046875,0.0317716873139143,-0.0005519347943365574,0.005810951301082968
1772044381994466800,2.863466796875,0.03416530445218086,-0.001667166027240455,0.009174600781593472
1772044382004451800,2.873451904296875,0.027725042271614073,0.003630575054697692,0.0020067915114574133
1772044382014437600,2.883437744140625,0.0334141938239336,0.0018839871156960725,-0.0008760339158587157
1772044382024423700,2.893423583984375,0.02937222495675087,-0.0063593789640814065,0.0068442033389583224
1772044382034409700,2.90340966796875,0.034005145454406735,-0.002603533561900258,0.0029608043006621298
1772044382044395800,2.913395751953125,0.03550269053578377,0.000784391843341291,-0.0001835033407434821
1772044382054380500,2.923380615234375,0.02307750872671604,0.00845299024246633,0.004326357032824308
1772044382064366600,2.93336669921875,0.032795185142755506,0.005840323526039719,-0.0016945837571285664
1772044382074352600,2.9433525390625,0.038027240577340124,-0.0034746538406237957,0.004390946701634675
1772044382084338700,2.953338623046875,0.0339893633633852,-0.00020746873822063207,0.006226655962504446
1772044382094324500,2.963324462890625,0.027406477841734885,0.00915346666201949,0.00499572592806071
1772044382104309800,2.973309814453125,0.017083821269869803,0.005241444317437708,-0.0009306684462353586
1772044382114295800,2.9832958984375,0.03069850512444973,-0.004434073457308113,-0.0043952758168801665
1772044382124281600,2.993281494140625,0.030843466553092003,-0.00242127233017236,0.004219791385810822
1772044382134268000,3.003267822265625,0.03771861301958561,0.004704049505107105,-0.0005590221222490072
1772044382144253700,3.013253662109375,0.03203121503293514,-0.006273454246297478,-0.003329071357473731
1772044382154239700,3.02323974609375,0.031132220366597175,0.0018553090104833244,0.0031308088390156626
1772044382164224500,3.033224609375,0.03636310675740242,0.005665661078877747,0.007782434037141501
1772044382174210800,3.0432109375,0.028429975670576094,-0.00018660861328244208,-0.0003885243935510516
1772044382184196600,3.053196533203125,0.029186346995830535,-0.0023980010524392126,0.0025863449650816617
1772044382194182700,3.0631826171875,0.030085341662168502,0.00155486475918442,0.006137516374327242
1772044382204168700,3.073168701171875,0.028436989933252332,-0.0008565072314813733,0.002753390361368656
1772044382214153700,3.08315380859375,0.0272445652782917,0.0013998203279450535,0.007672653519734739
1772044382224139800,3.093139892578125,0.037570728981494904,0.005352613074332475,0.00686396748535335
1772044382234125600,3.10312548828125,0.027392449316382406,0.007444251591339707,0.003922488939668983
1772044382244112000,3.11311181640625,0.027239304581284523,0.0034415187560021877,0.004306264092866331
1772044382254097700,3.12309765625,0.03038812400102615,-0.0010640855675563216,-0.00031885669082403183
1772044382264082700,3.133082763671875,0.024103929165005682,0.0004001417661085725,0.0030943858187645673
1772044382274068500,3.143068359375,0.03323591464757919,-0.0006298954013735055,0.0011642032074742018
1772044382284054800,3.1530546875,0.029345336949825284,0.0040329818431288,0.0038809878855012355
1772044382294040600,3.16304052734375,0.034739304947853086,0.0054533700350672,-0.0007652852840721606
1772044382304026600,3.173026611328125,0.03129588649570942,-0.0021933453258126973,0.0012468034570105374
1772044382314011600,3.18301171875,0.027707506614923477,0.00235558668281883,0.000789415078330785
1772044382323997700,3.192997802734375,0.031142741760611534,0.001860240913927555,0.00548131748791784
1772044382333983700,3.202983642578125,0.022912089031934736,-0.0010293795803561806,0.008414119536802172
1772044382343969500,3.212969482421875,0.020960370442271233,-0.0004493146700784564,-0.00032068332172930237
1772044382353955800,3.222955810546875,0.0296323371976614,-0.0024751214092597366,-0.0021267646293155846
1772044382363940600,3.232940673828125,0.02858253588378429,-0.001438471837900579,0.005272643173299729
1772044382373926700,3.2429267578125,0.032470775493979455,0.0010873568452894687,0.008166702380683273
1772044382383912700,3.25291259765625,0.03620996202230453,-0.00563259905949235,0.005280077561084181
1772044382393898800,3.262898681640625,0.032170915764570235,0.0005968333819881081,0.0006112089672125876
1772044382403884500,3.272884521484375,0.02663724703490734,-0.005581782187707722,-0.0027866533101536333
1772044382413869600,3.28286962890625,0.036360184147953986,0.004793554419465363,0.0034507797746919093
1772044382423855900,3.29285595703125,0.030673370683193205,0.0072007982242852445,0.0013490765213966369
1772044382433841700,3.302841552734375,0.024833997005224227,-0.004696633383631706,-0.005408964637760073
1772044382443827700,3.31282763671875,0.028715222352743146,-0.0020982874535024165,0.008593549490626901
1772044382453813800,3.322813720703125,0.028415947145223615,0.0015525266716256737,0.0035519385942257937
1772044382463798800,3.332798828125,0.03619710254073143,-0.001378814072534442,0.003455200221482664
1772044382473784600,3.34278466796875,0.03260112387537956,-0.0003877206759527325,0.005914484740793704
1772044382483770600,3.3527705078125,0.03349661141037941,0.004175787847302854,0.003965962755214423
1772044382493756700,3.362756591796875,0.0382809230774641,0.0013805311055853963,0.0001372347799129784
1772044382503742700,3.37274267578125,0.029302082329988478,0.005275858043693005,0.0016336108175106345
1772044382513727700,3.382727783203125,0.029752748706936834,0.0020011472219601274,0.005440346156712621
1772044382523713500,3.392713623046875,0.03155249160528183,0.003579173661023378,0.0018955131567083298
1772044382533699800,3.402699951171875,0.03409749991297722,-0.00004376607649028301,-0.0058780434542335565
1772044382543685600,3.412685546875,0.028863106390833854,0.0013147723929956554,0.003950984381791204
1772044382553670700,3.422670654296875,0.03275660669803619,0.0025149054303765296,-0.0007335384389385581
1772044382563656700,3.43265673828125,0.03290273717045784,0.005442300651781261,-0.001797715338040143
1772044382573642800,3.442642822265625,0.03529810787439346,-0.0038230654194951054,0.007985975518915802
1772044382583628500,3.452628662109375,0.03156476656496525,-0.0032985666213557123,0.008301270279474556
1772044382593614600,3.462614501953125,0.038598318463563916,-0.004314209937304258,-0.008998769290652126
1772044382603600000,3.472599853515625,0.029478607940673827,-0.010483619287237525,-0.00013325272453948854
1772044382613585700,3.482585693359375,0.03172843269407749,0.0074895155051723115,-0.0004160882539115846
1772044382623571700,3.49257177734375,0.020362989071011542,0.002191262966580689,0.002445785716921091
1772044382633557800,3.502557861328125,0.023957798692584038,0.0010264569709077477,0.003605148352496326
1772044382643543800,3.512543701171875,0.02320902615189552,-0.0024237200155854226,0.007320369483344256
1772044382653528600,3.522528564453125,0.027547347617149352,-0.006375489848665893,-0.004160955604352057
1772044382663514600,3.5325146484375,0.030246085181832312,0.001773950869962573,0.005186444460880011
1772044382673500700,3.542500732421875,0.02785188352167606,-0.0018355083314701914,0.014157942152116448
1772044382683486700,3.55248681640625,0.027547932139039038,-0.0026912849105894562,-0.004647369148116558
1772044382693472500,3.562472412109375,0.024556933629512785,0.0016187603082507848,-0.0004373137050308287
1772044382703457500,3.57245751953125,0.02845978628695011,-0.0023414120269939303,0.008381514175143092
1772044382713443800,3.58244384765625,0.02621756031811237,0.0013874723030254245,-0.0029264271070249376
1772044382723429600,3.5924296875,0.026813188123703,-0.0028379633722826836,0.0009911847281269728
1772044382733415700,3.602415771484375,0.04267594316601753,-0.004002659770101309,0.010196290245838463
1772044382743401700,3.612401611328125,0.033546295771002765,0.0011655731806531548,-0.00501591019956395
1772044382753386800,3.62238671875,0.03235211755037307,0.0026847090393304824,-0.003138170161563903
1772044382763372500,3.63237255859375,0.02307750872671604,0.002805960798822343,0.009647972180694341
1772044382773358600,3.642358642578125,0.023977087914943695,-0.0006753054456785321,0.002032053816877305
1772044382783344600,3.6523447265625,0.02441898646354675,-0.005402845424227416,-0.0044235337969847025
1772044382793330700,3.66233056640625,0.03339899625480175,0.001445047709159553,0.007724822098389267
1772044382803315700,3.672315673828125,0.032953006052970885,0.00009447335042059421,0.0013828691931441425
1772044382813301800,3.6823017578125,0.028012042519450185,-0.0025743805326521397,-0.0024387349216267464
1772044382823287800,3.692287841796875,0.03399871571362018,0.0015457681372761725,0.002313628970924765
1772044382833273600,3.702273681640625,0.03445464278757572,0.0054571328947320575,0.013761270984727889
1772044382843259600,3.712259765625,0.023235914158821105,0.00613514175415039,0.0031946861217729745
1772044382853244700,3.72224462890625,0.025931729114055634,-0.005320975827053189,0.000169602679554373
1772044382863230700,3.732230712890625,0.025787352207303046,0.008580744807980954,0.00029330212445929644
1772044382873216500,3.742216552734375,0.024146014741063117,-0.00255311854891479,0.005022230342496186
1772044382883202800,3.752202880859375,0.03567337092757225,0.00375463982578367,0.002948090949561447
1772044382893187800,3.762187744140625,0.030139702197909353,-0.00008895692508667707,0.006240081699658185
1772044382903173600,3.772173583984375,0.029842180556058882,0.003297397577576339,0.003980685400310904
1772044382913159700,3.78215966796875,0.029694296517968177,0.0030820377938449383,0.004572276351600885
1772044382923145700,3.792145751953125,0.029543489870429037,0.0010232055678963661,0.010410974176134914
1772044382933131800,3.8021318359375,0.024454642298817632,-0.0027081629801541567,-0.004577811043243855
1772044382943116500,3.812116455078125,0.024610125121474265,-0.006253763165138661,-0.006003259002789855
1772044382953102600,3.8221025390625,0.03344634252786636,0.006205138250440358,0.00443999174144119
1772044382963088600,3.832088623046875,0.03539864563941955,-0.0020183906177058814,0.007938519647996873
1772044382973074200,3.84207421875,0.03434825980365276,-0.005340191984176635,0.00047110637677833433
1772044382983060200,3.852060302734375,0.03793897777199745,-0.0011230492131784557,0.0034684615618549284
1772044382993045000,3.862044921875,0.03898410291075706,0.00007518412806093693,-0.002427026217523962
1772044383003031000,3.872031005859375,0.03134673990011215,0.002488127021305263,0.007577120723389089
1772044383013017000,3.88201708984375,0.03494213404357433,0.005392141367122531,0.004748272239323705
1772044383023003100,3.892003173828125,0.028510055169463155,-0.009938041168451308,0.0043018984450027345
1772044383032989000,3.901989013671875,0.031208792734146118,-0.004509367183223366,-0.0013400164321064948
1772044383042974000,3.911973876953125,0.02821662518084049,-0.000774637634307146,0.006613810382876545
1772044383052960300,3.921960205078125,0.025515549528598785,-0.006828823106735944,0.00585241582263261
1772044383062946000,3.931946044921875,0.02940262009501457,0.00005622369926422834,0.002752257850207388
1772044383072932000,3.94193212890625,0.024766776987910268,-0.004134067597426474,0.0000030322073027491566
1772044383082917000,3.951917236328125,0.027462591943144796,-0.00745115625616163,0.004695884464960545
1772044383092903200,3.961903076171875,0.03180792767107486,-0.012309519540145992,0.0038978659550659355
1772044383102889000,3.971888916015625,0.0334621246188879,-0.006220664613135159,0.012339658950082957
1772044383112875300,3.981875244140625,0.03197217832207679,0.0007116554006934165,-0.0004445836960338056
1772044383122861000,3.991861083984375,0.0282335763156414,0.004358414405211806,-0.0003188018918968737
1772044383132846000,4.00184619140625,0.025244915893673895,-0.0002088204450905323,0.008704188524559139
1772044383142832000,4.01183203125,0.021361352458596227,-0.0011858122510835527,0.0053877391866408286
1772044383152818200,4.021818115234375,0.033038346248865126,-0.003719860773347318,-0.0020640198577195406
1772044383162804200,4.03180419921875,0.027794600376486775,0.0038912352848798036,0.001321640525199473
1772044383172790000,4.0417900390625,0.027341595911979672,0.0008365604219958186,0.0026540581727400423
1772044383182775000,4.051775146484375,0.03407236547172069,-0.0030308555958792564,0.0034821247610263522
1772044383192761000,4.061760986328125,0.02838087583184242,-0.005021043032407761,0.004473145092371851
1772044383202747100,4.0717470703125,0.026141572472453117,-0.000504771184362471,0.005100373612623661
1772044383212733000,4.08173291015625,0.02869067243337631,0.00144124831687659,0.0032980003657750783
1772044383222719200,4.09171923828125,0.036171968099474906,-0.006225961842760443,0.0008479768651537597
1772044383232704300,4.101704345703125,0.0294406140178442,-0.002054923235811293,-0.0017901165534742176
1772044383242690000,4.11168994140625,0.034224925684928895,0.0010707345040515065,-0.0005968333819881081
1772044383252676000,4.121676025390625,0.026596915024518965,-0.012328808762505649,0.006443824110832065
1772044383262662100,4.131662109375,0.03184299898445606,-0.0006848769916221499,-0.00004941036598756909
1772044383272647200,4.141647216796875,0.03154372377693653,0.0011064268719404935,0.0005350019258446991
1772044383282633000,4.151633056640625,0.03079378219246864,-0.0005867138467729092,0.0020779753178358077
1772044383292619000,4.161618896484375,0.025262451550364492,0.000046579088084399694,-0.0019416721196845173
1772044383302605000,4.17160498046875,0.019873159727454185,0.000041939445585012436,0.005161017758678645
1772044383312591000,4.181591064453125,0.027355039915442466,-0.0044615825187414885,0.002613159906771034
1772044383322576100,4.191576171875,0.030945757883787152,-0.006908829540386795,0.0070231401024386285
1772044383332562200,4.201562255859375,0.02959434327483177,-0.0015049977354705333,-0.004641268200892955
1772044383342548200,4.21154833984375,0.026598084068298337,0.0013187544483691453,0.0016556399862281976
1772044383352534000,4.221533935546875,0.023001520881056784,0.0059478755537420505,0.007311711252853274
1772044383362519000,4.23151904296875,0.026289456510543822,-0.0027992022644728423,0.009331910235155373
1772044383372505000,4.241505126953125,0.024350012880563734,-0.0027149945797398686,-0.0007282960082404315
1772044383382491100,4.2514912109375,0.02405833645761013,-0.0058066769847646355,0.00031065511805936693
1772044383392477000,4.261476806640625,0.030197569864988325,-0.0008977890899404883,0.003706946492847055
1772044383402463200,4.271463134765625,0.02540858202278614,-0.008359393674880266,-0.002584244339540601
1772044383412448300,4.2814482421875,0.036033436411619185,-0.0023948957799002526,-0.008120324221998453
1772044383422434000,4.29143408203125,0.032892800298333164,-0.004372844789363443,0.004011555462609976
1772044383432420000,4.301420166015625,0.036487025398015974,-0.013332104053534567,0.0035343846712261435
1772044383442406100,4.31140625,0.031849428725242615,-0.0070081982616335145,0.002880889198556542
1772044383452392200,4.32139208984375,0.038136546170711515,-0.001778736642934382,0.004434219587780535
1772044383462377000,4.331376953125,0.028113164806365967,-0.0021443550849333404,0.00592599251549691
1772044383472363000,4.341363037109375,0.03274900791347027,-0.0043375908128917215,0.0012613617053255438
1772044383482349000,4.35134912109375,0.027061025404930113,-0.004360789025388658,0.006253032512776553
1772044383492335000,4.361335205078125,0.028853754040598867,0.003855871710553765,0.007513681832049041
1772044383502320000,4.371320068359375,0.02660626737475395,-0.004199643646925688,-0.00014729951620101928
1772044383512306200,4.38130615234375,0.030342531293630598,0.0016217559829354285,0.001050897292420268
1772044383522292200,4.391292236328125,0.03453179967701435,-0.00381904683150351,0.005308938329387456
1772044383532278000,4.401278076171875,0.02944529019296169,-0.003688625384867191,0.008764522143360227
1772044383542264300,4.411264404296875,0.026454291683435438,-0.003990859734453261,-0.001959682700410485
1772044383552249000,4.4212490234375,0.030944004318118095,-0.005822933999821543,0.004791873919032514
1772044383562235100,4.431235107421875,0.033034254595637316,0.0018940335856750606,0.0008398300913162529
1772044383572221000,4.441220947265625,0.029144845941662785,-0.004910860656201839,0.005763038772437721
1772044383582207200,4.451207275390625,0.019112112227082253,0.007003193292953074,0.006829900818970054
1772044383592192300,4.461192138671875,0.028830373165011403,0.0013789602030068635,-0.0015788118903525173
1772044383602178000,4.471177978515625,0.02643675602674484,-0.004038790529407561,0.0031855529672466217
1772044383612164000,4.4811640625,0.024640520259737966,-0.006159910869225859,0.003889700914919376
1772044383622150100,4.491150146484375,0.0346644861459732,-0.002388977495767176,0.004611658513918519
1772044383632136200,4.50113623046875,0.03227028448581695,-0.006570610561966896,0.002820920905936509
1772044383642121000,4.511120849609375,0.030622517278790472,-0.0012138327691704033,0.012015651160106063
1772044383652107000,4.52110693359375,0.023287352085113525,0.005501264297403395,0.0021634068452753125
1772044383662093000,4.531093017578125,0.019992986714839935,-0.006554974601417779,-0.002493698245566338
1772044383672079000,4.5410791015625,0.029718261915445326,-0.004508928791806101,0.0008478124683722853
1772044383682065000,4.55106494140625,0.025524317356944083,0.0009826543617993593,-0.00022242884533479808
1772044383692050200,4.56105029296875,0.032256840482354165,-0.0005400251608341932,0.0009106668378226459
1772044383702036200,4.5710361328125,0.02910802106261253,-0.0024365794971585274,0.009895334537886083
1772044383712022000,4.58102197265625,0.02969897269308567,0.001991721806488931,0.000913699045125395
1772044383722008000,4.591008056640625,0.024762685334682462,-0.002143807095661759,-0.004228632279392332
1772044383731993000,4.6009931640625,0.034795419049263,-0.002441803661547601,0.002255195048265159
1772044383741979100,4.610979248046875,0.022823241704702377,-0.005312646390125155,0.005785561131499708
1772044383751965000,4.62096484375,0.02595978616476059,-0.004112732548452913,-0.00023492300072684884
1772044383761951200,4.630951171875,0.025805472385883328,-0.008268610118888318,0.000407247360330075
1772044383771936300,4.640936279296875,0.02400631400942802,-0.001004025943391025,-0.0014241510516032575
1772044383781922000,4.650922119140625,0.02565115860700607,-0.0007401873754337429,0.0004798559388145804
1772044383791908000,4.660908203125,0.03537877189517021,-0.0019428046308457851,0.004855148413591087
1772044383801894100,4.67089404296875,0.0383767846673727,-0.00017798691540956495,0.006175820824410766
1772044383811880200,4.680880126953125,0.03074935852885246,0.0019404665432870387,0.002152593190316111
1772044383821865000,4.690864990234375,0.02626081493794918,0.0011725874433293937,0.0008081563114188611
1772044383831851000,4.70085107421875,0.031046295648813244,-0.0032213731992989775,0.0055976008113473655
1772044383841837000,4.710837158203125,0.034189854371547694,0.00007248071432113647,0.0069717021761462085
1772044383851823000,4.720822998046875,0.03000876929461956,0.008760887147858738,0.001849189796950668
1772044383861808000,4.73080810546875,0.027163316735625265,0.0002361103108152747,0.0088031553870067
1772044383871794200,4.740794189453125,0.024022680622339247,-0.0045913829108700155,0.0011860862457193434
1772044383881780200,4.7507802734375,0.02791208927631378,0.0024732582457363604,0.00492530930666253
1772044383891766000,4.76076611328125,0.024168226572871206,-0.0033997254408895967,0.009600808570720255
1772044383901752000,4.770751953125,0.03224339647889137,-0.0011070479264482856,-0.0015515402909368275
1772044383911737000,4.780737060546875,0.028504794472455977,-0.00182827487308532,-0.002204268578626215
1772044383921723100,4.79072314453125,0.029410803401470183,-0.002342434940300882,-0.0008353913782164454
1772044383931709000,4.800708984375,0.031954058143496514,-0.0009906915377825498,-0.006391399803850799
1772044383941695200,4.8106953125,0.0316582900673151,-0.005056771932914853,0.00043952392842620607
1772044383951680300,4.82068017578125,0.029113281759619712,-0.0032834786500781773,0.005009772719722241
1772044383961666000,4.830666015625,0.030307459980249404,-0.001749620146304369,0.0046478806047700345
1772044383971652000,4.840652099609375,0.0315016382008791,-0.004334120214171708,0.005416234628763049
1772044383981638100,4.85063818359375,0.030455928540229795,-0.004370104843005537,0.0016885924077592789
1772044383991624200,4.860624267578125,0.03090308778584003,-0.001830868688970804,0.0034396007935516533
1772044384001609200,4.870609130859375,0.029704233390092847,-0.00025024843402206894,-0.0020413696344941854
1772044384011595300,4.88059521484375,0.030745266875624656,-0.0026028029095381496,-0.0000947473450563848
1772044384021581000,4.8905810546875,0.029545827957987783,-0.0001248319560661912,0.0017324498157948254
1772044384031567400,4.9005673828125,0.028638649985194206,-0.009219188841991126,0.0031448921632952986
1772044384041552400,4.910552490234375,0.028490181425213812,-0.00811908211298287,0.00006961290379986166
1772044384051538200,4.9205380859375,0.03926233533024788,-0.014475428869761525,0.002488565412722528
1772044384061524200,4.930524169921875,0.022652561312913894,-0.008365348491631447,0.001737199056148529
1772044384071510300,4.94051025390625,0.035817747834324835,0.0022225348876789212,0.010309230834711343
1772044384081496300,4.950496337890625,0.02370060906112194,-0.00784486828148365,0.0019905162300914523
1772044384091481000,4.960481201171875,0.0263905787974596,-0.0002861599976196885,-0.0011691533772274852
1772044384101467100,4.970467041015625,0.02579670455753803,0.0025811390670016404,0.008281670529861002
1772044384111453200,4.980453125,0.027599954587221143,-0.0011138064607977866,0.0011118154331110418
1772044384121439200,4.990439208984375,0.031043373039364813,-0.002324972348846495,0.0056313569504767656
1772044384131424300,5.00042431640625,0.027597616499662397,0.0067555752074345944,0.0035229682280682024
1772044384141410300,5.010410400390625,0.024454642298817632,0.006445413279719651,0.0020033574453555045
1772044384151396400,5.020396240234375,0.026847090393304823,0.0002847717581316829,-0.003286236862745136
1772044384161382100,5.030382080078125,0.03148585610985756,0.002271232867613435,0.0010865713940002024
1772044384171367200,5.0403671875,0.028044191223382947,-0.00089482994787395,0.005698832696117461
1772044384181353200,5.050353271484375,0.02625380067527294,0.001747756982780993,0.0025149602293036877
1772044384191339300,5.06033935546875,0.027594693890213965,0.0026213249469175933,0.003978603041078895
1772044384201325000,5.070324951171875,0.028939678758382794,0.00007869125939905643,0.014548421040736137
1772044384211311400,5.080311279296875,0.03013210341334343,-0.007478628784976899,0.005356887390650809
1772044384221296400,5.09029638671875,0.033872458985447884,0.005652399738505482,0.0014029438667930662
1772044384231282200,5.1002822265625,0.027137597772479056,0.009809629015810787,0.00775454138321802
1772044384241268200,5.110268310546875,0.028036007916927334,0.005636727245338261,0.00885358866630122
1772044384251254300,5.120254150390625,0.030129180803894994,0.0034096623130142685,0.003278272751998156
1772044384261239300,5.1302392578125,0.024589666855335233,0.00034486791491508483,0.00954690469270572
1772044384271225000,5.14022509765625,0.01725567070543766,-0.004545388344675302,0.009083068306930363
1772044384281211100,5.150211181640625,0.030267712491750715,-0.006854286341555416,0.005671159237902611
1772044384291197200,5.160197265625,0.032062194693088526,0.005755092927999794,0.008672606076207012
1772044384301182200,5.17018212890625,0.031014146944880482,0.0008719970615580678,0.0037857473501004277
1772044384311168300,5.180168212890625,0.030112814190983772,0.004009966293722391,0.005037482710555196
1772044384321154000,5.190154052734375,0.025022797575592993,0.008591193136759101,0.00432367188539356
1772044384331140400,5.200140380859375,0.025471125864982604,-0.0056956543583422895,-0.0001014328141696751
1772044384341126100,5.210126220703125,0.027108956199884415,0.002822437009587884,0.0025029227316379545
1772044384351111200,5.220111083984375,0.022914427119493482,0.007174458206631242,0.002355824144836515
1772044384361097200,5.23009716796875,0.026057985842227935,-0.0013326368432492017,-0.003859287510346621
1772044384371083300,5.240083251953125,0.039082302588224406,-0.007734539774805307,0.000702997170202434
1772044384381069000,5.250069091796875,0.024264672684669492,-0.00636906010787934,-0.0005780921489000321
1772044384391054000,5.26005419921875,0.026359014615416527,-0.0032223230473697184,0.003137567373365164
1772044384401040400,5.270040283203125,0.03114507984817028,-0.0003917027313262224,-0.0020024258635938166
1772044384411026200,5.280026123046875,0.028750293666124343,-0.010140614535845815,0.0037761940704658624
1772044384421012200,5.29001220703125,0.031741292175650596,0.007065956330858171,0.00791636261511594
1772044384430998300,5.299998291015625,0.030690321817994116,-0.00632861849963665,0.004434383984562009
1772044384440983300,5.3099833984375,0.0264952082157135,-0.007219831718318164,0.0011566409555263816
1772044384450969300,5.31996923828125,0.02904021652340889,0.0030967239063233137,-0.0034469255834817885
1772044384460955100,5.329955078125,0.020658172625303266,-0.003117657096497714,0.0015031711045652627
1772044384470940400,5.3399404296875,0.02559972068071365,0.0005222337758168578,0.0017856413077563047
1772044384480926200,5.34992626953125,0.021261399215459824,0.0056313204178586596,0.0026072781552560625
1772044384490911200,5.3599111328125,0.02036006646156311,-0.009363638813979924,0.0006768946145661174
1772044384500897300,5.369897216796875,0.016619710889458655,-0.003462890337593853,-0.008354370439890771
1772044384510883300,5.37988330078125,0.02290858190059662,-0.0053206105008721345,0.006078461397159844
1772044384520869400,5.389869384765625,0.028141806378960608,0.0020737010015174744,0.011116163303423672
1772044384530855200,5.399855224609375,0.025292846688628197,-0.002651720085181296,0.004709529397822917
1772044384540840200,5.409840087890625,0.025436639073491096,0.009976071623899041,0.0006958185107447207
1772044384550826200,5.419826171875,0.02348492048382759,-0.0014209361812099813,-0.002203738855663687
1772044384560812300,5.429812255859375,0.025724808365106582,-0.0022086159601807593,-0.003731660808995366
1772044384570798000,5.439798095703125,0.027519290566444397,0.0010389876589179039,0.0005121142406016588
1772044384580783000,5.449783203125,0.025421441504359245,-0.0009090776689350604,0.004313205290306359
1772044384590769400,5.459769287109375,0.031851182290911675,0.003520392678491771,0.006659530954435468
1772044384600755200,5.469755126953125,0.028705285480618476,-0.0006545914512127637,-0.0016596220416016875
1772044384610741200,5.4797412109375,0.02496025373339653,0.0074354106977581975,0.0016701617019250989
1772044384620726300,5.489726318359375,0.03094108170866966,0.004837466626428068,0.0022200324033387004
1772044384630712300,5.49971240234375,0.028390812703967094,0.008601166541501878,0.004767360532283783
1772044384640698000,5.509697998046875,0.025251345634460447,0.0028559739530086515,-0.003271057559922337
1772044384650684200,5.51968408203125,0.030940497186779974,-0.0015241773599758742,-0.004259758070018142
1772044384660670200,5.529670166015625,0.023313071048259734,0.0001990662360563874,-0.00048750952230766414
1772044384670655200,5.5396552734375,0.02076689369678497,0.004236066667176783,0.001682692389935255
1772044384680641300,5.549641357421875,0.02885024690926075,-0.001064122100174427,0.007833232642617077
1772044384690627300,5.55962744140625,0.032141105148196215,-0.0006060396017506718,0.00018642595019191502
1772044384700613400,5.56961328125,0.023310732960700988,0.0018048209322616457,-0.0016178835254162549
1772044384710598100,5.57959814453125,0.03199029850065708,-0.004210347704030573,-0.00045176235549151896
1772044384720584200,5.589584228515625,0.028849077865481375,0.010878609954193234,0.006176259215828031
1772044384730570200,5.5995703125,0.03407704164683819,-0.0031968598125502465,0.0008109875893220305
1772044384740556300,5.609556396484375,0.027940730848908423,0.004931465052813291,0.0048601168496534225
1772044384750541300,5.619541259765625,0.02853694317638874,-0.0008393369009718298,-0.001421210175845772
1772044384760527000,5.629527099609375,0.02778524802625179,-0.006247369956970215,-0.0007895612088032066
1772044384770513400,5.639513427734375,0.026886253359913823,0.002357742107287049,-0.0019387495102360843
1772044384780499200,5.649499267578125,0.025679800179600715,0.00301872676666826,-0.006477013994380831
1772044384790485200,5.6594853515625,0.028075755405426023,0.0014070172537118196,0.0009572459259070455
1772044384800470000,5.669469970703125,0.03031856589615345,0.005443469695560634,0.0019393522984348236
1772044384810456300,5.679456298828125,0.025077158111333847,0.01147705077137798,-0.002631261819042265
1772044384820442000,5.689442138671875,0.022532734325528145,0.004026186776161194,-0.0015477408986538648
1772044384830428200,5.69942822265625,0.021630817049741742,-0.0010486322700977325,0.003749287797231227
1772044384840413400,5.709413330078125,0.02537584879696369,0.0018789821470156312,-0.0026371618368662892
1772044384850399200,5.719399169921875,0.03135667677223682,0.0057262686923146245,0.00242019461793825
1772044384860385300,5.72938525390625,0.027912673798203468,0.0034456834744662043,0.004874985625222325
1772044384870371300,5.739371337890625,0.027308862686157225,0.006900938494876027,-0.001532945188321173
1772044384880357400,5.749357421875,0.028953122761845588,-0.001963664755783975,-0.001166431697178632
1772044384890343200,5.75934326171875,0.02850420995056629,0.005393675737082958,0.008747497943323105
1772044384900328200,5.769328125,0.029391514179110526,-0.00004738280568271875,0.01124042900390923
1772044384910314200,5.779314208984375,0.028642157116532323,0.0013335136260837317,0.012445895803533493
1772044384920300300,5.78930029296875,0.024454057776927947,0.0020207652378827334,-0.003737177234329283
1772044384930286000,5.7992861328125,0.030295185020565985,0.004711356028728186,0.0010465864434838295
1772044384940271000,5.80927099609375,0.028801731592416762,0.0016481325332075357,0.005848963490221649
1772044384950257400,5.81925732421875,0.022816811963915825,0.008542056765407324,0.002432067718822509
1772044384960243200,5.8292431640625,0.021323358535766602,-0.0022764570320025087,0.003213902278896421
1772044384970229200,5.839229248046875,0.024763854378461837,0.0016375380739569662,0.003653681935649365
1772044384980214300,5.84921435546875,0.023264555731415747,0.00032539602946490045,-0.0011869812948629259
1772044384990200300,5.859200439453125,0.028048282876610754,0.0018174612181261181,0.0016738880289718509
1772044385000186400,5.869186279296875,0.021165537625551224,0.008479147597029805,0.0026940796558745203
1772044385010172400,5.87917236328125,0.019663316369056702,0.004230732904933393,0.0030494689648039638
1772044385020158200,5.889158203125,0.027435703936219212,0.0018575375001877545,-0.002418824644759297
1772044385030143200,5.899143310546875,0.03192307848334312,0.0016894143916666507,0.0015576412381604313
1772044385040129500,5.909129638671875,0.03356558499336242,0.005520005530491471,-0.0011540288733318446
1772044385050115300,5.919115234375,0.02757832727730274,0.009321955096721648,0.0029111930052749813
1772044385060101400,5.929101318359375,0.027733810099959372,0.0036437633298337458,-0.0005232749554328621
1772044385070086100,5.939086181640625,0.02968319060206413,0.0028584581710398194,0.000029865415301173923
1772044385080072400,5.949072509765625,0.023098551514744756,-0.0008643982769921422,-0.00012974559320136903
1772044385090058200,5.959058349609375,0.02908113305568695,-0.002373085806891322,-0.0027780681448988614
1772044385100044300,5.969044189453125,0.02249240231513977,0.003150024996139109,0.01069083229713142
1772044385110029600,5.979029541015625,0.02428922260403633,0.010963292562961578,0.002251888846326619
1772044385120015400,5.989015380859375,0.02294599130153656,0.003858611656911671,0.0006294022110290825
1772044385130001400,5.99900146484375,0.03730418699979782,0.006569770311750471,-0.0025641879322007297
1772044385139987500,6.008987548828125,0.03026888153553009,0.004201762538775801,0.004110540591366589
1772044385149972500,6.018972412109375,0.01784954494535923,0.0035057065660133954,0.0053955389006063335
1772044385159958300,6.028958251953125,0.02278641682565212,0.010291019324585794,-0.006709014385659247
1772044385169944300,6.0389443359375,0.022039982372522353,0.010222411067783831,0.0031527284098789095
1772044385179930400,6.048930419921875,0.025627777731418607,-0.003504683652706444,0.0011326390254311263
1772044385189915400,6.058915283203125,0.02202887645661831,0.011002199801243841,-0.0022395590877160427
1772044385199901400,6.0689013671875,0.025915947023034094,0.004343289901316166,0.003120908499509096
1772044385209887200,6.07888720703125,0.02352232988476753,0.001529291926510632,0.007514047158230096
1772044385219873500,6.08887353515625,0.03742985920608043,0.010282251496240496,0.004066208259295672
1772044385229859300,6.098859375,0.03368833459019661,0.006818703571520745,-0.00031929508224129677
1772044385239844400,6.10884423828125,0.03264613206088543,0.004624956386908888,-0.0056497693900018926
1772044385249830100,6.118830078125,0.024712416452169417,0.0019364844879135488,0.005348302225396037
1772044385259816400,6.12881640625,0.022763035950064656,0.0024496581744402647,-0.0006772416744381189
1772044385269802200,6.13880224609375,0.022767712125182152,0.0021777458978816866,0.002766067179851234
1772044385279787300,6.148787353515625,0.030702596777677536,-0.0004787964928895235,0.004728763821255416
1772044385289773600,6.158773681640625,0.02696224120557308,0.0030510581336915493,0.0009637121993117034
1772044385299759400,6.16875927734375,0.03294716083407402,0.002992094488069415,0.0017704437386244535
1772044385309745400,6.178745361328125,0.026357845571637152,-0.0014633140182122588,0.0006069529172033071
1772044385319730200,6.188730224609375,0.027701076874136924,0.0065100029485300175,0.005912913838215172
1772044385329716500,6.198716552734375,0.02964578120112419,0.004134323325753211,0.001736943327821791
1772044385339702300,6.208702392578125,0.02381225274205208,0.008462525255791843,0.0039014826842583713
1772044385349688300,6.218688232421875,0.028597148931026457,0.012214973124489187,0.003043240153416991
1772044385359673300,6.22867333984375,0.02515489952266216,0.0022561083637177943,0.006388897319510579
1772044385369659400,6.238659423828125,0.031139234629273413,0.007495251126214861,0.003516611552517861
1772044385379645400,6.2486455078125,0.03518061897456646,0.004710954169929027,0.005722962490376085
1772044385389631200,6.25863134765625,0.018270985227823257,0.0025966654296964405,0.0026897505406290293
1772044385399616300,6.2686162109375,0.017967033845186234,0.004186711100116372,0.005464731679297983
1772044385409602300,6.278602294921875,0.03143734079301357,0.0070909811742603775,0.0018528065261431037
1772044385419588400,6.28858837890625,0.023659692528843878,-0.0023973434653133154,-0.0015371281730942427
1772044385429574100,6.29857421875,0.031741292175650596,-0.0025718597820028662,0.004447773189097642
1772044385439560400,6.308560546875,0.023655016353726386,-0.0007710574377328157,0.000704549806471914
1772044385449545500,6.31854541015625,0.025749942806363103,0.0021968524571508168,-0.0009726444244384765
1772044385459531300,6.32853125,0.036378888848423954,-0.002864997509680688,0.004860902300942689
1772044385469517600,6.338517578125,0.035187633237242694,0.0023842282554134724,0.0026583872879855333
1772044385479503400,6.34850341796875,0.02561550277173519,0.008631561679765582,-0.0008349347204901278
1772044385489488400,6.35848828125,0.02681201907992363,0.0020350494915619493,-0.0032577596869319677
1772044385499474200,6.36847412109375,0.019174656069278716,0.010977905610203743,0.004051083755400031
1772044385509460500,6.37846044921875,0.033687165546417236,0.009411825337260961,0.006164386114943772
1772044385519446300,6.3884462890625,0.028898177704215048,0.00402319110147655,0.0049348991189152
1772044385529431300,6.398431396484375,0.026350246787071225,-0.0011877484798431396,0.006633885056525468
1772044385539417300,6.408417236328125,0.02096563113927841,0.008661518426612018,0.004434913707524538
1772044385549403400,6.4184033203125,0.02366495322585106,-0.002859663747437298,-0.0007907850515097379
1772044385559389400,6.428389404296875,0.029209143349528312,0.0025491730261594054,0.0021580000177957117
1772044385569374200,6.438374267578125,0.01918283937573433,0.0009624883566051721,0.004572532079927623
1772044385579360300,6.4483603515625,0.027556699967384336,0.004649652436748147,0.007777008943352847
1772044385589346300,6.45834619140625,0.025011107137799263,0.0028606501281261444,0.004290153208281845
1772044385599332400,6.468332275390625,0.02291150451004505,0.005005553202331066,0.006442289740871638
1772044385609317400,6.4783173828125,0.032032384076714514,-0.0010488879984244704,-0.0014752419180236755
1772044385619303400,6.488303466796875,0.021262568259239195,0.00424962026849389,-0.0036845519979484377
1772044385629289500,6.49828955078125,0.022764789515733717,0.002772752648964524,0.0029384098057635127
1772044385639275300,6.508275146484375,0.027851298999786375,0.0022292934220284224,-0.00557590043619275
1772044385649260300,6.51826025390625,0.03369125719964504,0.006617445378378033,0.003116798579972237
1772044385659246300,6.528246337890625,0.01842296091914177,-0.0025597309527918694,0.007851133625488728
1772044385669232400,6.538232421875,0.024558687195181846,-0.00020100246481597421,0.0006580985825508833
1772044385679218200,6.54821826171875,0.023808745610713958,0.00726787211112678,0.0016253544458188116
1772044385689203200,6.558203125,0.02829553563594818,0.0022725480418652293,0.0002796571915969252
1772044385699189500,6.568189453125,0.02381166822016239,0.007760916325077414,0.005469115593470633
1772044385709175300,6.57817529296875,0.0221685771882534,0.0018514365529641507,0.001273070409428328
1772044385719161300,6.588161376953125,0.02172083342075348,0.0008957432633265852,0.01142952183522284
1772044385729147400,6.5981474609375,0.03398760979771614,0.0038648587346076964,0.0028923604406416413
1772044385739132400,6.60813232421875,0.03204232094883919,0.005682977539859712,-0.005299147587735206
1772044385749118200,6.6181181640625,0.033546880292892454,0.0018851196268573403,0.004630125752370804
1772044385759104300,6.628104248046875,0.03505260868072509,-0.004815145196765661,0.0019420191795565186
1772044385769090300,6.63809033203125,0.02518237205147743,0.001792436374723911,-0.0010104739504866302
1772044385779075300,6.648075439453125,0.023834464573860167,-0.00598155862763524,-0.002239248560462147
1772044385789061400,6.658061279296875,0.026377719315886495,0.002205401089787483,-0.0017009952316060662
1772044385799047400,6.66804736328125,0.024279870253801343,-0.0016857611298561096,0.0032855244766920805
1772044385809033500,6.678033447265625,0.028619945284724235,0.001480557413958013,-0.0002642586930654943
1772044385819018200,6.688018310546875,0.022782909694314003,0.0035312793986871835,0.002196706326678395
1772044385829004300,6.69800439453125,0.03685118253529072,0.000675743837095797,-0.003428275681938976
1772044385838990300,6.707990234375,0.029367548781633376,0.00714534171000123,0.0006199585292488337
1772044385848976400,6.717976318359375,-0.0017985738545656202,0.012085063134506344,-0.019490663215890526
1772044385858961400,6.72796142578125,-0.22694822245538232,0.029723376481980084,-0.07973419258072972
1772044385868947200,6.737947265625,0.2198439434081316,-0.01611523196604103,0.05399889935422689
1772044385878933500,6.74793359375,0.22322657158374784,-0.0073699442461133,0.06148797646798193
1772044385888919300,6.757919189453125,0.07266717680394649,0.0010791004735976456,0.019550010454002766
1772044385898904300,6.767904296875,-0.036866964626312254,0.009250716491416096,-0.006162340288329869
1772044385908890400,6.777890380859375,-0.03980769425332546,0.011316562980040907,-0.017422734368033706
1772044385918876400,6.78787646484375,0.005071311914920807,0.008008680541068316,-0.0034570999176241454
1772044385928862200,6.7978623046875,0.015097031366825104,-0.003073160367645323,-0.001074552162643522
