time,seconds_elapsed,z,y,x
1772044379208419300,0.07741943359375,0.00019169040024280548,-0.0026382538489997387,0.000044336775317788124
1772044379218405000,0.087405029296875,0.00013070367276668549,-0.00026085006538778543,-0.00043503218330442905
1772044379228391400,0.097391357421875,0.0012364480644464493,0.0018459765706211329,0.0006491406820714474
1772044379238376400,0.10737646484375,0.0009283199906349182,-0.0005785652319900692,0.0008142564911395311
1772044379248362200,0.1173623046875,0.0006715916097164154,-0.0007820306927897036,0.0007862932980060577
1772044379258348300,0.127348388671875,-0.0006990879774093628,0.00044765634811483324,-0.0007379518356174231
1772044379268334300,0.137334228515625,0.0011639250442385674,-0.0009895204566419125,-0.00035610771737992764
1772044379278320400,0.1473203125,0.0013641947880387306,-0.0006094873533584177,0.00011686980724334717
1772044379288306200,0.15730615234375,0.002127828076481819,-0.0014768438413739204,0.0017189884092658758
1772044379298291200,0.167291259765625,-0.0005646273493766785,-0.00007655384251847863,0.0006340164691209793
1772044379308277200,0.17727734375,0.0023909835144877434,0.0010698611149564385,0.0005312412977218628
1772044379318263300,0.18726318359375,0.0022881850600242615,0.0007020785706117749,0.0015333887422457337
1772044379328249300,0.197249267578125,-0.00014616549015045166,0.0016595001798123121,-0.00029784906655550003
1772044379338235400,0.2072353515625,0.0005071079358458519,-0.0013858245220035315,0.0020183022134006023
1772044379348221200,0.21722119140625,0.0002271793782711029,-0.0004431658308021724,0.001698897103779018
1772044379358206200,0.227206298828125,0.0022759493440389633,-0.0016775410622358322,0.00013562152162194252
1772044379368192500,0.237192626953125,0.00004260800778865814,0.0010653338395059109,0.0011988957412540913
1772044379378178300,0.24717822265625,-0.00037684012204408646,0.0017660114681348205,0.0008817133493721485
1772044379388164400,0.257164306640625,0.003456367179751396,-0.000652188784442842,0.0018200317863374949
1772044379398150100,0.267150146484375,-0.000522661954164505,0.0005070852348580956,0.0004165458958595991
1772044379408136400,0.277136474609375,0.0008322354406118393,0.0010807800572365522,0.0007717246189713478
1772044379418121200,0.287121337890625,0.0010317061096429825,-0.000583162996917963,0.0008135363459587097
1772044379428107300,0.297107177734375,0.0005700886249542236,0.00005560921272262931,-0.00008085439912974834
1772044379438093300,0.30709326171875,-0.0006094248965382576,-0.0009007318876683712,-0.0003716715145856142
1772044379448079400,0.317079345703125,0.0006480570882558823,0.0003812933573499322,0.001523425686173141
1772044379458065200,0.327065185546875,-0.001147446222603321,-0.0020216768607497215,-0.000027599278837442398
1772044379468051500,0.337051513671875,-0.0005916934460401535,0.0013226153096184134,0.0030338221695274115
1772044379478036500,0.347036376953125,-0.0010694647207856178,-0.001745612476952374,0.0017405911348760128
1772044379488022300,0.357022216796875,0.001941414549946785,-0.0005856592324562371,0.000571361742913723
1772044379498008300,0.36700830078125,-0.0006144214421510696,0.0010343416361138225,0.0016113261226564646
1772044379507994400,0.376994384765625,-0.000014326535165309906,-0.0010114695178344846,-0.0017211816739290953
1772044379517980400,0.38698046875,-0.0017280708998441696,-0.00045513518853113055,-0.00004259147681295872
1772044379527966200,0.39696630859375,-0.0005456842482089996,0.00001871146378107369,0.0010497586335986853
1772044379537952500,0.406952392578125,-0.0013813842087984085,-0.003207974601536989,-0.00004826253280043602
1772044379547937300,0.416937255859375,-0.0009022755548357964,-0.0026446254923939705,-0.0009346327278763056
1772044379557923300,0.42692333984375,-0.002565152943134308,-0.00036469323094934225,-0.0005476751830428839
1772044379567909000,0.4369091796875,-0.0007151858881115913,-0.0014934747014194727,-0.00019699148833751678
1772044379577895400,0.4468955078125,0.0002789720892906189,0.0008160185534507036,0.0019401952158659697
1772044379587881200,0.456881103515625,0.0003306223079562187,-0.000056881457567214966,0.0011344635859131813
1772044379597867300,0.4668671875,-0.001401497982442379,-0.00007126253331080079,0.00036853854544460773
1772044379607852300,0.476852294921875,-0.0017482256516814232,-0.0011930702021345496,-0.00013201055116951466
1772044379617838300,0.48683837890625,-0.00040173158049583435,-0.00019837950821965933,0.00011619622819125652
1772044379627824400,0.496824462890625,-0.0006860177963972092,0.002646633656695485,0.0024861274287104607
1772044379637810200,0.50681005859375,-0.0005850847810506821,0.0019614023622125387,0.0001566605642437935
1772044379647796500,0.51679638671875,0.0009521832689642906,0.0008613707614131272,0.0015855471137911081
1772044379657782300,0.5267822265625,-0.0026840968057513237,-0.0005562298465520144,0.0005285385996103287
1772044379667767300,0.536767333984375,-0.0007122857496142387,-0.00009115139255300164,0.001308774808421731
1772044379677753000,0.546753173828125,-0.0007897838950157166,-0.001368669793009758,-0.0010087080299854279
1772044379687739400,0.556739501953125,0.0007559852674603462,-0.000020732637494802475,-0.0003427134361118078
1772044379697725200,0.56672509765625,-0.001314888708293438,0.0017646505730226636,0.0014911394100636244
1772044379707711200,0.576711181640625,0.00018516462296247482,-0.0013366355560719967,0.001017402159050107
1772044379717697300,0.586697265625,0.0006866380572319031,0.0014178717974573374,0.0025183595716953278
1772044379727683300,0.596683349609375,-0.00092278141528368,0.0004813930718228221,0.0001577960792928934
1772044379737668400,0.60666845703125,0.0013550203293561935,-0.0018715098267421126,-0.002117076190188527
1772044379747654100,0.616654052734375,-0.000239519402384758,0.00021797121735289693,0.0007381381001323462
1772044379757640400,0.626640380859375,-0.00012127496302127838,-0.0006163971847854555,-0.0008528344333171844
1772044379767626200,0.636626220703125,0.0005950815975666046,0.00006385071901604533,0.0016997822094708681
1772044379777612300,0.6466123046875,-0.00002650078386068344,0.0020758688915520906,-0.0006493923719972372
1772044379787598300,0.656598388671875,-0.002375134266912937,0.0005784645909443498,0.000914611853659153
1772044379797583400,0.666583251953125,-0.0002017281949520111,-0.0012636439641937613,0.0012392511125653982
1772044379807569200,0.676569091796875,0.0006396053358912468,0.0004575710918288678,0.0004088308196514845
1772044379817555500,0.686555419921875,0.00027555134147405624,0.0007878030883148313,0.0011427979916334152
1772044379827541200,0.696541259765625,-0.0018217582255601883,-0.0001947483979165554,0.00036255386658012867
1772044379837527300,0.70652734375,0.0009689675644040108,-0.0020645535551011562,0.0005955803208053112
1772044379847513000,0.71651318359375,-0.000668056309223175,0.0006052713724784553,-0.00012128730304539204
1772044379857499400,0.72649951171875,-0.001443568617105484,-0.0008890283643268049,0.0007120158988982439
1772044379867484400,0.736484375,0.001431250013411045,0.0010004636133089662,0.00006033224053680897
1772044379877470200,0.74647021484375,0.002369214780628681,-0.0007255311356857419,-0.0006733683403581381
1772044379887456500,0.75645654296875,-0.00036617275327444077,0.0026069525629281998,-0.0008143282029777765
1772044379897442300,0.7664423828125,-0.0014594001695513725,0.0008378146449103951,0.0004501407966017723
1772044379907428400,0.776428466796875,0.0015079686418175697,0.00203235843218863,0.00026429537683725357
1772044379917414400,0.786414306640625,-0.0026521552354097366,0.00032553859637118876,-0.002123494865372777
1772044379927399400,0.7963994140625,-0.00006911065429449081,-0.00035746139474213123,-0.0005191636737436056
1772044379937385200,0.80638525390625,0.0005761729553341866,-0.0014136710669845343,0.002083010971546173
1772044379947371300,0.816371337890625,0.0002967584878206253,0.0007306011393666267,0.00046046474017202854
1772044379957357300,0.826357421875,0.00043257977813482285,-0.00026249163784086704,-0.00007882551290094852
1772044379967343400,0.83634326171875,-0.0001728767529129982,0.0026699642185121775,0.0014830323634669185
1772044379977329400,0.846329345703125,-0.0027108686044812202,-0.0006251650047488511,0.0007882136851549149
1772044379987314400,0.856314453125,-0.0015562353655695915,0.000612280098721385,0.0004908482078462839
1772044379997300500,0.866300537109375,0.001349540427327156,-0.0005046497099101543,0.0004564933478832245
1772044380007286500,0.87628662109375,0.0009323852136731148,-0.0006319839740172029,-0.00013175979256629944
1772044380017272600,0.8862724609375,-0.000837019644677639,0.0004202309937682003,-0.0010500175412744284
1772044380027258400,0.89625830078125,0.000980433076620102,-0.0006859201821498573,-0.0015377523377537727
1772044380037244700,0.90624462890625,-0.00006166193634271622,-0.000551164208445698,-0.00230314489454031
1772044380047229400,0.9162294921875,0.0005705161020159721,-0.001921556773595512,0.00032345252111554146
1772044380057215500,0.926215576171875,-0.000007922761142253876,0.001360256690531969,0.001229992602020502
1772044380067201300,0.936201171875,-0.0036866217851638794,-0.000027717906050384045,0.0008748585823923349
1772044380077187600,0.9461875,-0.001789652742445469,-0.0022839480079710484,0.0011904432903975248
1772044380087173400,0.95617333984375,-0.0008409591391682625,0.0009682393865659833,0.00018976186402142048
1772044380097159400,0.966159423828125,-0.0018934402614831924,0.0019333689706400037,0.0009223974775522947
1772044380107145500,0.9761455078125,0.0005202163010835648,-0.0007320904987864196,0.00031491415575146675
1772044380117130500,0.986130615234375,-0.0023368224501609802,0.0008026892319321632,-0.0022760750725865364
1772044380127116500,0.996116455078125,0.0004593171179294586,-0.0015160066541284323,0.00031128828413784504
1772044380137102300,1.006102294921875,0.0014942213892936707,0.00016258389223366976,-0.0006740812677890062
1772044380147088600,1.016088623046875,0.0017011752352118492,-0.002111123874783516,-0.000804482726380229
1772044380157074400,1.026074462890625,0.0031043952330946922,-0.0001313299871981144,0.0019042183412238955
1772044380167060500,1.036060546875,-0.0006882129237055779,-0.0019353552488610148,-0.0012431053910404444
1772044380177045200,1.046045166015625,0.0004811808466911316,-0.001017097383737564,-0.000022046035155653954
1772044380187031600,1.056031494140625,-0.0002711676061153412,-0.0006629874114878476,-0.000055531738325953484
1772044380197017300,1.066017333984375,-0.00007143057882785797,-0.0018885741010308266,0.0003181097563356161
1772044380207003400,1.07600341796875,0.0013768728822469711,0.00043603451922535896,0.0002370174042880535
1772044380216989400,1.085989501953125,-0.001481231302022934,0.002173480810597539,0.00017789541743695736
1772044380226975500,1.0959755859375,0.0021239537745714188,-0.0010337431449443102,0.00010892748832702637
1772044380236961300,1.105961181640625,0.0013878559693694115,0.001234204857610166,-0.0007534041069447994
1772044380246946300,1.1159462890625,0.001853886991739273,-0.0005224226042628288,0.0007304542232304811
1772044380256932600,1.1259326171875,0.0014986209571361542,0.00270612770691514,0.0022391348611563444
1772044380266918400,1.13591845703125,0.0016724690794944763,-0.002012391109019518,0.000126637052744627
1772044380276904400,1.145904541015625,0.0004157228395342827,-0.0031695342622697353,0.000263523543253541
1772044380286890500,1.155890380859375,0.0012526009231805801,0.0000697941577527672,0.0013209553435444832
1772044380296876500,1.16587646484375,-0.00048670917749404907,-0.000054309144616127014,0.00018351944163441658
1772044380306861300,1.175861328125,-0.0010910937562584877,-0.000051239156164228916,0.0018086895579472184
1772044380316847400,1.185847412109375,0.0006996160373091698,0.001709642936475575,-0.0013085405807942152
1772044380326833400,1.19583349609375,0.0014065876603126526,0.0009826555615291,0.000792662613093853
1772044380336819500,1.2058193359375,0.000771690160036087,0.0020071736071258783,0.0014640453737229109
1772044380346805200,1.21580517578125,0.0009769489988684654,-0.0018905655015259981,-0.0006717871874570847
1772044380356791600,1.22579150390625,0.0014928029850125313,0.0008743283106014132,-0.0008004177361726761
1772044380366776600,1.235776611328125,0.002341744489967823,-0.0028595360927283764,-0.0013383126351982355
1772044380376762400,1.245762451171875,0.0009710155427455902,-0.001011302461847663,0.00006730365566909313
1772044380386748700,1.255748779296875,0.0013294359669089317,0.0018310783198103309,-0.0012992764823138714
1772044380396734500,1.265734375,0.002107345499098301,0.002042267005890608,0.0007516238838434219
1772044380406720500,1.275720458984375,0.00025874190032482147,-0.000138100644107908,-0.00014965818263590336
1772044380416706300,1.285706298828125,0.002239867113530636,-0.0011106871534138918,-0.0002868110314011574
1772044380426691600,1.295691650390625,-0.0007022721692919731,-0.0011295530712231994,-0.00046298676170408726
1772044380436677400,1.305677490234375,0.0015185382217168808,0.001019617891870439,-0.0023000354412943125
1772044380446663400,1.315663330078125,-0.00151161290705204,-0.001061466638930142,0.00032963999547064304
1772044380456649500,1.3256494140625,0.0010346351191401482,0.00043096879380755126,0.000033762771636247635
1772044380466635500,1.335635498046875,0.0016327816992998123,-0.0006023377645760775,-0.0006314949132502079
1772044380476621300,1.345621337890625,0.002147303894162178,-0.0010327044874429703,-0.003068287391215563
1772044380486607600,1.355607666015625,-0.00026613567024469376,0.0015052586095407605,-0.0007158222142606974
1772044380496592600,1.365592529296875,-0.00004855543375015259,-0.00033205613726750016,0.0003023042809218168
1772044380506578400,1.375578369140625,-0.0010614050552248955,0.0021954448893666267,-0.00009359046816825867
1772044380516564500,1.385564453125,-0.00009867176413536072,-0.0007992798346094787,-0.00008906307630240917
1772044380526550500,1.395550537109375,0.0019403714686632156,-0.0014716838486492634,-0.0001936017069965601
1772044380536536600,1.40553662109375,0.0007922826334834099,0.0016423503402620554,0.000607210909947753
1772044380546522400,1.4155224609375,0.001098797656595707,0.0009872089140117168,0.000006610061973333359
1772044380556507400,1.42550732421875,-0.001271149143576622,0.002050076611340046,0.0004742611199617386
1772044380566493400,1.435493408203125,-0.0011658286675810814,0.0015117146540433168,0.0011437288485467434
1772044380576479500,1.4454794921875,0.0021250396966934204,-0.00006780610419809818,-0.0008610989898443222
1772044380586465300,1.45546533203125,-0.0020441459491848946,0.0011795281898230314,-0.00008445139974355698
1772044380596451600,1.46545166015625,-0.0010659676045179367,0.0011787292314693332,0.0007326065097004175
1772044380606437400,1.475437255859375,0.001484464854001999,0.0011715996079146862,0.0018146741203963757
1772044380616422400,1.48542236328125,0.0010088235139846802,-0.00041111698374152184,-0.0009432956576347351
1772044380626408400,1.495408447265625,0.0011328225955367088,-0.0010409896494820714,-0.001095322659239173
1772044380636394500,1.50539453125,0.0002534473314881325,-0.0005277985474094748,0.000504970783367753
1772044380646380500,1.515380615234375,-0.0024177366867661476,0.0010443453211337328,-0.0003759192768484354
1772044380656366300,1.525366455078125,-0.0012145200744271278,-0.0002590057556517422,-0.00010747252963483334
1772044380666352400,1.535352294921875,-0.0018299324437975883,0.00001077572233043611,0.0004843000788241625
1772044380676337400,1.54533740234375,-0.001911957748234272,-0.002648390829563141,-0.0008667216170579195
1772044380686323500,1.555323486328125,-0.0006400058045983315,-0.000957076030317694,-0.001905715325847268
1772044380696309200,1.565309326171875,-0.0005686329677700996,0.00020858955394942313,0.002417926676571369
1772044380706295600,1.575295654296875,-0.001490861177444458,0.0015239884378388524,0.0012023418676108122
1772044380716281300,1.58528125,-0.0015981858596205711,0.001572724198922515,-0.001924209063872695
1772044380726267400,1.595267333984375,-0.0016857897862792015,0.00071225460851565,0.0019499737536534667
1772044380736252700,1.605252685546875,0.0005933428183197975,-0.000160995899932459,0.0006902986206114292
1772044380746238500,1.615238525390625,-0.0006743380799889565,-0.001417633960954845,0.0008760180789977312
1772044380756224500,1.625224609375,-0.0030264416709542274,-0.0007220163242891431,0.0006187567487359047
1772044380766210600,1.63521044921875,0.0033106207847595215,0.001167653244920075,0.002051255200058222
1772044380776196400,1.6451962890625,-0.0004718666896224022,-0.002276346553117037,-0.00025237887166440487
1772044380786182400,1.655182373046875,-0.0014285705983638763,-0.0005197704304009676,0.0019385532941669226
1772044380796167400,1.66516748046875,-0.0011995388194918633,-0.0029115555807948112,-0.00007932400330901146
1772044380806153500,1.675153564453125,0.0005303416401147842,-0.002127202693372965,-0.0008348994888365269
1772044380816139500,1.685139404296875,0.0010589789599180222,0.0011543442960828543,0.0017097509698942304
1772044380826125300,1.695125244140625,-0.001300509087741375,-0.0016140168299898505,0.0005212747491896152
1772044380836111600,1.705111572265625,-0.000211276113986969,0.00058895000256598,-0.0007724890019744635
1772044380846097400,1.715097412109375,-0.0014955103397369385,-0.002661454491317272,-0.0008185808546841145
1772044380856082400,1.72508251953125,-0.001408957876265049,0.00008985720342025161,0.000689034815877676
1772044380866068500,1.735068359375,-0.001071070320904255,-0.00037787255132570863,-0.0014714414719492197
1772044380876054500,1.745054443359375,-0.0009331181645393372,-0.0006782771088182926,-0.00169940828345716
1772044380886040600,1.75504052734375,-0.00031259190291166306,-0.0032948218286037445,-0.0008960103150457144
1772044380896026400,1.7650263671875,0.00012230221182107925,0.0005667615332640707,0.0002627309877425432
1772044380906012400,1.775012451171875,-0.0010942080989480019,-0.0007261100690811872,-0.00014260224997997284
1772044380915997400,1.78499755859375,-0.003920354880392551,-0.0015540869208052754,-0.002521870192140341
1772044380925983500,1.7949833984375,-0.0017940625548362732,0.0006252608727663755,-0.0005165692418813705
1772044380935969300,1.80496923828125,-0.0010808678343892097,-0.0002365380642004311,-0.00022015953436493874
1772044380945955600,1.81495556640625,-0.002749885432422161,-0.00098838796839118,-0.00005764514207839966
1772044380955941400,1.82494140625,0.0011119646951556206,-0.0008080920088104904,-0.0015375635121017694
1772044380965927400,1.834927490234375,-0.0018236981704831123,0.0019398212898522615,-0.0009576659649610519
1772044380975912000,1.844911865234375,0.0018282942473888397,0.00039918257971294224,0.0005227851215749979
1772044380985898000,1.85489794921875,-0.002612086944282055,0.0009742587571963668,-0.0032741709146648645
1772044380995884000,1.864884033203125,-0.0005049947649240494,0.0010688009206205606,0.0009610538836568594
1772044381005869800,1.874869873046875,-0.0011528870090842247,-0.0023452199529856443,-0.001975624356418848
1772044381015856000,1.884856201171875,-0.0027262819930911064,-0.0007680958951823413,-0.0015433928929269314
1772044381025841000,1.8948408203125,0.0007837135344743729,0.0005854452028870583,0.0004626295994967222
1772044381035827000,1.904826904296875,0.00047212373465299606,-0.00003134293365292251,-0.0012516474816948175
1772044381045812700,1.914812744140625,-0.002014726400375366,0.0018104950431734324,0.0028302583377808332
1772044381055799000,1.924799072265625,0.001219150610268116,-0.0014638614375144243,-0.0006651408039033413
1772044381065784800,1.934784912109375,-0.0016485853120684624,-0.0030581550672650337,0.00031869811937212944
1772044381075771000,1.94477099609375,0.0021080700680613518,-0.000013895652955397964,-0.0003939641173928976
1772044381085756000,1.954755859375,-0.0024951016530394554,0.0011165449395775795,0.0007635846268385649
1772044381095742000,1.964741943359375,-0.00027588941156864166,-0.000021956395357847214,0.00015878072008490562
1772044381105728000,1.97472802734375,0.0005405321717262268,-0.00011286549852229655,0.0002557744737714529
1772044381115713800,1.9847138671875,-0.0017167627811431885,0.0005691700498573482,-0.00041933683678507805
1772044381125700000,1.9947001953125,-0.0017542717978358269,-0.0019058820325881243,0.0015016647521406412
1772044381135686000,2.004685791015625,-0.0021095378324389458,-0.0006222383817657828,0.000009495532140135765
1772044381145671000,2.0146708984375,-0.0007950467988848686,-0.0002247369848191738,-0.003192680422216654
1772044381155657000,2.024656982421875,0.001705927774310112,0.00010629392636474222,0.0007983327377587557
1772044381165643000,2.03464306640625,0.0006824098527431488,-0.0003715163329616189,0.0002782815136015415
1772044381175628800,2.04462890625,-0.0017932644113898277,-0.0003576679155230522,0.000020221108570694923
1772044381185614800,2.05461474609375,-0.00024710316210985184,-0.002967915730550885,0.002406670479103923
1772044381195600100,2.06460009765625,-0.0010572364553809166,-0.0011431180173531175,-0.0010375955607742071
1772044381205586000,2.0745859375,0.00017921719700098038,-0.0023381607607007027,-0.0010173851624131203
1772044381215572000,2.084572021484375,0.0022383742034435272,-0.0010633055353537202,-0.0011710496619343758
1772044381225558000,2.09455810546875,0.0003755660727620125,0.0010623445268720388,-0.0014775595627725124
1772044381235544000,2.1045439453125,0.000401398167014122,0.0015406482852995396,0.00037413625977933407
1772044381245529900,2.11452978515625,-0.0005515832453966141,-0.001851084642112255,0.0013567639980465174
1772044381255515000,2.124514892578125,-0.0013952720910310745,-0.0001996584760490805,0.00036447029560804367
1772044381265501000,2.1345009765625,-0.00014946237206459045,-0.0021239283960312605,-0.0018357436638325453
1772044381275487000,2.144487060546875,0.0037270355969667435,-0.0012695861514657736,-0.00034517236053943634
1772044381285472800,2.15447265625,-0.0013980790972709656,-0.0012052538804709911,0.0009152356069535017
1772044381295459000,2.164458984375,0.00137427169829607,0.0008957138634286821,-0.0007052980363368988
1772044381305444900,2.17444482421875,0.0004107607528567314,-0.0016753602540120482,0.0014362949877977371
1772044381315430000,2.184429931640625,-0.0006009740754961967,0.001333212829194963,0.0008940752595663071
1772044381325416000,2.194416015625,-0.0005003605037927628,0.0011295409640297294,-0.0019499086774885654
1772044381335402000,2.204402099609375,0.0006794193759560585,0.0012400620616972446,-0.0012532258406281471
1772044381345388000,2.214387939453125,0.0007674545049667358,-0.00042911001946777105,0.0008916009683161974
1772044381355373800,2.224373779296875,-0.00242807250469923,0.000689950305968523,-0.0012269439175724983
1772044381365358800,2.23435888671875,-0.0005358299240469933,-0.00018969716620631516,0.0020118518732488155
1772044381375345000,2.244344970703125,0.0008601993322372437,0.00014745903899893165,0.001084006391465664
1772044381385331000,2.2543310546875,-0.000743192620575428,0.00005296131712384522,-0.0009417845867574215
1772044381395316700,2.264316650390625,0.002103193663060665,0.0006087630172260106,-0.00016147829592227936
1772044381405303000,2.274302978515625,0.001359105110168457,0.000781885115429759,0.0015480481088161469
1772044381415288800,2.284288818359375,0.0005300631746649742,0.00022688234457746148,0.0005493627395480871
1772044381425273900,2.29427392578125,0.0019346745684742928,-0.00031397101702168584,0.000896799610927701
1772044381435260200,2.30426025390625,0.0011913860216736794,-0.001602674718014896,-0.0002646050415933132
1772044381445246000,2.314245849609375,-0.0016477415338158607,-0.000015179917681962252,-0.0016128071583807468
1772044381455232000,2.32423193359375,-0.0006447946652770042,-0.0012636699248105288,-0.001839708536863327
1772044381465217800,2.3342177734375,0.000821264460682869,0.00018377488595433533,-0.001210237154737115
1772044381475203000,2.344203125,-0.0012030042707920074,-0.001321177463978529,-0.001159104285761714
1772044381485188900,2.35418896484375,-0.0008787540718913078,0.000648283923510462,0.0004813303239643574
1772044381495175000,2.3641748046875,0.0005753319710493088,0.0008006167481653392,0.0009588352404534817
1772044381505161000,2.374160888671875,0.000012437812983989716,-0.00014960020780563354,0.0004116799682378769
1772044381515147000,2.38414697265625,-0.0009489627555012703,-0.0006177839240990579,-0.00095345638692379
1772044381525132000,2.394132080078125,0.0025896746665239334,-0.0009744653943926096,-0.0019747386686503887
1772044381535117800,2.404117919921875,-0.0005733612924814224,-0.0007334493566304445,0.0007081299554556608
1772044381545104100,2.414104248046875,-0.0008605131879448891,-0.0006266061100177467,-0.0009925062768161297
1772044381555090000,2.42408984375,0.0010268697515130043,-0.0015464620664715767,-0.0015485743060708046
1772044381565076000,2.434075927734375,0.0021130917593836784,-0.0033538653515279293,-0.0012305686250329018
1772044381575062000,2.44406201171875,-0.0006456766277551651,-0.0008947024471126497,0.00003896001726388931
1772044381585047000,2.454047119140625,-0.000033464282751083374,-0.0007986187702044845,0.0006838266272097826
1772044381595032800,2.46403271484375,-0.0019709141924977303,-0.00006305371061898768,0.0012220514472573996
1772044381605019000,2.474018798828125,0.0008245240896940231,0.0019985453691333532,-0.00003071664832532406
1772044381615005000,2.4840048828125,-0.0005786959081888199,-0.0016188261797651649,-0.0012954517733305693
1772044381624991000,2.493990966796875,-0.00030283909291028976,-0.001445732545107603,-0.0011881515383720398
1772044381634976000,2.50397607421875,-0.001051187515258789,-0.0011831449810415506,0.0007192043121904135
1772044381644961800,2.5139619140625,-0.0007930565625429153,-0.0009059180738404393,-0.0002962700091302395
1772044381654948000,2.523947998046875,-0.0008473852649331093,-0.0013682427816092968,-0.0012203871738165617
1772044381664934000,2.533933837890625,0.0003036158159375191,0.0026949974708259106,-0.0007894823793321848
1772044381674920000,2.543919921875,0.0007001608610153198,-0.0010597935179248452,0.0012771307956427336
1772044381684906000,2.553906005859375,0.00016108620911836624,0.0006205916870385408,-0.003185197012498975
1772044381694891000,2.56389111328125,0.0002359217032790184,-0.0010372260585427284,-0.001272514695301652
1772044381704876800,2.573876708984375,0.000800400972366333,0.00010930975258816034,-0.0007872178684920073
1772044381714862800,2.58386279296875,0.00032529234886169434,0.0025580863002687693,-0.0006396786775439978
1772044381724849000,2.593848876953125,-0.0021880846470594406,-0.002202778123319149,0.0017679575830698013
1772044381734835000,2.6038349609375,0.0003696149215102196,-0.001006752485409379,-0.00029545952565968037
1772044381744820000,2.613820068359375,0.0011691022664308548,0.00209238869138062,0.0005969803314656019
1772044381754806000,2.623805908203125,0.0000774729996919632,-0.00001790025271475315,-0.0005244768690317869
1772044381764792000,2.6337919921875,0.00006580445915460587,0.001133900717832148,-0.0011556274257600307
1772044381774777900,2.64377783203125,0.000002954155206680298,-0.0013420401373878121,-0.0011718729510903358
1772044381784764200,2.65376416015625,0.0008123200386762619,-0.00006913655670359731,0.00007092137821018696
1772044381794749000,2.6637490234375,0.00024293642491102219,0.0008315445156767964,-0.0011354906018823385
1772044381804735000,2.67373486328125,-0.0011600172147154808,-0.0008531712228432298,-0.0017152607906609774
1772044381814720800,2.683720703125,0.000130530446767807,-0.00008230813546106219,0.0010306327603757381
1772044381824707000,2.69370703125,0.0010878276079893112,0.0007709594210609794,0.0013478503096848726
1772044381834692900,2.70369287109375,-0.00132686085999012,-0.0014956570230424404,-0.002580045722424984
1772044381844678000,2.713677978515625,-0.0014849156141281128,0.0020119252149015665,-0.0006026262417435646
1772044381854664000,2.723663818359375,-0.002553909085690975,-0.0008600276778452098,0.0006855449173599482
1772044381864650000,2.73364990234375,-0.000053151510655879974,-0.0012397596146911383,-0.0006265267729759216
1772044381874636000,2.743635986328125,-0.00048032309859991074,-0.0022339175920933485,0.0006049189250916243
1772044381884621800,2.753621826171875,-0.002132430672645569,0.00037587241968140006,-0.0017206158954650164
1772044381894608100,2.763608154296875,0.000017805024981498718,0.0007298064883798361,-0.0013160814996808767
1772044381904593000,2.773593017578125,-0.0007710559293627739,0.002653995295986533,0.0007112424355000257
1772044381914579000,2.783578857421875,-0.0004144590348005295,-0.0010017259046435356,-0.0021894725505262613
1772044381924564700,2.793564697265625,-0.0028217341750860214,-0.0006013363017700613,-0.0014919477980583906
1772044381934551000,2.803551025390625,-0.0017508771270513535,-0.0012181244092062116,0.0024394108913838863
1772044381944536800,2.813536865234375,-0.0011526141315698624,-0.00033819215605035424,-0.0002712432760745287
1772044381954521900,2.82352197265625,-0.0012434283271431923,-0.001080947695299983,-0.0008656606078147888
1772044381964508200,2.833508056640625,0.0013995319604873657,0.0017785562667995691,0.000144976656883955
1772044381974494700,2.84349462890625,-0.0001482972875237465,-0.0015016591642051935,-0.0010116342455148697
1772044381984480500,2.85348046875,-0.003043052740395069,-0.0003307125298306346,0.0007726468611508608
1772044381994466800,2.863466796875,-0.0009005395695567131,0.00115293450653553,-0.0011381711810827255
1772044382004451800,2.873451904296875,0.0016482630744576454,0.002314297715201974,-0.0009685356635600328
1772044382014437600,2.883437744140625,-0.0007701534777879715,0.0002311731514055282,-0.0019211482722312212
1772044382024423700,2.893423583984375,-0.0003711553290486336,0.0009654544992372394,-0.00029687071219086647
1772044382034409700,2.90340966796875,-0.0000036386772990226746,-0.001727800234220922,0.0015534935519099236
1772044382044395800,2.913395751953125,-0.00046710390597581863,-0.0012483347672969103,0.0012115426361560822
1772044382054380500,2.923380615234375,-0.002611747942864895,0.00490196980535984,-0.00008088955655694008
1772044382064366600,2.93336669921875,0.0004335828125476837,0.0007108544232323766,0.0013412866974249482
1772044382074352600,2.9433525390625,-0.000001044943928718567,-0.001367476535961032,0.0022496909368783236
1772044382084338700,2.953338623046875,0.0025522541254758835,0.0005342687945812941,-0.0004504870157688856
1772044382094324500,2.963324462890625,-0.0014097308740019798,-0.0007645548903383315,-0.0005375724285840988
1772044382104309800,2.973309814453125,0.0017047980800271034,-0.00038681691512465477,-0.0012322536204010248
1772044382114295800,2.9832958984375,-0.0014414610341191292,0.0015785959549248219,-0.0005073412321507931
1772044382124281600,2.993281494140625,-0.0012946287170052528,0.000011682452168315649,0.002254961524158716
1772044382134268000,3.003267822265625,0.001017528586089611,-0.001424293965101242,0.003279745811596513
1772044382144253700,3.013253662109375,0.0008383458480238914,-0.0019074047449976206,0.00040839891880750656
1772044382154239700,3.02323974609375,0.0004785535857081413,0.00023510836763307452,-0.0017578164115548134
1772044382164224500,3.033224609375,-0.0006128847599029541,0.00035306892823427916,0.0012802768032997847
1772044382174210800,3.0432109375,-0.0002815881744027138,-0.0012288487050682306,-0.0014017925132066011
1772044382184196600,3.053196533203125,0.0007248446345329285,-0.00046869384823367,-0.0009910610970109701
1772044382194182700,3.0631826171875,-0.001022455282509327,-0.00021675880998373032,-0.00011354940943419933
1772044382204168700,3.073168701171875,-0.0023605087772011757,0.0012255192268639803,-0.0009424998424947262
1772044382214153700,3.08315380859375,-0.00018417369574308395,0.00043988670222461224,-0.0022759446874260902
1772044382224139800,3.093139892578125,-0.0013232268393039703,0.0018877824768424034,0.0007363853510469198
1772044382234125600,3.10312548828125,-0.00017646979540586472,0.0006536735454574227,-0.00032594939693808556
1772044382244112000,3.11311181640625,0.001088700257241726,0.0007445554947480559,-0.00024461117573082447
1772044382254097700,3.12309765625,-0.0010879011824727058,-0.0005766386748291552,-0.0015948335640132427
1772044382264082700,3.133082763671875,-0.0017420360818505287,0.000827674986794591,0.0011477295774966478
1772044382274068500,3.143068359375,0.0008284468203783035,-0.00006102188490331173,0.000060360878705978394
1772044382284054800,3.1530546875,-0.00031694211065769196,-0.0010439809411764145,-0.0004104585386812687
1772044382294040600,3.16304052734375,-0.00018458254635334015,-0.0013763434253633022,-0.002590522402897477
1772044382304026600,3.173026611328125,0.0001971190795302391,-0.0007812757394276559,0.0004202879499644041
1772044382314011600,3.18301171875,0.00012254994362592697,0.0006025027250871062,-0.000508622732013464
1772044382323997700,3.192997802734375,0.00006692856550216675,0.0014007913414388895,-0.00019684224389493465
1772044382333983700,3.202983642578125,0.002718105912208557,0.001165101770311594,-0.0005153564270585775
1772044382343969500,3.212969482421875,0.0010779257863759995,0.0028502880595624447,0.000871976837515831
1772044382353955800,3.222955810546875,0.0014153486117720604,0.0008292152779176831,0.00008740951307117939
1772044382363940600,3.232940673828125,0.0006854170933365822,0.0009800202678889036,-0.0002966753672808409
1772044382373926700,3.2429267578125,-0.002523692324757576,0.0006375376833602786,0.00025992514565587044
1772044382383912700,3.25291259765625,-0.0008029788732528687,-0.0014575194800272584,0.0003096244763582945
1772044382393898800,3.262898681640625,-0.0014152396470308304,0.0021958048455417156,-0.0012347428128123283
1772044382403884500,3.272884521484375,0.001436620019376278,-0.0011850972659885883,0.000549590215086937
1772044382413869600,3.28286962890625,0.0006179641932249069,-0.0008676484576426446,-0.0007391134276986122
1772044382423855900,3.29285595703125,0.0032096263021230698,-0.0016303535085171461,0.0006679093930870295
1772044382433841700,3.302841552734375,0.0035345330834388733,0.00009031486115418375,0.0007688433397561312
1772044382443827700,3.31282763671875,0.0012357048690319061,-0.0001722303277347237,0.0018248514970764518
1772044382453813800,3.322813720703125,-0.00011292006820440292,0.0011625459883362055,-0.0003858385607600212
1772044382463798800,3.332798828125,0.0003353068605065346,0.0009434657986275852,-0.0004167498555034399
1772044382473784600,3.34278466796875,-0.0012412844225764275,0.004114225506782532,-0.00175605365075171
1772044382483770600,3.3527705078125,0.00033964216709136963,0.0009466647752560675,-0.0016879201866686344
1772044382493756700,3.362756591796875,0.0010048998519778252,0.001243074657395482,0.001862339791841805
1772044382503742700,3.37274267578125,0.00011818483471870422,-0.00018555892165750265,0.0003203810192644596
1772044382513727700,3.382727783203125,0.002584538422524929,0.0005824967520311475,-0.0006293023470789194
1772044382523713500,3.392713623046875,0.0003472501412034035,-0.0018922854214906693,-0.0008362182416021824
1772044382533699800,3.402699951171875,0.0003709523007273674,0.0003066867357119918,-0.0001709607895463705
1772044382543685600,3.412685546875,0.001082366332411766,-0.0023058471269905567,-0.0011042281985282898
1772044382553670700,3.422670654296875,0.0011723805218935013,0.0003067139186896384,-0.0002046122681349516
1772044382563656700,3.43265673828125,0.0022063981741666794,-0.0021069003269076347,0.0029723525512963533
1772044382573642800,3.442642822265625,0.001222892664372921,-0.00023895921185612679,-0.0008333045989274979
1772044382583628500,3.452628662109375,0.0030326666310429573,-0.002215387299656868,-0.0007389120291918516
1772044382593614600,3.462614501953125,0.0011125262826681137,-0.0010244217701256275,-0.0015019078273326159
1772044382603600000,3.472599853515625,0.00009500887244939804,0.0010449724504724145,-0.0011238374281674623
1772044382613585700,3.482585693359375,0.003218097612261772,-0.0010749036446213722,0.00011453242041170597
1772044382623571700,3.49257177734375,0.0014284979552030563,-0.002178631955757737,-0.0008135668467730284
1772044382633557800,3.502557861328125,-0.0010599596425890923,0.0011170299258083105,-0.0004918570630252361
1772044382643543800,3.512543701171875,0.00014853663742542267,0.0026672508101910353,-0.0008330885320901871
1772044382653528600,3.522528564453125,0.0007900921627879143,0.0010049056727439165,-0.0010618539527058601
1772044382663514600,3.5325146484375,0.0029332684352993965,0.0000012990494724363089,-0.0008450867608189583
1772044382673500700,3.542500732421875,0.0021953070536255836,0.000047371722757816315,-0.0021303282119333744
1772044382683486700,3.55248681640625,-0.00038372911512851715,0.00143676926381886,-0.0003589263651520014
1772044382693472500,3.562472412109375,0.0009798090904951096,-0.00024368538288399577,-0.0030553769320249557
1772044382703457500,3.57245751953125,0.0020789755508303642,-0.0017379733035340905,-0.001289047533646226
1772044382713443800,3.58244384765625,0.0004547135904431343,-0.0018215965246781707,-0.000361735001206398
1772044382723429600,3.5924296875,0.0009448062628507614,-0.0030753035098314285,0.0011949168983846903
1772044382733415700,3.602415771484375,-0.0013529695570468903,-0.0016031080158427358,0.00016667041927576065
1772044382743401700,3.612401611328125,0.002398485317826271,0.0005487374728545547,0.0000838632695376873
1772044382753386800,3.62238671875,0.0015100548043847084,-0.0008685968932695687,-0.0012184225488454103
1772044382763372500,3.63237255859375,-0.0005979351699352264,-0.0017600745195522904,-0.0008252500556409359
1772044382773358600,3.642358642578125,-0.0014237817376852036,0.001362481969408691,-0.00028569367714226246
1772044382783344600,3.6523447265625,-0.0012822113931179047,-0.0012109754607081413,0.001037966925650835
1772044382793330700,3.66233056640625,-0.00002972688525915146,-0.0012357430532574654,0.00035353447310626507
1772044382803315700,3.672315673828125,-0.0007229829207062721,-0.0005309107364155352,0.0019324244931340218
1772044382813301800,3.6823017578125,-0.00012829899787902832,0.0006944097112864256,-0.0010551095474511385
1772044382823287800,3.692287841796875,0.00042049121111631393,-0.001046906691044569,-0.0011348305270075798
1772044382833273600,3.702273681640625,0.0013778973370790482,-0.0009193412261083722,-0.0007057953625917435
1772044382843259600,3.712259765625,-0.0011602826416492462,-0.000888136331923306,-0.0009387917816638947
1772044382853244700,3.72224462890625,0.0020925020799040794,0.002800608053803444,0.000051105162128806114
1772044382863230700,3.732230712890625,-0.0005329102277755737,-0.0017116101225838065,-0.0015625064261257648
1772044382873216500,3.742216552734375,-0.0012338543310761452,0.0001728427450871095,-0.0003225386608392
1772044382883202800,3.752202880859375,-0.002755245193839073,0.0008677493315190077,-0.000352001516148448
1772044382893187800,3.762187744140625,0.0009558703750371933,-0.0007812799885869026,-0.0009062052704393864
1772044382903173600,3.772173583984375,-0.0008457005023956299,-0.0008409148431383073,-0.0004578374791890383
1772044382913159700,3.78215966796875,0.00015245191752910614,-0.002154652262106538,-0.0005276123993098736
1772044382923145700,3.792145751953125,-0.0014905454590916634,0.0003901615273207426,-0.0005017402581870556
1772044382933131800,3.8021318359375,-0.0002455171197652817,-0.002271135337650776,-0.0007217172533273697
1772044382943116500,3.812116455078125,-0.0017075249925255775,-0.0024942010641098022,-0.0005361090879887342
1772044382953102600,3.8221025390625,-0.002324046567082405,0.00010451133130118251,-0.001957171829417348
1772044382963088600,3.832088623046875,0.0001464271917939186,0.000898952828720212,-0.0007042600773274899
1772044382973074200,3.84207421875,-0.0023337742313742638,-0.001864875666797161,-0.0012153205461800098
1772044382983060200,3.852060302734375,-0.0013462556526064873,0.0008178488351404667,0.0012968755327165127
1772044382993045000,3.862044921875,-0.0005004359409213066,-0.0004162600380368531,-0.0001462914515286684
1772044383003031000,3.872031005859375,-0.0012304875999689102,0.002248436212539673,-0.0015706848353147507
1772044383013017000,3.88201708984375,0.00040442682802677155,-0.0005801072693429887,-0.0014188848435878754
1772044383023003100,3.892003173828125,0.0006604576483368874,0.001437358558177948,-0.0035744730848819017
1772044383032989000,3.901989013671875,-0.0014623478055000305,-0.0014500406105071306,-0.00029452377930283546
1772044383042974000,3.911973876953125,-0.000658511184155941,-0.0017092791385948658,0.0020535700023174286
1772044383052960300,3.921960205078125,-0.001656397245824337,0.0022622928954660892,0.0021526396740227938
1772044383062946000,3.931946044921875,0.0022816238924860954,0.00042944937013089657,-0.0004913527518510818
1772044383072932000,3.94193212890625,0.0008839964866638184,0.00043930308311246336,0.0009326394647359848
1772044383082917000,3.951917236328125,0.002475261688232422,-0.0009129852405749261,-0.0013599912635982037
1772044383092903200,3.961903076171875,0.000014500692486763,-0.001177170779556036,-0.00121591379866004
1772044383102889000,3.971888916015625,-0.0009329328313469887,-0.0018211236456409097,0.0006750065367668867
1772044383112875300,3.981875244140625,0.00146471057087183,0.00185563659761101,-0.0006722866091877222
1772044383122861000,3.991861083984375,-0.00015269871801137924,-0.00042114584357477725,0.00038910750299692154
1772044383132846000,4.00184619140625,-0.0011375350877642632,-0.00023765405057929456,0.0002972283400595188
1772044383142832000,4.01183203125,-0.0001703500747680664,-0.0031842635944485664,-0.0010315885301679373
1772044383152818200,4.021818115234375,-0.0015400135889649391,-0.0002872771001420915,0.003022009041160345
1772044383162804200,4.03180419921875,-0.0007257722318172455,-0.0008870852179825306,0.0013416915899142623
1772044383172790000,4.0417900390625,0.00015653297305107117,-0.00024180131731554866,-0.0023348021786659956
1772044383182775000,4.051775146484375,0.0011443402618169785,0.0014524993021041155,0.003388055367395282
1772044383192761000,4.061760986328125,-0.0002990933135151863,0.00026393058942630887,-0.0010831255931407213
1772044383202747100,4.0717470703125,-0.00018396973609924316,0.0009022376616485417,-0.0025878241285681725
1772044383212733000,4.08173291015625,0.0003614462912082672,-0.0011744953226298094,0.00007267366163432598
1772044383222719200,4.09171923828125,-0.002843176946043968,0.0009015605901367962,-0.0023013411555439234
1772044383232704300,4.101704345703125,-0.0012269038707017899,0.00039689152617938817,0.001237200922332704
1772044383242690000,4.11168994140625,0.0006077736616134644,0.002805757336318493,0.0005574014503508806
1772044383252676000,4.121676025390625,-0.00020076148211956024,-0.0013184137642383575,-0.0024578296579420567
1772044383262662100,4.131662109375,-0.0019722767174243927,0.0014368530828505754,-0.0006949605885893106
1772044383272647200,4.141647216796875,0.00026025157421827316,-0.0007770328666083515,-0.00044462340883910656
1772044383282633000,4.151633056640625,-0.00014743581414222717,0.0006776722148060799,-0.0010557982604950666
1772044383292619000,4.161618896484375,-0.0013256184756755829,0.0003506360517349094,0.0004182613920420408
1772044383302605000,4.17160498046875,-0.0007907189428806305,0.00010528610437177122,-0.0017199278809130192
1772044383312591000,4.181591064453125,-0.002551867626607418,0.0007210089243017137,0.0004801093600690365
1772044383322576100,4.191576171875,-0.0010653520002961159,-0.0023430988658219576,-0.0012035476975142956
1772044383332562200,4.201562255859375,0.002183171920478344,0.0019549767021089792,-0.0010339044965803623
1772044383342548200,4.21154833984375,0.0005347440019249916,0.0027859057299792767,0.0009730830788612366
1772044383352534000,4.221533935546875,-0.00016300473362207413,0.003441575914621353,-0.001009906642138958
1772044383362519000,4.23151904296875,0.00040410831570625305,0.0004558183718472719,-0.0014690207317471504
1772044383372505000,4.241505126953125,0.00025337375700473785,-0.0011402140371501446,-0.0015332028269767761
1772044383382491100,4.2514912109375,0.001767885871231556,-0.0010610772296786308,-0.0006285833660513163
1772044383392477000,4.261476806640625,-0.0004838164895772934,-0.0007388346712104976,0.00018714298494160175
1772044383402463200,4.271463134765625,0.001999642699956894,-0.00034613022580742836,-0.001539784949272871
1772044383412448300,4.2814482421875,-0.0003524618223309517,0.00048024868010543287,0.000041866209357976913
1772044383422434000,4.29143408203125,0.0005518477410078049,-0.0010018519824370742,-0.0006778959650546312
1772044383432420000,4.301420166015625,-0.0012314049527049065,-0.00193608901463449,0.001684860559180379
1772044383442406100,4.31140625,0.00038001034408807755,0.0004178689850959927,0.0016266395105049014
1772044383452392200,4.32139208984375,-0.0017140330746769905,-0.0015544680645689368,0.001957403961569071
1772044383462377000,4.331376953125,-0.001146581955254078,-0.00023284374037757516,0.0014028935693204403
1772044383472363000,4.341363037109375,0.0011136429384350777,0.0006385425804182887,-0.0004685097374022007
1772044383482349000,4.35134912109375,0.0022072317078709602,0.0008708767127245665,0.0010527849663048983
1772044383492335000,4.361335205078125,-0.0001573888584971428,0.0002215979911852628,0.0016669097822159529
1772044383502320000,4.371320068359375,0.0014151530340313911,-0.00017281394684687257,-0.00004089786671102047
1772044383512306200,4.38130615234375,-0.00040644966065883636,-0.0015038617420941591,0.002474191365763545
1772044383522292200,4.391292236328125,-0.0011494243517518044,0.0009837436955422163,-0.0007518741767853498
1772044383532278000,4.401278076171875,0.002168075181543827,-0.00067167729139328,-0.001312469830736518
1772044383542264300,4.411264404296875,0.0002928599715232849,-0.0015101403696462512,0.0006438612472265959
1772044383552249000,4.4212490234375,0.0022217873483896255,-0.0012560748727992177,0.0009535867720842361
1772044383562235100,4.431235107421875,0.0020584138110280037,-0.0005424026749096811,0.0017359532648697495
1772044383572221000,4.441220947265625,-0.0008827811107039452,-0.001247607753612101,0.0006477856077253819
1772044383582207200,4.451207275390625,0.001515406183898449,0.00135693303309381,0.0009209408890455961
1772044383592192300,4.461192138671875,-0.0003972761332988739,-0.00005214550765231252,-0.0012050603982061148
1772044383602178000,4.471177978515625,-0.001154736615717411,-0.00018518808064982295,-0.0006799639668315649
1772044383612164000,4.4811640625,0.0018929848447442055,-0.00025070185074582696,-0.0010264411102980375
1772044383622150100,4.491150146484375,-0.00009400304406881332,-0.0001999305677600205,0.001610718434676528
1772044383632136200,4.50113623046875,-0.0012311730533838272,-0.00004280408029444516,-0.0010148922447115183
1772044383642121000,4.511120849609375,0.0011220285668969154,0.0018472158117219806,-0.000808212673291564
1772044383652107000,4.52110693359375,-0.0017528533935546875,0.0003065770724788308,0.0026781312189996243
1772044383662093000,4.531093017578125,-0.00013380404561758041,0.002628265181556344,-0.0005835681222379208
1772044383672079000,4.5410791015625,0.0028486698865890503,-0.0002900265681091696,0.0023560291156172752
1772044383682065000,4.55106494140625,0.0013256091624498367,-0.00017224487964995205,0.0009721997193992138
1772044383692050200,4.56105029296875,0.002374894917011261,0.0009050037479028106,0.0004614053759723902
1772044383702036200,4.5710361328125,-0.0014307992532849312,0.0005228851223364472,0.003405712079256773
1772044383712022000,4.58102197265625,0.000664043240249157,-0.00004969452857039869,0.00026451353915035725
1772044383722008000,4.591008056640625,0.00043311621993780136,-0.00027023127768188715,-0.00007778196595609188
1772044383731993000,4.6009931640625,0.002126087434589863,0.001205692533403635,0.00047082919627428055
1772044383741979100,4.610979248046875,-0.0006697792559862137,0.00038708627107553184,0.0003166268579661846
1772044383751965000,4.62096484375,0.0006013475358486176,0.0050018117763102055,0.0002431236207485199
1772044383761951200,4.630951171875,-0.0017233910039067268,0.0017505388241261244,-0.0005391500890254974
1772044383771936300,4.640936279296875,0.0001669200137257576,-0.00043911224929615855,0.0022374617401510477
1772044383781922000,4.650922119140625,0.0025374190881848335,-0.00008972617797553539,0.0010165630374103785
1772044383791908000,4.660908203125,0.0002553565427660942,0.00040429021464660764,-0.001227149972692132
1772044383801894100,4.67089404296875,0.0004905452951788902,-0.0016262925928458571,0.001478178659453988
1772044383811880200,4.680880126953125,0.0009592613205313683,-0.002066513290628791,0.0007436787709593773
1772044383821865000,4.690864990234375,0.0011027483269572258,0.0005250946269370615,0.0004822870250791311
1772044383831851000,4.70085107421875,0.0022782674059271812,0.001609267434105277,-0.0007627406157553196
1772044383841837000,4.710837158203125,0.000050078146159648895,0.00016320552094839513,-0.0021575947757810354
1772044383851823000,4.720822998046875,-0.0009755045175552368,-0.0010474675800651312,-0.0009775480721145868
1772044383861808000,4.73080810546875,0.0013800952583551407,0.0018566424259915948,0.00026186229661107063
1772044383871794200,4.740794189453125,0.0011569224298000336,-0.0010123809333890676,0.0006453574169427156
1772044383881780200,4.7507802734375,-0.0014079893007874489,-0.00015418266411870718,0.0003964623901993036
1772044383891766000,4.76076611328125,-0.0006252862513065338,-0.0005616463022306561,0.00250994716770947
1772044383901752000,4.770751953125,0.0005661314353346825,-0.0009753641206771135,0.0025634788908064365
1772044383911737000,4.780737060546875,0.001521407626569271,-0.0023074771743267775,-0.002077345736324787
1772044383921723100,4.79072314453125,0.0020101768895983696,0.0018701143562793732,-0.000590053154155612
1772044383931709000,4.800708984375,0.000827200710773468,0.00006821961142122746,0.0006286092102527618
1772044383941695200,4.8106953125,0.0018033701926469803,-0.001160366227850318,-0.0012094604317098856
1772044383951680300,4.82068017578125,0.002597259357571602,0.0021078651770949364,0.0008321187924593687
1772044383961666000,4.830666015625,-0.0003411266952753067,0.0019122099038213491,-0.0006706153508275747
1772044383971652000,4.840652099609375,0.0016205571591854095,0.00098090257961303,-0.0022927464451640844
1772044383981638100,4.85063818359375,0.0005956022068858147,-0.0019378993893042207,0.001593342050909996
1772044383991624200,4.860624267578125,0.0024728644639253616,-0.000008172792149707675,0.000920627498999238
1772044384001609200,4.870609130859375,0.0012010876089334488,-0.0012294432381168008,0.002129539381712675
1772044384011595300,4.88059521484375,-0.00045300181955099106,-0.0006222425727173686,0.0014195404946804047
1772044384021581000,4.8905810546875,0.00107659213244915,0.0013889430556446314,-0.00017968215979635715
1772044384031567400,4.9005673828125,0.0021336013451218605,0.0029138692189007998,0.0001406960655003786
1772044384041552400,4.910552490234375,-0.0006166128441691399,-0.00020610945648513734,-0.0011308593675494194
1772044384051538200,4.9205380859375,-0.00023871008306741714,-0.0006250246660783887,0.002230050042271614
1772044384061524200,4.930524169921875,0.0010346099734306335,0.0012149375397711992,0.0005068443715572357
1772044384071510300,4.94051025390625,-0.00047433655709028244,-0.000537955085746944,0.00006795534864068031
1772044384081496300,4.950496337890625,0.0024381857365369797,0.0008073088247328997,0.0022044600918889046
1772044384091481000,4.960481201171875,-0.0005892962217330933,-0.002315513789653778,0.0007232099305838346
1772044384101467100,4.970467041015625,-0.0006858706474304199,-0.001130823278799653,0.001221359707415104
1772044384111453200,4.980453125,0.0017959289252758026,-0.0033268658444285393,-0.0007368624210357666
1772044384121439200,4.990439208984375,-0.00004978012293577194,-0.00016070541460067034,0.0018172459676861763
1772044384131424300,5.00042431640625,0.0014370623975992203,0.00040415104012936354,-0.0003114186692982912
1772044384141410300,5.010410400390625,-0.001659615896642208,-0.0018166375812143087,0.0012243685778230429
1772044384151396400,5.020396240234375,0.0010616015642881393,0.0005357326008379459,0.0018171881092712283
1772044384161382100,5.030382080078125,0.0008839908987283707,-0.0014681662432849407,0.0018994890851899981
1772044384171367200,5.0403671875,0.0017633670940995216,-0.002071106107905507,-0.0022457209415733814
1772044384181353200,5.050353271484375,-0.0011249631643295288,-0.0021595130674540997,0.00020131515339016914
1772044384191339300,5.06033935546875,0.001201573759317398,-0.00013417907757684588,0.0009712348692119122
1772044384201325000,5.070324951171875,0.0020670322701334953,-0.0006773469503968954,0.00007533584721386433
1772044384211311400,5.080311279296875,0.0000036153942346572876,-0.0005031762411817908,-0.0003608900588005781
1772044384221296400,5.09029638671875,0.000035283155739307404,0.000618455174844712,-0.0006193218287080526
1772044384231282200,5.1002822265625,0.0007830988615751266,-0.00019860261818394065,-0.0005482158157974482
1772044384241268200,5.110268310546875,0.0003561442717909813,0.0002859325031749904,0.00294703571125865
1772044384251254300,5.120254150390625,0.0025788191705942154,-0.00036121567245572805,0.0016785721527412534
1772044384261239300,5.1302392578125,-0.00031277816742658615,0.0021619261242449284,-0.0006522766780108213
1772044384271225000,5.14022509765625,0.00019402150064706802,0.0037678121589124203,-0.0010703930165618658
1772044384281211100,5.150211181640625,0.0011450964957475662,0.0013124949764460325,0.0003023815806955099
1772044384291197200,5.160197265625,-0.001306077465415001,0.00013404618948698044,0.0017705822829157114
1772044384301182200,5.17018212890625,-0.0003371601924300194,0.0016431199619546533,0.0012802821584045887
1772044384311168300,5.180168212890625,0.0025483742356300354,-0.002254682593047619,0.0030675295274704695
1772044384321154000,5.190154052734375,0.0014166375622153282,0.0006074316916055977,0.0015005178283900023
1772044384331140400,5.200140380859375,-0.00017513427883386612,0.0005555000388994813,0.0006554967258125544
1772044384341126100,5.210126220703125,0.000714227557182312,0.0019094982417300344,0.001307114027440548
1772044384351111200,5.220111083984375,0.0003099599853157997,-0.0013379603624343872,0.0015236290637403727
1772044384361097200,5.23009716796875,-0.0001851217821240425,-0.0016279785195365548,0.0020796970929950476
1772044384371083300,5.240083251953125,-0.0016974825412034988,-0.00013425687211565673,0.0004775701090693474
1772044384381069000,5.250069091796875,0.00029658712446689606,0.0006086513167247176,0.0004167105071246624
1772044384391054000,5.26005419921875,-0.00235618744045496,-0.001886997022666037,-0.0013404430355876684
1772044384401040400,5.270040283203125,-0.0009612701833248138,-0.0018516795244067907,0.0014216345734894276
1772044384411026200,5.280026123046875,0.0013125371187925339,0.001116147032007575,-0.0003299263771623373
1772044384421012200,5.29001220703125,0.000006907619535923004,-0.0018458033446222544,0.000746583566069603
1772044384430998300,5.299998291015625,0.001299605704843998,0.00035609814221970737,0.003145026508718729
1772044384440983300,5.3099833984375,-0.0004096236079931259,-0.0033348628785461187,0.0018722350941970944
1772044384450969300,5.31996923828125,-0.0013617035001516342,0.0005482921842485666,0.0005587639752775431
1772044384460955100,5.329955078125,0.0013206107541918755,-0.0014886567369103432,0.00011890404857695103
1772044384470940400,5.3399404296875,-0.0010021990165114403,0.0013563982211053371,0.0009287712164223194
1772044384480926200,5.34992626953125,-0.0026255715638399124,-0.0006509434897452593,0.001738459919579327
1772044384490911200,5.3599111328125,0.00014864280819892883,-0.00011564817395992577,0.0013323279563337564
1772044384500897300,5.369897216796875,-0.0009008264169096947,-0.0038919185753911734,0.00036109029315412045
1772044384510883300,5.37988330078125,-0.0020260121673345566,0.00042906036833301187,0.000005292007699608803
1772044384520869400,5.389869384765625,-0.0010709408670663834,0.0015647716354578733,0.0028105732053518295
1772044384530855200,5.399855224609375,-0.0011511016637086868,0.0018707688432186842,0.0019535678438842297
1772044384540840200,5.409840087890625,-0.0015942901372909546,0.0005927530582994223,0.0020320105832070112
1772044384550826200,5.419826171875,-0.0010946812108159065,0.00011151985381729901,0.0018988525262102485
1772044384560812300,5.429812255859375,-0.0006613824516534805,0.001255386509001255,0.00032649654895067215
1772044384570798000,5.439798095703125,0.0013104220852255821,0.0017267660005018115,0.0010532732121646404
1772044384580783000,5.449783203125,-0.0029488103464245796,-0.00004853188875131309,0.0001888689585030079
1772044384590769400,5.459769287109375,0.00041422992944717407,-0.0018155393190681934,0.0015540053136646748
1772044384600755200,5.469755126953125,0.0012940075248479843,0.001995728351175785,0.0005622331518679857
1772044384610741200,5.4797412109375,-0.00014356616884469986,0.000728862825781107,0.0008117714896798134
1772044384620726300,5.489726318359375,0.0006613526493310928,-0.0010651294142007828,0.002572470810264349
1772044384630712300,5.49971240234375,-0.0037341946735978127,-0.002184455981478095,0.0003434049431234598
1772044384640698000,5.509697998046875,-0.0017380034551024437,0.00025307750911451876,0.000059427693486213684
1772044384650684200,5.51968408203125,-0.0005832565948367119,-0.003159230574965477,0.00020856480114161968
1772044384660670200,5.529670166015625,0.0011951755732297897,0.00006292446050792933,0.0014103404246270657
1772044384670655200,5.5396552734375,0.00034509412944316864,0.002367357723414898,-0.0009297793731093407
1772044384680641300,5.549641357421875,-0.0014733411371707916,-0.000594346085563302,-0.000018748221918940544
1772044384690627300,5.55962744140625,0.0013312343508005142,-0.002141642617061734,0.0031203199177980423
1772044384700613400,5.56961328125,0.001345628872513771,0.0019116791663691401,0.0004983318503946066
1772044384710598100,5.57959814453125,0.000024967826902866364,0.0009321685647591949,-0.00020607421174645424
1772044384720584200,5.589584228515625,0.000540667213499546,6.490154191851616e-9,0.001839806791394949
1772044384730570200,5.5995703125,-0.0015696212649345398,0.000022643362171947956,0.001530613750219345
1772044384740556300,5.609556396484375,0.0012683803215622902,0.0001002096978481859,0.0004126455169171095
1772044384750541300,5.619541259765625,0.0004182988777756691,-0.00024094124091789126,0.0010326295159757137
1772044384760527000,5.629527099609375,-0.001106899231672287,-0.000493418425321579,0.000600890489295125
1772044384770513400,5.639513427734375,-0.00030315667390823364,0.000022169522708281875,0.0012264670804142952
1772044384780499200,5.649499267578125,0.0007577622309327126,0.0006067724898457527,0.0012870666105300188
1772044384790485200,5.6594853515625,-0.00166411604732275,0.0009045138722285628,-0.00008872221224009991
1772044384800470000,5.669469970703125,-0.0013724900782108307,0.0004928995040245354,-0.00016768556088209152
1772044384810456300,5.679456298828125,-0.000380195677280426,0.0007751946104690433,0.001041922252625227
1772044384820442000,5.689442138671875,-0.0005532028153538704,-0.0005369179998524487,0.0017276678700000048
1772044384830428200,5.69942822265625,-0.00034121517091989517,-0.0007981740636751056,0.002069883979856968
1772044384840413400,5.709413330078125,0.000020829960703849792,-0.0018498237477615476,-0.0011160967405885458
1772044384850399200,5.719399169921875,0.0012062033638358116,-0.0011723154457286,0.001670102239586413
1772044384860385300,5.72938525390625,-0.00031389854848384857,0.001684617716819048,0.00030773459002375603
1772044384870371300,5.739371337890625,-0.0012454725801944733,0.0008949904004111886,0.00035114423371851444
1772044384880357400,5.749357421875,0.0005988003686070442,-0.0012437342666089535,0.0026006712578237057
1772044384890343200,5.75934326171875,-0.0008648736402392387,-0.00007194330100901425,0.0015564458444714546
1772044384900328200,5.769328125,-0.0001750364899635315,-0.0010158689692616463,0.002913083415478468
1772044384910314200,5.779314208984375,-0.0017604166641831398,0.0008254405111074448,-0.0005381070077419281
1772044384920300300,5.78930029296875,-0.0006618015468120575,0.0010635487269610167,-0.0015108033549040556
1772044384930286000,5.7992861328125,-0.0014780610799789429,-0.0011442117393016815,-0.000827169744297862
1772044384940271000,5.80927099609375,-0.00008186139166355133,-0.0017224516486749053,-0.0003058717120438814
1772044384950257400,5.81925732421875,-0.000428604893386364,0.0006040857988409698,0.0005037290975451469
1772044384960243200,5.8292431640625,0.0014140261337161064,0.00019245629664510489,-0.001022825948894024
1772044384970229200,5.839229248046875,0.00041054654866456985,-0.0011207484640181065,0.001371888443827629
1772044384980214300,5.84921435546875,-0.00009026657789945602,0.0008814460597932339,0.002021409571170807
1772044384990200300,5.859200439453125,0.00035741087049245834,-0.0010839668102562428,-0.00006810645572841167
1772044385000186400,5.869186279296875,0.001532600261271,0.00036317974445410073,0.0019042275380343199
1772044385010172400,5.87917236328125,-0.00041390396654605865,0.0007727739284746349,0.0010879687033593655
1772044385020158200,5.889158203125,0.0009890459477901459,0.0007674000808037817,0.0009430220816284418
1772044385030143200,5.899143310546875,-0.0012602591887116432,0.0005282482597976923,0.001981921261176467
1772044385040129500,5.909129638671875,-0.0013571269810199738,-0.000814553233794868,0.0013388798106461763
1772044385050115300,5.919115234375,-0.0017030714079737663,0.0005873347399756312,-0.0004438399337232113
1772044385060101400,5.929101318359375,-0.00010266434401273727,-0.0025860751047730446,-0.0010661592241376638
1772044385070086100,5.939086181640625,-0.0011974899098277092,0.0005484652938321233,0.0002867267467081547
1772044385080072400,5.949072509765625,0.001618565060198307,0.0032554499339312315,0.00029558991082012653
1772044385090058200,5.959058349609375,-0.0008997200056910515,-0.00030492997029796243,0.0007693662773817778
1772044385100044300,5.969044189453125,-0.00020325183868408203,-0.001250138389877975,0.0027754681650549173
1772044385110029600,5.979029541015625,-0.0014647915959358215,-0.0008637136779725552,0.0004121791571378708
1772044385120015400,5.989015380859375,0.001416248269379139,-0.0009132599807344377,-0.00038697291165590286
1772044385130001400,5.99900146484375,-0.0010242722928524017,0.004042616579681635,0.00030704657547175884
1772044385139987500,6.008987548828125,0.0006342940032482147,-0.002303424058482051,0.0025652144104242325
1772044385149972500,6.018972412109375,0.0008332319557666779,0.0011150094214826822,0.0010637242812663317
1772044385159958300,6.028958251953125,0.0015015555545687675,-0.0011203779140487313,-0.0011505670845508575
1772044385169944300,6.0389443359375,-0.0018457723781466484,0.002017358550801873,0.0025882446207106113
1772044385179930400,6.048930419921875,0.00039271265268325806,0.0010697556426748633,0.0013089354615658522
1772044385189915400,6.058915283203125,-0.00042008422315120697,-0.0007340033771470189,0.0018921677256003022
1772044385199901400,6.0689013671875,0.0022823987528681755,0.001737573416903615,0.0017073519993573427
1772044385209887200,6.07888720703125,0.0008517494425177574,-0.00041745658381842077,0.00039574503898620605
1772044385219873500,6.08887353515625,0.0008677206933498383,-0.0008023588452488184,0.003070530481636524
1772044385229859300,6.098859375,-0.00008542463183403015,0.001231231028214097,-0.0015247541014105082
1772044385239844400,6.10884423828125,0.0008656680583953857,-0.004251815844327211,0.0025735844392329454
1772044385249830100,6.118830078125,-0.0017178645357489586,-0.0000024762703105807304,0.0018332256004214287
1772044385259816400,6.12881640625,-0.0012230891734361649,-0.00003123038914054632,-0.00025085732340812683
1772044385269802200,6.13880224609375,0.0014874767512083054,-0.0017809271812438965,-0.00073661794885993
1772044385279787300,6.148787353515625,0.0021346379071474075,-0.0010855061700567603,0.00037889485247433186
1772044385289773600,6.158773681640625,0.00043953582644462585,-0.0008948238100856543,0.0007733090315014124
1772044385299759400,6.16875927734375,0.0023778295144438744,0.0005410839803516865,-0.0000061194878071546555
1772044385309745400,6.178745361328125,-0.0003385944291949272,0.0015711947344243526,0.0030261557549238205
1772044385319730200,6.188730224609375,-0.00008487701416015625,-0.00033491794602014124,0.0018063751049339771
1772044385329716500,6.198716552734375,-0.0007421448826789856,-0.0014257486909627914,-0.001489819260314107
1772044385339702300,6.208702392578125,0.0007942691445350647,0.002551608718931675,0.0017297870945185423
1772044385349688300,6.218688232421875,0.0014046654105186462,-0.0003954453277401626,0.000473574036732316
1772044385359673300,6.22867333984375,0.0005316808819770813,0.0005682153278030455,0.0018133819103240967
1772044385369659400,6.238659423828125,0.0012579252943396568,-0.0032105438876897097,0.0010213577188551426
1772044385379645400,6.2486455078125,-0.0003014104440808296,-0.001592228072695434,0.00003353063948452473
1772044385389631200,6.25863134765625,-0.0010676020756363869,-0.0009509389055892825,0.0001568351872265339
1772044385399616300,6.2686162109375,0.0012157820165157318,0.0021020302083343267,0.0010714128147810698
1772044385409602300,6.278602294921875,0.0001241527497768402,-0.0010085420217365026,-0.000013026176020503044
1772044385419588400,6.28858837890625,0.0012392997741699219,-0.0008937957463786006,-0.0006650283467024565
1772044385429574100,6.29857421875,0.0011396976187825203,0.0009440517169423401,0.002807467244565487
1772044385439560400,6.308560546875,0.0005996031686663628,0.00013734219828620553,0.0009262631647288799
1772044385449545500,6.31854541015625,0.000836358405649662,-0.0009255254408344626,-0.00027242559008300304
1772044385459531300,6.32853125,0.0012876056134700775,-0.0014360558707267046,-0.0010032127611339092
1772044385469517600,6.338517578125,0.00018239393830299377,-0.000797696178779006,-0.0022229403257369995
1772044385479503400,6.34850341796875,0.00038816872984170914,-0.0003314003115519881,-0.0008567427285015583
1772044385489488400,6.35848828125,-0.001202004961669445,-0.00048266787780448794,0.0012934934347867966
1772044385499474200,6.36847412109375,0.0023775938898324966,-0.002136785537004471,0.0007996566127985716
1772044385509460500,6.37846044921875,0.0009940816089510918,-0.0013104066019877791,-0.00015748362056910992
1772044385519446300,6.3884462890625,0.0011889012530446053,0.002880315762013197,0.0010233374778181314
1772044385529431300,6.398431396484375,0.002564423717558384,-0.0003287933941464871,-0.0005947994068264961
1772044385539417300,6.408417236328125,-0.000767093151807785,-0.0002178399299737066,-0.0008742609061300755
1772044385549403400,6.4184033203125,-0.0006195539608597755,-0.0003115831932518631,0.0007627843879163265
1772044385559389400,6.428389404296875,-0.0010505085811018944,-0.002369458321481943,-0.0032368663232773542
1772044385569374200,6.438374267578125,0.0008635055273771286,0.000008211849490180612,-0.0003974039573222399
1772044385579360300,6.4483603515625,-0.0008932081982493401,0.001781333819963038,0.0012685316614806652
1772044385589346300,6.45834619140625,-0.00035764649510383606,0.00009182444773614407,0.0006480149459093809
1772044385599332400,6.468332275390625,0.0024100514128804207,0.001794102368876338,0.0007761146407574415
1772044385609317400,6.4783173828125,0.00207396037876606,0.0007829000824131072,0.0004131258465349674
1772044385619303400,6.488303466796875,-0.0010942379012703896,-0.0013552367454394698,-0.0019186199642717838
1772044385629289500,6.49828955078125,0.00004932284355163574,0.0011665105121210217,0.001811403315514326
1772044385639275300,6.508275146484375,0.0011864574626088142,-0.001980188302695751,-0.0026837533805519342
1772044385649260300,6.51826025390625,-0.00021569617092609406,-0.000020101811969652772,0.0009226992260664701
1772044385659246300,6.528246337890625,-0.0020047659054398537,0.0007505479734390974,0.0006851323414593935
1772044385669232400,6.538232421875,0.0025508375838398933,0.000038685015169903636,0.0006206838879734278
1772044385679218200,6.54821826171875,0.0015286663547158241,0.0015046382322907448,-0.0019979688804596663
1772044385689203200,6.558203125,-0.00114434864372015,0.0021994570270180702,-0.0019068887922912836
1772044385699189500,6.568189453125,0.0024750875309109688,-0.00017303714412264526,0.00045472290366888046
1772044385709175300,6.57817529296875,0.0010724011808633804,0.0005396247142925858,-0.0010960358195006847
1772044385719161300,6.588161376953125,-0.0004797559231519699,-0.0013642758131027222,-0.0010542264208197594
1772044385729147400,6.5981474609375,-0.00045392289757728577,0.0030555063858628273,-0.0007104123942553997
1772044385739132400,6.60813232421875,-0.000938858836889267,-0.0030249529518187046,-0.00038724043406546116
1772044385749118200,6.6181181640625,-0.0014097057282924652,-0.0015096142888069153,-0.0001382345799356699
1772044385759104300,6.628104248046875,-0.0016418984159827232,0.0005367969861254096,-0.0005750739946961403
1772044385769090300,6.63809033203125,-0.0015904996544122696,-0.001586541417054832,-0.0002280641347169876
1772044385779075300,6.648075439453125,-0.0016547255218029022,-0.001228588167577982,0.0014290828257799149
1772044385789061400,6.658061279296875,0.0002840561792254448,0.0016359079163521528,0.0020061898976564407
1772044385799047400,6.66804736328125,-0.0010459721088409424,0.0015561588807031512,0.0009274038020521402
1772044385809033500,6.678033447265625,0.0011588586494326591,-0.00020552208297885954,0.0007044970989227295
1772044385819018200,6.688018310546875,-0.0015638675540685654,-0.0007944641401991248,-0.0018087229691445827
1772044385829004300,6.69800439453125,0.0008436292409896851,-0.00012068438809365034,0.0019468669779598713
1772044385838990300,6.707990234375,-0.0007986007258296013,-0.0026148867327719927,0.001404597656801343
1772044385848976400,6.717976318359375,-0.0007229670882225037,0.11540043354034424,0.05264434963464737
1772044385858961400,6.72796142578125,-0.0005924329161643982,0.04766064137220383,0.02327914722263813
1772044385868947200,6.737947265625,-0.00002384837716817856,-0.031604617834091187,-0.014013362117111683
1772044385878933500,6.74793359375,0.00016992352902889252,-0.06242860108613968,-0.028887417167425156
1772044385888919300,6.757919189453125,-0.00024339929223060608,-0.047551918774843216,-0.021353067830204964
1772044385898904300,6.767904296875,0.000028738752007484436,-0.020172588527202606,-0.007219533436000347
1772044385908890400,6.777890380859375,-0.0008671479299664497,-0.003146733157336712,-0.000675880815833807
1772044385918876400,6.78787646484375,-0.0024940986186265945,0.00483955442905426,0.001901526702567935
1772044385928862200,6.7978623046875,-0.0018248464912176132,-0.004409337416291237,-0.0026604682207107544
