time,seconds_elapsed,z,y,x
1772045260707402200,0.07040234375,-0.19861293933093546,0.08771656963676214,0.4966938224993646
1772045260717387300,0.08038720703125,-0.21087211692333221,0.20144436336457727,0.6345655120763928
1772045260727373300,0.090373291015625,-0.33059155228137965,0.5384063274607062,0.7850380322903394
1772045260737359400,0.100359375,-0.4728910682380199,0.953361339558661,0.8157472049392759
1772045260747345200,0.11034521484375,-0.5464864658027887,1.2912044704034924,0.8210911963157356
1772045260757331500,0.12033154296875,-0.44083588780760763,1.5029378803312778,0.9315659065317362
1772045260767317200,0.130317138671875,-0.20736790819466114,1.5280556627139448,1.0816202743988483
1772045260777303300,0.14030322265625,0.1604559348940849,1.3486314079776405,1.049666654646769
1772045260787288000,0.1502880859375,0.38369127430617805,1.1474825204283,1.0188606705598533
1772045260797274400,0.1602744140625,0.600835895627737,1.2730571115553377,1.0821792965210975
1772045260807260200,0.17026025390625,0.729042004302144,1.5354960418477654,1.1216159655049442
1772045260817246200,0.18024609375,0.7625503061503172,1.866727353337407,1.202115004978329
1772045260827232300,0.190232177734375,0.8712415670156478,2.2409908740848303,1.3705029019154606
1772045260837218300,0.20021826171875,0.9035416621178388,2.481308281201124,1.486497325401008
1772045260847203300,0.210203369140625,1.0433528683900832,2.785581735399365,1.4424856035865843
1772045260857189000,0.220189208984375,1.2411924852609633,2.9280680060997604,1.4471714233152568
1772045260867175400,0.230175537109375,1.396705118533969,2.8953537772387263,1.5910583545938133
1772045260877161200,0.2401611328125,1.5062182171761989,2.7369875081002712,1.7852998008422551
1772045260887147300,0.250147216796875,1.5984861665070056,2.4005045596927403,1.8640910134844482
1772045260897133300,0.26013330078125,1.6901380297660826,1.8506746286809443,1.7884342994756997
1772045260907118300,0.270118408203125,1.7107324895054101,1.4513298581689595,1.7458534872472284
1772045260917104000,0.280104248046875,1.7243366519659757,1.4869284102946518,1.8218400177322327
1772045260927090400,0.29009033203125,1.7306290301084517,1.7041458045914768,1.6732184591472148
1772045260937076200,0.300076171875,1.7920780628055333,1.8356348804593086,1.1092404680564998
1772045260947062300,0.310062255859375,1.6559937681019306,2.0091215618401765,0.7017097607403994
1772045260957048000,0.320048095703125,1.2740350166767835,2.2562512793198226,0.798080761475861
1772045260967034400,0.330034423828125,1.1048673675388097,2.548510178336501,1.0696841182157397
1772045260977019400,0.340019287109375,0.8977712620228528,2.808048418751359,1.443537304596603
1772045260987005200,0.350005126953125,0.7192395722121,3.02328691419065,1.8190937877640128
1772045260996991500,0.359991455078125,0.7460393163323402,3.0010493634194133,2.204218602004647
1772045261006977300,0.369977294921875,1.2099474521696567,2.730491716340184,2.7661279701277612
1772045261016963300,0.37996337890625,1.5430214689165354,2.6496342188179494,2.7146681242644783
1772045261026949400,0.389949462890625,1.7225579518556593,2.5765257279872893,2.4705498635604974
1772045261036934400,0.399934326171875,1.9223335052251815,2.4703134244561196,2.0644670169651507
1772045261046920200,0.409920166015625,1.9385148246973751,2.51374807703495,2.0919500671744347
1772045261056906200,0.41990625,1.6685919683903454,2.488377196674049,2.3785639460414645
1772045261066892300,0.429892333984375,1.3998451701253651,2.4879583867400883,2.543955583772063
1772045261076878300,0.43987841796875,1.2585802579134702,2.390474748587608,2.422092706644535
1772045261086864100,0.449864013671875,1.1129518897950648,1.9647677485898136,1.9324884040147066
1772045261096850400,0.459850341796875,1.0781453648298978,1.8404376045659183,1.5315660089224576
1772045261106835500,0.46983544921875,0.9500152440011501,1.8676959061086176,1.3146008358210324
1772045261116821200,0.4798212890625,0.5608569364607334,1.785858749899268,1.2356734295785425
1772045261126807300,0.489807373046875,0.2752180401057005,1.82511348644495,1.2681482967257498
1772045261136793300,0.49979345703125,0.11774258232712745,1.9234756609976291,1.1812012501567601
1772045261146779400,0.509779296875,-0.052658992519974704,1.9127043838754296,1.0018453844815491
1772045261156765200,0.51976513671875,-0.18728958128392695,1.8959841352209448,0.7197007599830627
1772045261166750200,0.529750244140625,-0.20701836410462854,1.6791288522347807,0.6633885056525468
1772045261176736300,0.539736328125,0.044404958915710446,1.4674395737096666,0.49193654496967787
1772045261186722300,0.549722412109375,0.43556291584074497,1.2775680131085216,0.0590291120737791
1772045261196708000,0.5597080078125,0.751670015695691,1.0053333727277816,-0.47110184673368927
1772045261206694400,0.5696943359375,1.0537515128076076,0.9140499043896794,-0.8840782522350549
1772045261216680200,0.57968017578125,1.2587208354279398,1.0907805361278355,-1.0598615201205015
1772045261226666200,0.589666259765625,1.2314990665033458,1.21203974827379,-0.9871405673027038
1772045261236651300,0.5996513671875,1.0420587369263172,0.9632744654815644,-1.0564666169852017
1772045261246637300,0.60963720703125,0.623469752240181,0.6231716460764408,-1.285354867592454
1772045261256623400,0.619623291015625,0.26186580657958985,0.5422552214412019,-1.767398964101076
1772045261266609200,0.629609130859375,-0.16570026528835297,0.5918965101078152,-2.1185545809835196
1772045261276595500,0.639595458984375,-0.5645785873323679,0.7871367581352591,-2.40348854393959
1772045261286581200,0.649581298828125,-0.7764344545960425,1.0399206289190799,-2.808579749149084
1772045261296567300,0.6595673828125,-0.6919336321353912,1.3012562010794877,-3.080519790497422
1772045261306552000,0.669552001953125,-0.33216157807707786,1.349614427665621,-2.7893834657698866
1772045261316538400,0.679538330078125,-0.31210195586681366,1.4143874902188778,-2.580381234371662
1772045261326524200,0.689524169921875,-0.7757936724744736,1.5838465235188603,-2.7597341774374247
1772045261336510200,0.69951025390625,-1.2647644995063543,1.6367466313183308,-3.29013167822659
1772045261346496300,0.709496337890625,-1.628726406469941,1.0143671585328877,-3.7922722218245264
1772045261356482300,0.719482421875,-1.977404235062003,0.25784707245752214,-4.534274245464801
1772045261366467300,0.72946728515625,-2.0305781913667915,-0.20770240084603428,-5.803810781678557
1772045261376453400,0.739453369140625,-1.8828332694858312,-0.6672473730377853,-6.820025467774272
1772045261386439400,0.749439453125,-1.6529215210497379,-1.0107108279824257,-7.329552614492178
1772045261396425200,0.75942529296875,-1.2140267573725432,-1.855738926333189,-6.886905293348431
1772045261406411300,0.769411376953125,-0.8430249418348074,-2.514965928392112,-5.94774754344821
1772045261416397300,0.779397216796875,-0.46400049029588697,-2.6845000727549193,-5.10586358834207
1772045261426383400,0.78938330078125,-0.047723289683461186,-2.693872296734154,-4.737388587868214
1772045261436368100,0.7993681640625,0.014783745900262147,-2.6991756638392803,-4.677033195626735
1772045261446354400,0.8093544921875,-0.0899035582870245,-2.841944550873339,-5.011677238169312
1772045261456340200,0.81934033203125,-0.13945347887575626,-3.073069766752422,-5.5957437853038305
1772045261466326300,0.829326171875,-0.1196966390043497,-3.2547643045082686,-6.0055918296515935
1772045261476312300,0.839312255859375,-0.08347969925198703,-3.3160634073406454,-5.9297390085488555
1772045261486298400,0.84929833984375,0.013258088969253002,-3.2770626455560325,-5.320748448038101
1772045261496284200,0.8592841796875,0.09118135967049747,-3.075174337816238,-4.463682705891132
1772045261506269200,0.869269287109375,0.1171610195795074,-2.8805232878535985,-3.7095366554707287
1772045261516255500,0.87925537109375,0.05955927342772484,-2.6922514175340533,-3.167110863235593
1772045261526241300,0.8892412109375,-0.11776070250570773,-2.4578432344615457,-2.670658886668086
1772045261536227300,0.899227294921875,-0.3119265992999077,-2.1195795401170847,-2.3506144473642108
1772045261546213400,0.90921337890625,-0.45854222488999363,-1.8896470411539077,-2.020973912197351
1772045261556199400,0.919199462890625,-0.5129039296746254,-1.6949150349095463,-1.722739738163352
1772045261566185200,0.929185302734375,-0.5399146496644244,-1.4922525279268621,-1.2784177618056536
1772045261576170200,0.939170166015625,-0.5106073431700467,-1.476499078477919,-0.6485346353918313
1772045261586156300,0.94915625,-0.4116582721075043,-1.3869859808132052,-0.18278408655822276
1772045261596142300,0.959142333984375,-0.37493871659524736,-1.3494769188910722,0.26364626025557514
1772045261606128000,0.969128173828125,-0.3772638716071844,-1.4037491918265819,0.6026642800986767
1772045261616114400,0.979114501953125,-0.30827925577349957,-1.4790890949711202,0.7475830386430025
1772045261626100200,0.989100341796875,-0.19960136584639548,-1.5061410602867602,0.8336305060237645
1772045261636086300,0.999086181640625,-0.14967786270491779,-1.556603127284348,0.7996312057882546
1772045261646071300,1.0090712890625,-0.1408504861921072,-1.5899556540489195,0.7030547456085682
1772045261656057300,1.019057373046875,-0.08800678475499153,-1.606150709785521,0.5636801771879196
1772045261666043400,1.02904345703125,0.04734678452126682,-1.567244640547037,0.36808570889532566
1772045261676029200,1.039029296875,0.22202881316654383,-1.5060101273834705,0.3321685923397541
1772045261686015500,1.049015380859375,0.3154402334440499,-1.4044842281028627,0.30499475421011446
1772045261696001300,1.059001220703125,0.16325411424525083,-1.290086280028522,0.36093057644367216
1772045261705987300,1.0689873046875,-0.11504779028519987,-1.3202744975432752,0.5593962162584066
1772045261715973400,1.078973388671875,-0.1743336535990238,-1.2362851317360997,0.46687283086180686
1772045261725958400,1.08895849609375,0.11571319539137184,-1.1161381186157464,0.1431903273165226
1772045261735944200,1.098944091796875,0.5058231045681983,-1.194485971404612,0.03991290819346904
1772045261745930200,1.10893017578125,0.8531922617144883,-1.3170154957473277,0.12850070770680905
1772045261755916300,1.118916259765625,1.1113251653760672,-1.2681719698622822,0.2531044079750776
1772045261765902300,1.12890234375,1.138366317036748,-1.1121706762894987,0.39394437277317046
1772045261775888100,1.13888818359375,0.9996826534897089,-0.968387643776834,0.3742307875216007
1772045261785874400,1.14887451171875,0.7966297589499503,-0.8615469792142509,0.33164135359525676
1772045261795860200,1.158860107421875,0.5506675508797169,-0.8206798390358686,0.20162965680360792
1772045261805845200,1.16884521484375,0.34817404378838834,-0.8060974791929125,-0.024810031607747078
1772045261815831300,1.178831298828125,0.24245799934156237,-0.7471271115690469,-0.22205635876059532
1772045261825817300,1.1888173828125,0.0969137293100357,-0.6636527095466852,-0.3445359064817428
1772045261835803400,1.198803466796875,-0.16578443644046784,-0.616069412855804,-0.6066968966156244
1772045261845789200,1.2087890625,-0.41757323177233335,-0.5236421813100576,-1.012428153294325
1772045261855775200,1.218775146484375,-0.6201707106947898,-0.30714754832983016,-1.20740478194952
1772045261865761300,1.22876123046875,-0.610940525534749,-0.14589900175333023,-1.0668979946285486
1772045261875747300,1.238747314453125,-0.42802426396422083,0.06981850937455893,-0.8194394835859536
1772045261885732000,1.248732177734375,-0.21389584865868091,0.35132746631801126,-0.5616162303954363
1772045261895718400,1.258718505859375,0.03832578513249755,0.39826837345212696,-0.22146657617390156
1772045261905704200,1.2687041015625,-0.16082418368458748,-0.3424462407261133,-0.7790361615270376
1772045261915690200,1.278690185546875,-0.46735579207316036,-0.509517794367671,-1.5625526833385228
1772045261925676300,1.28867626953125,-0.44405017367899413,-0.14843816484212874,-1.8881570948570965
1772045261935662300,1.298662353515625,-0.44437706754580136,-0.1046650740891695,-1.9518921926647423
1772045261945648000,1.308648193359375,-0.3825466343156993,0.15229279444366692,-1.4761995110094546
1772045261955633400,1.31863330078125,0.11734978361725806,0.7458247967988252,-1.6845400636285544
1772045261965619200,1.328619140625,0.23096447235941886,1.1002996212318539,-1.488164674091339
1772045261975605200,1.338605224609375,-0.1494195040296763,1.270997548677027,-1.2539566897660492
1772045261985591300,1.34859130859375,-0.5745540379017591,1.4811676548108457,-1.3169751637369393
1772045261995577300,1.358577392578125,-1.0881120475709438,1.5793468740120529,-1.3117489535212516
1772045262005563100,1.368563232421875,-1.4676796660758553,1.4871251019105314,-1.1887485967963933
1772045262015549200,1.378549072265625,-1.5446144371964037,1.2162483058795333,-1.03962887943089
1772045262025535200,1.38853515625,-1.8459633822500705,0.9140501966506243,-1.0268699356228113
1772045262035520300,1.398520263671875,-1.9801023881047963,0.536731964507699,-0.885331467166543
1772045262045506300,1.40850634765625,-1.9547417368769644,0.24449849219322203,-0.7003297045588492
1772045262055492400,1.418492431640625,-1.8013520871073005,0.09945581500828266,-0.36039515439271924
1772045262065478400,1.428478515625,-1.5573258886009453,0.06438070223480463,0.117279056468606
1772045262075464200,1.438464111328125,-1.3432353941529989,0.1101589953303337,0.6166501353532076
1772045262085450200,1.4484501953125,-1.3040180670082568,0.14286884027719496,1.056869352567196
1772045262095436300,1.458436279296875,-1.41795935735628,0.18437135574966668,1.239078269585967
1772045262105422300,1.46842236328125,-1.5648305651426315,0.2808107455462217,1.2348638667613268
1772045262115407000,1.478406982421875,-1.7145957408048211,0.3457239472225308,1.2558143003314732
1772045262125393400,1.488393310546875,-1.8590245238751173,0.4105944788008928,1.2367331677645443
1772045262135379200,1.498379150390625,-2.013815857136249,0.41591362799704074,1.1177777025163174
1772045262145365200,1.508365234375,-1.9964890208907424,0.35628391968160866,1.1057324599355458
1772045262155351300,1.518351318359375,-1.7583926508247851,0.2828533572897315,1.2232359728097915
1772045262165337300,1.52833740234375,-1.4955378332078455,0.19694529837965963,1.418221369293332
1772045262175323100,1.5383232421875,-1.2867489522993565,0.09958294851928949,1.6460492971926926
1772045262185309200,1.54830908203125,-1.1154663568340242,0.03086567838490009,1.9068407525390385
1772045262195294500,1.55829443359375,-0.9282137465596199,-0.014298866726458071,2.0850696600109337
1772045262205280300,1.5682802734375,-0.8103362858064472,-0.005545359167456626,2.284807219457626
1772045262215266300,1.578266357421875,-0.786940212649852,-0.0400894338041544,2.3873393731713293
1772045262225252400,1.58825244140625,-0.9347826035559177,-0.09831482827961445,2.2387930717796087
1772045262235238400,1.59823828125,-1.1644412540137767,-0.13783756811171768,2.009827664282918
1772045262245224200,1.60822412109375,-1.1609418675906955,-0.2979997807562351,1.7785002038300037
1772045262255210500,1.61821044921875,-0.9317729003459214,-0.443688646890223,1.6417781957447528
1772045262265196300,1.6281962890625,-0.5608477302409708,-0.6159095461189746,1.5717179865688085
1772045262275181300,1.638181396484375,-0.21628245153427123,-0.7275827454045415,1.580601550248265
1772045262285167000,1.6481669921875,-0.13134221474304794,-0.6917059608593583,1.5300830768883227
1772045262295153400,1.6581533203125,-0.36050329094231126,-0.5819762968569994,1.3970827196747064
1772045262305139200,1.66813916015625,-0.5095324074149131,-0.4011804615065455,1.1214175203233956
1772045262315125200,1.678125244140625,-0.6073034842066466,-0.2513660398751497,0.9317238005071878
1772045262325111300,1.688111328125,-0.6218653857834637,-0.23212328700572252,0.824302705708146
1772045262335097300,1.698097412109375,-0.4298047907054424,-0.24521716185659168,0.6424532696515322
1772045262345083100,1.708083251953125,-0.15876710502430796,-0.348086584700644,0.3990922570556402
1772045262355069400,1.7180693359375,0.0960644190043211,-0.44810120263546704,0.09235855022370815
1772045262365054500,1.728054443359375,0.25683833380639554,-0.48002223529219623,-0.21089140614569185
1772045262375040300,1.738040283203125,0.30634850690662857,-0.4745692305833101,-0.42542087653279304
1772045262385026300,1.7480263671875,0.28380072114244104,-0.47767771799266334,-0.5509492904305457
1772045262395012400,1.758012451171875,0.19601298596560954,-0.49036184299886226,-0.6206172854185104
1772045262404998400,1.767998291015625,0.09164083040840923,-0.5048027485445141,-0.7190770751267671
1772045262414984200,1.777984130859375,-0.005442483314871788,-0.4923337275937199,-0.8160422423630952
1772045262424970500,1.787970458984375,-0.07438859376907349,-0.43404052857905623,-0.976034066876769
1772045262434956300,1.797956298828125,-0.11078910992741584,-0.3277876007765531,-1.1515578070431947
1772045262444941300,1.80794140625,-0.14961122720949352,-0.17780980527698992,-1.3883780196934938
1772045262454927000,1.817927001953125,-0.18736315797679126,0.06395078638494014,-1.6293167735785246
1772045262464913400,1.827913330078125,-0.2716505568824708,0.2723258257955313,-1.8140116621941327
1772045262474899200,1.837899169921875,-0.3496703467607498,0.42403322156667705,-2.01480311460793
1772045262484885200,1.84788525390625,-0.41767705747298894,0.5657265883237124,-2.163274012675881
1772045262494871300,1.857871337890625,-0.47764798044152557,0.5931681374788284,-2.117199074721336
1772045262504857300,1.867857421875,-0.5199876773905009,0.4729086038947105,-2.0540286250591278
1772045262514843100,1.877843017578125,-0.5147657049585134,0.2989095890775323,-2.061079128092527
1772045262524828200,1.887828125,-0.4775199701476842,0.13528057710528374,-2.1126094088435172
1772045262534814500,1.897814453125,-0.24081651574485002,0.1503442907243967,-2.3154764984875915
1772045262544800300,1.90780029296875,-0.06875029562115668,0.3121270903080702,-2.4851526816695926
1772045262554786300,1.917786376953125,-0.020690905851125718,0.3190846543610096,-2.384057282760739
1772045262564772400,1.9277724609375,-0.05984857523050159,0.262956524425745,-2.1639754389435053
1772045262574758400,1.93775830078125,-0.15147007988393305,0.1823436493143439,-1.8994050495803354
1772045262584744200,1.947744140625,-0.27106092042624946,0.077988956348598,-1.7533967422336338
1772045262594730500,1.95773046875,-0.3794832646897062,-0.05566752668619156,-1.6653770979970692
1772045262604715300,1.96771533203125,-0.5235656089425087,-0.2627826291635632,-1.5351865375071763
1772045262614701300,1.977701416015625,-0.6549165184486657,-0.535987868142128,-1.3416595231384039
1772045262624687000,1.98768701171875,-0.7124808186668902,-0.7223433834463358,-1.1924445287048815
1772045262634673400,1.99767333984375,-0.7685983541429042,-0.8454261577576399,-1.0284323626339436
1772045262644659200,2.0076591796875,-0.7881319066524505,-1.006439142012596,-0.8313017708152532
1772045262654645200,2.017645263671875,-0.83237780254893,-1.1242542050540447,-0.6460673684954643
1772045262664631300,2.02763134765625,-0.9162455878030509,-1.1507517513573169,-0.5628495715826749
1772045262674617300,2.037617431640625,-0.8705348069857806,-1.1558791773736476,-0.4633896649211645
1772045262684602400,2.047602294921875,-0.7073754583518952,-1.1727081470996141,-0.30475159310400485
1772045262694588200,2.057588134765625,-0.5614402162414044,-1.2301397608488798,-0.11947335164248943
1772045262704574500,2.067574462890625,-0.4026876511991024,-1.245331777022779,0.009392097723484039
1772045262714560300,2.077560302734375,-0.2662496842196211,-1.187617254678905,0.09383388347327709
1772045262724546300,2.08754638671875,-0.1480920913508162,-1.074248941913247,0.19019056342244148
1772045262734532400,2.097532470703125,-0.0556003066688776,-0.9112748867183923,0.2713572730243206
1772045262744518400,2.107518310546875,0.025576339805126188,-0.7029886946350336,0.42735330590009685
1772045262754504200,2.117504150390625,0.1304933793613687,-0.46944414265453815,0.6653729574680328
1772045262764489200,2.1274892578125,0.1807253639301285,-0.24846213512718676,0.9085118517458438
1772045262774475300,2.137475341796875,0.16457330708503723,-0.025913608935475348,1.155991990098357
1772045262784461300,2.14746142578125,0.12256373713957146,0.20982260787039994,1.4156675931572913
1772045262794447000,2.157447021484375,0.06045361018525436,0.42397213902920483,1.6950246327638625
1772045262804433200,2.16743310546875,-0.0076064198831096285,0.5578238523751496,1.9848592272430656
1772045262814419200,2.177419189453125,-0.07002104620933532,0.6905494843006134,2.268512502738833
1772045262824405200,2.1874052734375,-0.13472003887938336,0.7580825130864978,2.480307579725981
1772045262834391000,2.19739111328125,-0.2352414190262556,0.7127274138391018,2.655360195249319
1772045262844377300,2.20737744140625,-0.33878362656533717,0.6660118398934602,2.8096786503016946
1772045262854362400,2.2173623046875,-0.45066403886079787,0.6412734122171998,2.9577246009558436
1772045262864348200,2.22734814453125,-0.5543950469702482,0.5872092290744185,3.1078274841397997
1772045262874334200,2.237334228515625,-0.6514379556179046,0.5384373071208596,3.1792244948774573
1772045262884320300,2.2473203125,-0.7349082659870386,0.5046615865081548,3.1107933482080696
1772045262894306300,2.257306396484375,-0.7905681938886642,0.4532943873643875,2.9560370862603187
1772045262904292000,2.2672919921875,-0.7822942865401507,0.4111465597257018,2.808665673866868
1772045262914278100,2.277278076171875,-0.715662298247218,0.380099387294054,2.733697234383225
1772045262924264200,2.28726416015625,-0.5526742145270109,0.38133448204696174,2.6546318809747693
1772045262934249200,2.297249267578125,-0.39437169480714945,0.39761137084811926,2.529450088557601
1772045262944235000,2.307235107421875,-0.2622059983193874,0.37865970987975595,2.3304057720720768
1772045262954221300,2.31722119140625,-0.17796532463226467,0.37391514570116996,1.9799118339687585
1772045262964207000,2.32720703125,-0.15107381057534366,0.41332478054761884,1.5614935296744108
1772045262974193200,2.337193115234375,-0.1833224312186241,0.36994711885303255,1.1586240921676159
1772045262984179200,2.34717919921875,-0.20068563568545505,0.27750176712870595,0.7482546542942523
1772045262994165200,2.357165283203125,-0.18427927528573199,0.18700491912364958,0.29064006564319134
1772045263004151000,2.367151123046875,-0.15680384212732315,0.030192309167981147,-0.07308686352074145
1772045263014136000,2.377135986328125,-0.07450432910323143,-0.1718356993034482,-0.2774859850376844
1772045263024122000,2.3871220703125,0.06227202125145122,-0.3463911789596081,-0.423483186468482
1772045263034108200,2.397108154296875,0.2164548672254197,-0.505077181571722,-0.5252548772037029
1772045263044094200,2.40709423828125,0.32575112651288507,-0.6207996562480926,-0.5939537348985672
1772045263054080300,2.417080322265625,0.3780687582492828,-0.654922875124216,-0.6101689566403627
1772045263064066000,2.427066162109375,0.365492769792676,-0.6681777857556939,-0.6392915907502174
1772045263074052000,2.437052001953125,0.34577801549732684,-0.5807637061968446,-0.7376455819964408
1772045263084037000,2.447037109375,0.3167915749877691,-0.36118981190174815,-0.8571201026827097
1772045263094023200,2.457023193359375,0.3114349798580631,-0.15423866781443357,-0.9726736505329608
1772045263104009200,2.46700927734375,0.3509638937026262,0.015415595796704292,-1.0772954700022934
1772045263113995000,2.4769951171875,0.3883645268142223,0.198731305013597,-1.1932874092698096
1772045263123981300,2.486981201171875,0.3902472718209028,0.3014405688598752,-1.2915659971922635
1772045263133967000,2.496967041015625,0.40010581801235673,0.297121536616981,-1.3663473896712064
1772045263143953200,2.506953125,0.41759116928782314,0.21767127554416654,-1.4348013326942919
1772045263153939200,2.516939208984375,0.46479836267530916,0.1324538292467594,-1.4737468571603298
1772045263163924200,2.52692431640625,0.6139858845800161,0.34007512768059966,-1.6686229480504988
1772045263173910000,2.536909912109375,0.7131886016100645,0.8519929689273238,-1.948832220572233
1772045263183896000,2.54689599609375,0.6073298972895369,1.0538041197776793,-1.9814093790501355
1772045263193882000,2.556882080078125,0.43361236629486083,1.1118196708947419,-1.9785276861339807
1772045263203868200,2.5668681640625,0.22399700796697286,1.0935831724584102,-2.0170587845802306
1772045263213854000,2.57685400390625,0.04359714966416359,1.0486708485424518,-2.09686355817914
1772045263223840300,2.58684033203125,-0.13016604710314422,1.0401672240912914,-2.202427042412758
1772045263233826000,2.596825927734375,-0.29849954697191716,0.8285898815080524,-2.1952812623113394
1772045263243811000,2.60681103515625,-0.44527471050526946,0.4428007581397891,-2.179457670235634
1772045263253797000,2.616797119140625,-0.578213108398579,-0.0070595631226897234,-2.1129215435326096
1772045263263783200,2.626783203125,-0.6495932045340538,-0.5433890843093395,-1.9447323840379713
1772045263273769200,2.636769287109375,-0.6464788719058037,-1.059019516338408,-1.7234020014643667
1772045263283755000,2.646755126953125,-0.5795528325697407,-1.423226922495663,-1.5359528457045555
1772045263293741300,2.6567412109375,-0.5110018954455853,-1.6009072561740874,-1.3390759363859892
1772045263303727000,2.66672705078125,-0.4393803917696699,-1.6278136755391954,-1.1349234831064938
1772045263313713200,2.676713134765625,-0.43656295972876247,-1.51193221090883,-0.9331061947762965
1772045263323698200,2.6866982421875,-0.46028530569765713,-1.3639382827028632,-0.6686825204074383
1772045263333684200,2.696684326171875,-0.4550526292085647,-1.163090423926711,-0.3935322848409414
1772045263343670000,2.706669921875,-0.4490186097413301,-0.9093953565821051,-0.19780279199182987
1772045263353656000,2.716656005859375,-0.4298533060222864,-0.6667778558298945,-0.04152852669656276
1772045263363642000,2.72664208984375,-0.37914603209197517,-0.43705227761566634,0.09411094684898853
1772045263373628200,2.736628173828125,-0.31520167544782157,-0.2856301285266876,0.20715397318303583
1772045263383614000,2.746614013671875,-0.2782224095534533,-0.2454372343480587,0.2736135275185108
1772045263393599200,2.75659912109375,-0.2543195924511179,-0.2902373300611973,0.3244908973187208
1772045263403585300,2.766585205078125,-0.20929624590873716,-0.37546179062128066,0.3809054429799318
1772045263413571000,2.776571044921875,-0.16658581595122812,-0.47570641791969537,0.409583255931735
1772045263423557400,2.786557373046875,-0.12132511698901653,-0.602281418260932,0.42462709580659863
1772045263433543200,2.796543212890625,-0.09002161344243213,-0.7274556118935346,0.4659025245249271
1772045263443529200,2.806529296875,-0.06428979994780383,-0.7907663468092679,0.5352122075945138
1772045263453515000,2.816514892578125,-0.06892973470813595,-0.8621428992807865,0.5936719953477382
1772045263463501300,2.826501220703125,-0.09636136525743641,-0.8746712492033839,0.6763759975194931
1772045263473486000,2.836486083984375,-0.10425415520071983,-0.8523430975392461,0.8186112160682678
1772045263483472100,2.84647216796875,-0.09377309319674969,-0.8007619633838534,0.9961673388451338
1772045263493458200,2.856458251953125,-0.10027414565384388,-0.7264055183187127,1.2341355524867772
1772045263503444200,2.8664443359375,-0.10364274530410766,-0.6312181744098663,1.4772382064074276
1772045263513430000,2.876429931640625,-0.12157353879213333,-0.5156964830026031,1.6355658971011637
1772045263523416300,2.886416259765625,-0.14275953468382357,-0.42024844233095643,1.7144225761950016
1772045263533402000,2.896402099609375,-0.20703999141454696,-0.3443275244280696,1.731132303455472
1772045263543387100,2.90638720703125,-0.2861129436075687,-0.26044161899536844,1.667951332399249
1772045263553373200,2.916373291015625,-0.38499183551073074,-0.15654752927869559,1.5771137081325053
1772045263563359200,2.926359130859375,-0.45485038463473315,-0.06549889260977507,1.4347335281550884
1772045263573345300,2.93634521484375,-0.5049474177122116,0.08538812668919563,1.2398586063086985
1772045263583331000,2.9463310546875,-0.5279927777349949,0.1945066730558872,1.0808990474522113
1772045263593317400,2.9563173828125,-0.5239806194841862,0.2668091082006693,0.911305281856656
1772045263603303200,2.96630322265625,-0.48280222139954565,0.3545052195712924,0.7290379126489162
1772045263613288200,2.9762880859375,-0.4445183757126331,0.4396548613294959,0.5858931780397891
1772045263623274000,2.98627392578125,-0.4104781589448452,0.42999797518998384,0.4739876313030719
1772045263633260300,2.99626025390625,-0.35783264696095135,0.381615637075901,0.34983752002120017
1772045263643246000,3.00624609375,-0.3305413199314847,0.29229776972234245,0.2126455563366413
1772045263653232000,3.016232177734375,-0.35031799701452254,0.25811668317914005,0.04902911158502102
1772045263663218200,3.02621826171875,-0.394676194179058,0.2893000492110848,-0.1218400807738304
1772045263673204200,3.036204345703125,-0.4218517493417486,0.34656507422178984,-0.2849585128754377
1772045263683189200,3.046189208984375,-0.4325450658569112,0.5047025030404328,-0.4104237984091043
1772045263693175000,3.056175048828125,-0.4274655341029167,0.7453168472766876,-0.5123550636202097
1772045263703161300,3.066161376953125,-0.45644729843735693,0.9823597627669572,-0.641010085105896
1772045263713147100,3.076147216796875,-0.50075058707688,1.2049287472248076,-0.827889332023263
1772045263723133200,3.08613330078125,-0.5673112271666526,1.4048852101191878,-1.083686047822237
1772045263733119200,3.096119140625,-0.6612615766264498,1.5218722979038952,-1.3506792804181575
1772045263743105300,3.106105224609375,-0.7790998744130134,1.5267428265497087,-1.54939100394845
1772045263753091000,3.116091064453125,-0.8866308593273162,1.48246529340595,-1.6716759058803319
1772045263763076000,3.126076171875,-0.9155016375679522,1.5555205927446483,-1.8686024995595216
1772045263773062100,3.136062255859375,-0.8658067555505782,1.7431006814077497,-2.1151158387064934
1772045263783048200,3.146048095703125,-0.841004322727397,1.7130492420151828,-2.1156033299624917
1772045263793034200,3.1560341796875,-0.9022574675261974,1.477183553610742,-1.9470926834285258
1772045263803020300,3.166020263671875,-0.9936580594379454,1.2073016138359904,-1.7612971400946378
1772045263813006000,3.176006103515625,-1.029022729742527,1.0108943678557871,-1.612258671271801
1772045263822991000,3.1859912109375,-1.021194739530608,0.7938955847457051,-1.4209370579928158
1772045263832977400,3.195977294921875,-1.0745277588546276,0.48426849455982446,-1.1454220807671547
1772045263842963200,3.205963134765625,-1.1259950573720037,0.10196224487125873,-0.8608610427767038
1772045263852949200,3.21594921875,-1.1287467672329394,-0.2699275324821472,-0.679044924467802
1772045263862935300,3.225935302734375,-1.0785832447905093,-0.598719049604237,-0.5460445672541856
1772045263872921300,3.23592138671875,-1.0163011953353882,-0.8823837232768535,-0.4136842615097761
1772045263882907100,3.2459072265625,-0.9470131395757198,-1.182762215863168,-0.31356969033181664
1772045263892892200,3.25589208984375,-0.855856950879097,-1.385404556840658,-0.24319851551055907
1772045263902878200,3.265878173828125,-0.7403752992212772,-1.5052455727517604,-0.2154910088956356
1772045263912864300,3.2758642578125,-0.6096025914618745,-1.5301155178532004,-0.1886293054550886
1772045263922850000,3.28585009765625,-0.47320320292711254,-1.518547537395358,-0.13135434357225895
1772045263932836400,3.29583642578125,-0.34113632717132564,-1.4689391646176575,-0.015308628290891647
1772045263942822100,3.305822265625,-0.2249334120342508,-1.3968646930098534,0.09751695590019226
1772045263952808200,3.31580810546875,-0.09570723959710449,-1.2898647462323307,0.1757411823093891
1772045263962793200,3.325793212890625,0.04701777176260948,-1.1920245497271418,0.24714696087539195
1772045263972779300,3.335779296875,0.18297296019382775,-1.1144754461005328,0.29088965649008747
1772045263982765300,3.345765380859375,0.31920974204540253,-1.0083271477162838,0.3281149330347776
1772045263992751000,3.355751220703125,0.43740949355550107,-0.8766267671853304,0.4019932391941547
1772045264002737400,3.3657373046875,0.5067688609857112,-0.7367179457575083,0.5492337186843157
1772045264012723200,3.37572314453125,0.5212427189528942,-0.5730757820427418,0.7408522690832614
1772045264022709200,3.385709228515625,0.5013935246229172,-0.42021804719269273,0.9523457327753305
1772045264032694000,3.395694091796875,0.4630722695350647,-0.24174539409279822,1.1471347299039363
1772045264042680300,3.405680419921875,0.3548773408193141,-0.05961801787763834,1.3710171350479126
1772045264052666000,3.415666015625,0.18057981797959655,0.10102964019626379,1.5492016188561915
1772045264062652200,3.425652099609375,-0.016580620988085864,0.2298185171946883,1.6983306885719298
1772045264072638200,3.43563818359375,-0.14690441593620926,0.30229221725314853,1.808843319645524
1772045264082624300,3.445624267578125,-0.27214864259772004,0.3283969648465514,1.8645646223455667
1772045264092610000,3.455610107421875,-0.39721645324639976,0.2995645458549261,1.9256249479860066
1772045264102595000,3.465594970703125,-0.5459306220183149,0.25109832884967326,1.9411182851940392
1772045264112581400,3.475581298828125,-0.6939467255234718,0.19495763169378041,1.9666513703793287
1772045264122567200,3.485567138671875,-0.8146283569771796,0.15934622008651494,1.975889738845825
1772045264132553200,3.49555322265625,-0.9108827455956489,0.13482844942361116,1.935661773353815
1772045264142539300,3.505539306640625,-0.9676420130413025,0.10120178189277648,1.8699410546869037
1772045264152525300,3.515525390625,-0.9597019407570362,0.09102350222766399,1.765536092838645
1772045264162511000,3.525510986328125,-0.8861257593493909,0.11672726780474185,1.6312147161543369
1772045264172496400,3.535496337890625,-0.7683329081397503,0.1859080637976527,1.4957804097920655
1772045264182482200,3.545482177734375,-0.6511807659864425,0.2261933124348521,1.382415311896801
1772045264192468200,3.55546826171875,-0.5459960884699597,0.23541385298371315,1.2722276749938726
1772045264202454000,3.5654541015625,-0.40184710872173307,0.22606588666290042,1.1893746197402477
1772045264212440300,3.5754404296875,-0.20985037266016004,0.2167225965172052,1.1084054785370827
1772045264222426000,3.585426025390625,-0.005660509979724884,0.15549012918025254,1.0391934106230736
1772045264232411100,3.5954111328125,0.12457220915146171,0.056417176009714604,0.9980985991686582
1772045264242397200,3.605397216796875,0.20814364180751144,0.0018479659542441366,0.9496329666852951
1772045264252383200,3.61538330078125,0.2742109088897705,-0.05376724602282047,0.8821995988816023
1772045264262369300,3.625369384765625,0.3085901483535766,-0.1070657054901123,0.8060854964941739
1772045264272355300,3.635355224609375,0.34307935099788006,-0.11522796915769576,0.7360480836719274
1772045264282341000,3.645341064453125,0.3728724317152053,-0.1157952476516366,0.6258055017113685
1772045264292327200,3.6553271484375,0.3732803549289703,-0.12562369096577167,0.4362357005357742
1772045264302312200,3.665312255859375,0.32285014437437054,-0.11187748968601226,0.1924029787749052
1772045264312298200,3.67529833984375,0.2428969022154808,-0.04298194037526846,-0.05473170714080333
1772045264322284300,3.6852841796875,0.17016140941567717,0.07273235099464655,-0.2996650836199522
1772045264332270000,3.69527001953125,0.11987725626826286,0.18598054451197385,-0.5731716436326504
1772045264342256400,3.70525634765625,0.09799969791583717,0.2245379464432597,-0.8442185355335473
1772045264352242200,3.7152421875,0.09949841204099356,0.21514584871977566,-1.079378121495247
1772045264362228200,3.725228271484375,0.13864376992806793,0.13652210159897804,-1.274211542287469
1772045264372213200,3.735213134765625,0.1611573611617088,-0.03511602930575609,-1.3674497979551552
1772045264382199300,3.74519921875,0.15190094558186829,-0.3002896452590823,-1.4261954169124365
1772045264392185000,3.75518505859375,0.1563432388782501,-0.5158507967814803,-1.663039010438323
1772045264402171100,3.765171142578125,0.21563706630282103,-0.32104952469319104,-2.1873323491334915
1772045264412157200,3.7751572265625,0.19514614000320432,-0.02797609442323446,-2.5561779364854096
1772045264422143200,3.785143310546875,0.16505962929725645,0.18620529317855833,-2.754749374762177
1772045264432129000,3.79512890625,0.08963635871820151,0.5428045624196529,-2.9913959844112394
1772045264442114000,3.805114013671875,-0.11000000537633896,0.9576566986650228,-3.2083336849838493
1772045264452100400,3.815100341796875,-0.4506172771096229,1.1333353371322155,-3.242322463825345
1772045264462086100,3.825086181640625,-0.8196072413682937,0.9311346024423837,-3.131432816132903
1772045264472072200,3.835072265625,-1.1001087748348712,0.43571547605395317,-2.947662641146779
1772045264482058200,3.845058349609375,-1.2390963897645473,-0.2718076471403241,-2.72757144497931
1772045264492044300,3.855044189453125,-1.1976233926475048,-1.0041770422995089,-2.48743348608315
1772045264502030000,3.865030029296875,-1.0436626649916172,-1.547622825232148,-2.2396698546141383
1772045264512015000,3.87501513671875,-0.8623042273223399,-1.8644696375384926,-1.9164403555333613
1772045264522001200,3.885001220703125,-0.6849673002541065,-1.9003285941660404,-1.562847282370925
1772045264531987200,3.8949873046875,-0.6449345650732516,-1.7237641127750276,-1.1822066278070211
1772045264541973000,3.904972900390625,-0.7317559394359588,-1.4795236869961021,-0.7172761631846427
1772045264551959300,3.914959228515625,-0.8966296907722949,-1.1640879105314612,-0.2843763290733099
1772045264561945000,3.924945068359375,-1.0719453411459923,-0.8822887384697794,0.04759761747717857
1772045264571931100,3.93493115234375,-1.2286217575013636,-0.6592837006822228,0.20722762294113634
1772045264581916200,3.944916259765625,-1.3199790217280387,-0.4931909289449453,0.24019231943190097
1772045264591902200,3.954902099609375,-1.3796376638770103,-0.3986798768624663,0.19218086045682428
1772045264601888300,3.96488818359375,-1.437654968559742,-0.376430927914381,0.10834288581907749
1772045264611874000,3.9748740234375,-1.4744693262159823,-0.4241384355068207,0.08283668864071368
1772045264621860400,3.9848603515625,-1.4817571451365947,-0.5553171302512288,0.1329553490281105
1772045264631846100,3.99484619140625,-1.415015266728401,-0.7207336101621389,0.2332499529480934
1772045264641832200,4.004832275390625,-1.2639023297190666,-0.8665893572956324,0.31470716992914677
1772045264651817200,4.014817138671875,-1.0809656829476355,-0.9626569911703466,0.39043548786938187
1772045264661803300,4.02480322265625,-0.9198702811062336,-1.0182795096710324,0.5159013579249382
1772045264671789000,4.0347890625,-0.7563947061300277,-1.0228241673633456,0.657476066738367
1772045264681775000,4.044775146484375,-0.6264460646372288,-0.9786910111263394,0.8134019569873809
1772045264691761200,4.05476123046875,-0.5450421487459912,-0.9193205382689833,0.9541454756736755
1772045264701747200,4.064747314453125,-0.5047580326199531,-0.863070535519719,1.104035008367896
1772045264711733000,4.07473291015625,-0.49044542962908744,-0.7943883366987109,1.2260305719643831
1772045264721718300,4.08471826171875,-0.5033166747052222,-0.7380947870686649,1.3199024493604898
1772045264731704300,4.094704345703125,-0.5365373187184334,-0.6791647514551877,1.3883873720437288
1772045264741690000,4.104690185546875,-0.6022329394767061,-0.6139858845800161,1.4209358889490364
1772045264751676400,4.114676513671875,-0.6596247692048549,-0.5517760966435075,1.3715034572601317
1772045264761662200,4.124662109375,-0.7689911528527736,-0.48098640414923427,1.3179963234782217
1772045264771648300,4.134648193359375,-0.8551238873641938,-0.40468174762576814,1.2723153532773255
1772045264781634000,4.144634033203125,-0.9024900341730564,-0.31783494656085964,1.187713993051648
1772045264791619800,4.154619873046875,-0.9540705838065594,-0.25958734025359154,1.050932948255539
1772045264801605600,4.164605712890625,-1.0073171669561416,-0.19158055647611616,0.8489701139748096
1772045264811591700,4.174591796875,-1.0219933425623924,-0.15824468858540058,0.6269289527833461
1772045264821577500,4.184577392578125,-1.0475799845658242,-0.12183891173005103,0.40597441778481
1772045264831563800,4.194563720703125,-1.0465408507764338,-0.08914747922271489,0.15876666663289069
1772045264841549600,4.204549560546875,-1.051957103671506,-0.09866203428208828,-0.08154021908938884
1772045264851535600,4.21453564453125,-1.034643492233753,-0.18164923730939625,-0.2978197480142116
1772045264861521700,4.224521728515625,-1.025404612310603,-0.28824732528775926,-0.5180997447520495
1772045264871506700,4.234506591796875,-0.9957963135756551,-0.37345395793020725,-0.7124258005440235
1772045264881492700,4.24449267578125,-0.9660908380765467,-0.3971241718530655,-0.8823732018828392
1772045264891478800,4.254478759765625,-0.9146844759661704,-0.3047317193597555,-1.0244581983059644
1772045264901464600,4.264464599609375,-0.8871113363206387,-0.13430033389627932,-1.1829220825999975
1772045264911450600,4.27445068359375,-0.8479799338936805,0.07856558719277382,-1.3436848914861679
1772045264921436700,4.284436767578125,-0.8293770863629877,0.3853881413519382,-1.5279425577282906
1772045264931422700,4.294422607421875,-0.8358313040036708,0.6354816770732402,-1.6742548164576292
1772045264941407700,4.30440771484375,-0.887500700964406,0.8658809167653322,-1.80989487452507
1772045264951393500,4.3143935546875,-0.9357729297675191,1.2632272069364785,-2.0853017152011395
1772045264961379800,4.3243798828125,-0.9521114125628024,1.7262357635855674,-2.437199090361595
1772045264971365600,4.33436572265625,-1.0767021802842616,1.9985361626788973,-2.676643221774697
1772045264981351700,4.3443515625,-1.2670131552159785,2.0060946152344346,-2.702638079252839
1772045264991337700,4.354337646484375,-1.474693782621622,1.6378975549191235,-2.557103819158673
1772045265001323800,4.36432373046875,-1.5848166837252675,1.1053057589560746,-2.452993456342816
1772045265011308500,4.37430859375,-1.5406033018589018,0.6763412184670567,-2.4383821626663207
1772045265021294600,4.384294677734375,-1.3231424541950225,0.4067033165812492,-2.365731352475285
1772045265031280600,4.39428076171875,-1.0667641391158103,0.23100685019642114,-2.1803233471542596
1772045265041266700,4.4042666015625,-0.9177743317402899,0.06621697775125503,-1.784030949950218
1772045265051252500,4.41425244140625,-0.8588754949826747,-0.15937807652950287,-1.2652730335503817
1772045265061238800,4.42423876953125,-0.8499252227425574,-0.39207711759656666,-0.8428443245708942
1772045265071224600,4.434224609375,-0.8487352092403918,-0.5979147474840283,-0.5730787046521901
1772045265081210600,4.444210693359375,-0.8335621169626712,-0.8285787755921482,-0.408311336299777
1772045265091195600,4.454195556640625,-0.77806176353693,-0.9666583357661962,-0.3978898955285549
1772045265101181700,4.464181640625,-0.6875367854159325,-0.9973810985490679,-0.4640151033431291
1772045265111167700,4.474167724609375,-0.6275556333143264,-0.9798670691683888,-0.4715454988479614
1772045265121153500,4.484153564453125,-0.6032407648123801,-0.9583318214476108,-0.3553618364006281
1772045265131139800,4.494139892578125,-0.5481914430897683,-0.8423480654865503,-0.18731588476896285
1772045265141125600,4.504125732421875,-0.4497311419248581,-0.6267085880309343,-0.02430149756371975
1772045265151111700,4.514111572265625,-0.3434732456862926,-0.35932723290026186,0.17634499342143534
1772045265161097700,4.52409765625,-0.23866036062426862,-0.05899374849945306,0.38205636658072467
1772045265171082800,4.534082763671875,-0.1299019528068602,0.25137919161766764,0.5700830299675465
1772045265181068500,4.544068603515625,-0.0494704986769706,0.5315466708242893,0.7636573906093835
1772045265191054600,4.5540546875,0.03208915576525032,0.7263496964782477,0.9705413146793842
1772045265201040600,4.56404052734375,0.12951828725151718,0.8448258537769318,1.1344541120290756
1772045265211026700,4.574026611328125,0.22043021886348724,0.9815700736939906,1.2630536039352416
1772045265221012500,4.584012451171875,0.268427503182739,1.1038237037047742,1.4142232395678758
1772045265230998800,4.593998779296875,0.268166879485175,1.240756724192202,1.5904893225342034
1772045265240984600,4.603984619140625,0.22680377248339353,1.402538646993041,1.78792503477931
1772045265250969600,4.613969482421875,0.17340075666308402,1.5665797468975184,2.039061942073703
1772045265260955600,4.62395556640625,0.1510801307182759,1.709977287223935,2.2991642461121082
1772045265270941700,4.633941650390625,0.13859737350307405,1.815790362304449,2.5274568689137697
1772045265280927700,4.643927734375,0.16164244126491248,1.8827561125963925,2.7352356959968804
1772045265290913500,4.65391357421875,0.2277635574262589,1.9134473111972212,2.93721665045619
1772045265300899800,4.66389990234375,0.2260555844645947,1.8978385309159755,3.0779496477484702
1772045265310885600,4.6738857421875,0.18639935444593428,1.859735594753921,3.1561265278846022
1772045265320871700,4.68387158203125,0.12749949477501213,1.8207079449623822,3.1486656904846426
1772045265330857700,4.693857666015625,0.06059628832526505,1.7676130452431738,3.0451579697370526
1772045265340842800,4.7038427734375,-0.03687858199886977,1.6519196505308151,2.8731004443764685
1772045265350828500,4.71382861328125,-0.07947400727458298,1.541813554431498,2.6497861945092676
1772045265360814600,4.723814697265625,-0.07347790866494178,1.4529960378155111,2.3811218138307333
1772045265370800600,4.733800537109375,-0.08008885123729706,1.3763655103385448,2.169330243974924
1772045265380786700,4.74378662109375,-0.0932581294119358,1.2980778633043168,2.034820651242137
1772045265390772500,4.7537724609375,-0.12520933801122008,1.194971855225414,1.8837480462431906
1772045265400758800,4.7637587890625,-0.1425240454275161,1.0573476376034319,1.7284627919852733
1772045265410744600,4.77374462890625,-0.08528174370527267,0.8793145449645817,1.5319915408581495
1772045265420729600,4.7837294921875,0.04771211070232093,0.6570721621125936,1.2970569958239793
1772045265430715600,4.793715576171875,0.18893734849095342,0.4045537373319268,1.0548054057747125
1772045265440701700,4.80370166015625,0.30008184772729873,0.14482698860764504,0.8091922303378581
1772045265450687700,4.813687744140625,0.3673404434859752,-0.06155629246383905,0.5966174011498689
1772045265460673500,4.823673583984375,0.45929165501780805,-0.21969810519665478,0.46964872531592844
1772045265470659800,4.833659912109375,0.5571230106294155,-0.3071782357290387,0.3806026606410742
1772045265480645600,4.843645751953125,0.659553384469077,-0.2918506104767322,0.29860417639017106
1772045265490631700,4.853631591796875,0.728323553834483,-0.204835467107594,0.24163901110887526
1772045265500617700,4.86361767578125,0.7151205195207149,-0.07961626528948546,0.2097176861912012
1772045265510602800,4.873602783203125,0.6479074434041977,0.06521539949327707,0.19865677847266197
1772045265520588500,4.883588623046875,0.5764226813178509,0.16642039625644683,0.1480775148361921
1772045265530574600,4.89357470703125,0.5147123673360795,0.24025895492732524,0.08363573006391525
1772045265540560600,4.903560546875,0.4691572154719382,0.2431798108100891,-0.041418052059412
1772045265550546700,4.913546630859375,0.4015442533176392,0.053204935964941975,-0.24968787752985952
1772045265560532500,4.923532470703125,0.37196167354583737,-0.1298269878745079,-0.5786293245166539
1772045265570518800,4.933518798828125,0.42643918672986325,0.014649579860270023,-1.1255839923530817
1772045265580504600,4.943504638671875,0.4122867427367717,0.23584990631341932,-1.5727993520647285
1772045265590490600,4.95349072265625,0.30905199371166525,0.26976941931098697,-1.9260294371336697
1772045265600475600,4.9634755859375,0.16710194877982137,0.1660381189405918,-2.2923189102619883
1772045265610461700,4.973461669921875,0.09994038365483283,-0.15507716446518896,-2.6967005058974025
1772045265620447700,4.98344775390625,0.1316273152947426,-0.4393956258714199,-3.1370956642001864
1772045265630433500,4.99343359375,0.20968780250959096,-0.6508735997334122,-3.564266599270701
1772045265640419800,5.003419921875,0.30760457138232883,-0.8012199362844228,-3.942936246022582
1772045265650405600,5.013405517578125,0.3517407232940197,-0.8569193194136023,-4.198698475030064
1772045265660391700,5.0233916015625,0.3094797906696796,-0.9851984933242202,-4.225158611932397
1772045265670377700,5.033377685546875,0.19293204415030776,-1.1301456011801958,-4.221476708549261
1772045265680363800,5.04336376953125,0.04684124615192413,-1.3231690499410032,-4.14652288211286
1772045265690348500,5.0533486328125,-0.13327106391377747,-1.6594649513438342,-3.9127743319928645
1772045265700334600,5.06333447265625,-0.2393197013158351,-2.0043153306022283,-3.588763327145576
1772045265710320600,5.073320556640625,-0.25575170761346816,-2.247697970508039,-3.237710001593828
1772045265720306700,5.083306640625,-0.24777765999436377,-2.4131585818216204,-2.875182511347532
1772045265730292500,5.09329248046875,-0.2384264788031578,-2.4157842541500925,-2.46359785246551
1772045265740278800,5.10327880859375,-0.26848727054595944,-2.2830866792753337,-2.0206267061948777
1772045265750264600,5.1132646484375,-0.3718599667370319,-2.0832290005803107,-1.609149599340558
1772045265760250600,5.123250732421875,-0.5777892934959381,-1.8581424803435802,-1.2904688496053218
1772045265770236000,5.13323583984375,-0.8029214064400643,-1.6989464823827147,-1.2407768901973961
1772045265780221700,5.1432216796875,-0.9895651641011237,-1.5844731309846043,-1.453234815007448
1772045265790207500,5.15320751953125,-1.1946784983020275,-1.5825196588292716,-1.794431932455301
1772045265800193300,5.163193359375,-1.447119546997547,-1.592905443765223,-2.1174732154875993
1772045265810179300,5.173179443359375,-1.666853015768528,-1.6892755677178501,-2.3536346719682215
1772045265820165400,5.183165283203125,-1.7661574396073818,-1.7016691853448747,-2.6446459090113636
1772045265830151400,5.1931513671875,-1.814775632303953,-1.6927392983056604,-2.9277421351462602
1772045265840137200,5.20313720703125,-1.8091092771053312,-1.6937880767062305,-3.0912761623114346
1772045265850123500,5.21312353515625,-1.749548834633827,-1.5966316246815024,-3.1004560785889623
1772045265860109300,5.223109375,-1.7706559200704097,-1.4756350089944898,-2.903064790007472
1772045265870094300,5.23309423828125,-1.846419309324026,-1.3596090213268994,-2.7019518505543467
1772045265880080100,5.243080078125,-1.8690426445424555,-1.1240163046449423,-2.5007594161242244
1772045265890066400,5.25306640625,-1.9370693020641803,-0.8980123773023485,-2.2067150949954986
1772045265900052200,5.26305224609375,-2.066560774374008,-0.6736800364337862,-1.9831419019311665
1772045265910038300,5.273038330078125,-2.123711817616224,-0.4274507749252021,-1.8301140712112187
1772045265920024300,5.2830244140625,-2.128234847998619,-0.16191862785778938,-1.7370704613327979
1772045265930010400,5.29301025390625,-2.165305226242542,0.08155600118041038,-1.6396972978174686
1772045265939996200,5.30299609375,-2.277308388134837,0.3379289824973792,-1.614362365552783
1772045265949981200,5.312981201171875,-2.3301287086963653,0.5136457610178738,-1.4504589205533265
1772045265959967500,5.322967529296875,-2.121384982103854,0.7438812615156173,-1.192080371567607
1772045265969953300,5.332953369140625,-1.7430130031242965,0.9216298381246626,-0.9635533554881811
1772045265979938300,5.342938232421875,-1.3145797930330037,1.0515556101985275,-0.8866840508192777
1772045265989924000,5.352924072265625,-1.0465572173893452,1.2598372722372413,-0.8184656701177359
1772045265999910400,5.362910400390625,-1.0598942533463238,1.442221399692446,-0.7244143445014953
1772045266009896200,5.372896240234375,-1.1942471942126751,1.5995279306448995,-0.668031947544217
1772045266019882200,5.38288232421875,-1.2764508456468582,1.7539380095034838,-0.617160422962904
1772045266029868300,5.392868408203125,-1.2773410724848508,1.8848130451261995,-0.5561351686358451
1772045266039854300,5.402854248046875,-1.266775547067821,2.0734584249332544,-0.49398470967113967
1772045266049840000,5.412840087890625,-1.384686763960123,2.2015353542700407,-0.6608458354324102
1772045266059826400,5.422826416015625,-1.4458639939785003,2.1815523044273255,-0.9961188235282897
1772045266069811500,5.4328115234375,-1.252741468757391,2.1295336556375024,-1.2821189544111489
1772045266079797200,5.44279736328125,-1.2070616676002741,2.044293120725453,-1.1924813535839318
1772045266089783300,5.452783203125,-1.0642109475016592,1.9474831440508364,-0.9917881008476018
1772045266099769300,5.462769287109375,-0.6984627416431903,2.0176396532081067,-1.0165507861822842
1772045266109755400,5.47275537109375,-0.23566928904950618,2.227840446741134,-1.1305027440547943
1772045266119741200,5.4827412109375,0.18933716146349905,2.476649641740322,-1.191028232166171
1772045266129727500,5.4927275390625,0.5006617032170295,2.601384567172825,-1.2912269744962452
1772045266139713300,5.50271337890625,0.8649667245298623,2.5672154633283615,-1.2893728710621595
1772045266149699300,5.51269921875,1.2358476171016692,2.2550267059609292,-1.1918255200237036
1772045266159684000,5.52268408203125,1.4167495431751012,2.250627155827731,-0.8461421970725059
1772045266169670400,5.53267041015625,1.6976187409102916,2.6866630960077047,-0.5098325594052672
1772045266179656200,5.54265625,1.693755635741353,3.184725138120353,-0.6546230153948068
1772045266189642200,5.552642333984375,0.9380769689261913,3.0591409023821354,-0.9790893627941608
1772045266199628300,5.562628173828125,0.03224690361022949,2.554859839624166,-0.840905173201859
1772045266209614300,5.5726142578125,-0.4451069892555475,2.4247227628871797,-0.7621157141253352
1772045266219600100,5.58260009765625,-0.30801965498924255,2.815924266692996,-0.9086497989118099
1772045266229586400,5.59258642578125,0.0412000253945589,3.0304324020311233,-0.9460478016749024
1772045266239572200,5.602572265625,0.42235272113382816,2.822240902493894,-0.8236421959728002
1772045266249557200,5.61255712890625,0.7583288890630007,2.4912016064450144,-0.4712146594583988
1772045266259543300,5.622543212890625,1.0339157624810933,2.171502911838889,-0.09279226546585559
1772045266269529300,5.632529296875,1.1648539264678954,1.8318240899994969,0.12174743405431508
1772045266279515400,5.642515380859375,1.1811831299781799,1.5083353554606438,0.02183218484073877
1772045266289501200,5.652501220703125,1.1875368829190731,1.35906716953516,-0.262908009108901
1772045266299487200,5.6624873046875,1.1943863104224204,1.41301240247339,-0.5822877008937299
1772045266309473300,5.672473388671875,1.2189432440519332,1.4672703546226025,-0.8059286984972656
1772045266319459000,5.682458984375,1.253440556937456,1.3727289074018596,-0.7470752352513372
1772045266329445400,5.6924453125,1.1641010622739791,1.1298013177871704,-0.6861464270360768
1772045266339431200,5.70243115234375,1.1857552601993084,0.9847016497179866,-0.9081728290498257
1772045266349417200,5.712417236328125,1.2902701121628284,1.2070113987177609,-1.1289772880531848
1772045266359402200,5.72240234375,1.1623469120830296,1.4065496362000702,-1.022822267667204
1772045266369388300,5.73238818359375,1.0489344679147004,1.5341647932440041,-0.8013542301885783
1772045266379374300,5.742374267578125,1.1425982555180787,1.7686711759939788,-0.6276625277549028
1772045266389360000,5.752360107421875,1.3476058643221855,1.9493159124359487,-0.4123237868115306
1772045266399346400,5.762346435546875,1.597494817382097,2.0116335446611044,-0.243649035757035
1772045266409332200,5.772332275390625,1.7036948459535837,1.932476421315968,-0.1965554222792387
1772045266419318300,5.782318359375,1.603280415046215,1.6768609073027967,-0.29460232033766803
1772045266429304300,5.79230419921875,1.62149236356318,1.562615811702609,-0.5609294171750545
1772045266439290400,5.802290283203125,1.759136747190356,1.5096689421519636,-0.9152372144781052
1772045266449276200,5.812276123046875,1.9285428812593222,1.3242992230147121,-1.185926013656333
1772045266459261200,5.82226123046875,2.1441835277587176,1.1055077112689613,-1.3158593114495276
1772045266469247200,5.832247314453125,2.4479765049636364,0.9476514374792575,-1.3773074673637746
1772045266479233300,5.8422333984375,2.7179952228605746,0.8026420780420302,-1.4165359004244207
1772045266489219000,5.852218994140625,2.8664959315449,0.573752366130054,-1.4839743827946483
1772045266499205400,5.862205322265625,2.889651181682944,0.37705636633634565,-1.6006930289015173
1772045266509191200,5.872191162109375,2.7634195879518986,0.3230997352212667,-1.6181198183901606
1772045266519177200,5.88217724609375,2.6182027232438325,0.4436652660146355,-1.4633841608390212
1772045266529163300,5.892163330078125,2.4810429082632064,0.7305474404290319,-1.0824605246152728
1772045266539148300,5.902148193359375,2.365706218034029,0.9605559272378682,-0.6331224005959928
1772045266549134300,5.91213427734375,2.224817737919092,1.0539899977385998,-0.16549140831064432
1772045266559120100,5.9221201171875,2.112420023751259,1.078689846970141,0.21244765914436428
1772045266569106400,5.9321064453125,1.9821680884629487,1.0959878955125808,0.41533780087046324
1772045266579092200,5.94209228515625,1.8578192397385835,0.91038407535851,0.5088002206828445
1772045266589078300,5.952078369140625,1.8126783677637577,0.50205023496598,0.5961028026912361
1772045266599064300,5.962064208984375,1.8071096277207135,0.27310616251826286,0.6351715882107615
1772045266609050400,5.97205029296875,1.6486849063932896,0.228408212005347,0.6281740574736148
1772045266619036200,5.9820361328125,1.3097732695341109,0.323548648032546,0.7516645358029752
1772045266629021400,5.992021484375,0.9552683422237634,0.30441403171271086,0.7715786851279437
1772045266639007200,6.00200732421875,0.5835515833497047,0.14955825491324065,0.5106180837597698
1772045266648993300,6.0119931640625,0.35820670443773267,-0.0987000282049179,0.1401402190309018
1772045266658979000,6.02197900390625,0.33255496130883694,-0.269668589285016,-0.22435345672182738
1772045266668965400,6.03196533203125,0.35526363672316075,-0.3210416336476803,-0.35197394752800465
1772045266678951200,6.041951171875,0.465772176143527,-0.36372342203259467,-0.22224588998332617
1772045266688937200,6.051937255859375,0.5878302835822105,-0.3956988152250647,0.006088526133447885
1772045266698923300,6.06192333984375,0.6808680482417344,-0.40499505135864017,0.18270517610311507
1772045266708909300,6.071909423828125,0.7638362543076276,-0.4797755670547485,0.24904322295077144
1772045266718894300,6.081894287109375,0.9332020563662051,-0.4509606837198138,0.16963446293212472
1772045266728880400,6.09188037109375,1.0313882898300886,-0.47557606953829523,0.03122333271615207
1772045266738866400,6.101866455078125,0.950726022619009,-0.4982920514762401,-0.058412952936813235
1772045266748852200,6.111852294921875,0.8033049258649348,-0.5378729512363672,0.020309359187632797
1772045266758838300,6.12183837890625,0.6541922227621078,-0.5921510693907738,0.06352269716598093
