time,seconds_elapsed,z,y,x
1772045260707402200,0.07040234375,0.8924026489257812,-0.08570986241102219,0.7359683513641357
1772045260717387300,0.08038720703125,0.8930220007896423,-0.15004344284534454,0.7175594568252563
1772045260727373300,0.090373291015625,0.9136167764663696,-0.14118097722530365,0.7255366444587708
1772045260737359400,0.100359375,0.9435182809829712,-0.09970378875732422,0.7369644045829773
1772045260747345200,0.11034521484375,0.9899422526359558,-0.06511837989091873,0.7367342710494995
1772045260757331500,0.12033154296875,1.0566750764846802,-0.08362118899822235,0.7165961861610413
1772045260767317200,0.130317138671875,1.1177453994750977,-0.19113273918628693,0.685911238193512
1772045260777303300,0.14030322265625,1.157922625541687,-0.28937187790870667,0.6666182279586792
1772045260787288000,0.1502880859375,1.1804490089416504,-0.3790231943130493,0.6621922850608826
1772045260797274400,0.1602744140625,1.2016236782073975,-0.4340161383152008,0.6949670314788818
1772045260807260200,0.17026025390625,1.230252742767334,-0.4019271731376648,0.7529256939888
1772045260817246200,0.18024609375,1.3417205810546875,-0.25218403339385986,0.770894467830658
1772045260827232300,0.190232177734375,1.449479579925537,-0.00014326797099784017,0.7902783155441284
1772045260837218300,0.20021826171875,1.5483675003051758,0.19340674579143524,0.7869213819503784
1772045260847203300,0.210203369140625,1.6819067001342773,0.3046432435512543,0.7511026263237
1772045260857189000,0.220189208984375,1.8687926530838013,0.38544613122940063,0.6809105277061462
1772045260867175400,0.230175537109375,2.0532495975494385,0.40304404497146606,0.6084661483764648
1772045260877161200,0.2401611328125,2.1919615268707275,0.3048807978630066,0.5583011507987976
1772045260887147300,0.250147216796875,2.237095832824707,0.07413466274738312,0.5394430160522461
1772045260897133300,0.26013330078125,2.2103679180145264,-0.18832990527153015,0.5096771717071533
1772045260907118300,0.270118408203125,2.165318250656128,-0.45021477341651917,0.47428035736083984
1772045260917104000,0.280104248046875,2.1418349742889404,-0.7516837120056152,0.45093807578086853
1772045260927090400,0.29009033203125,2.130613327026367,-1.1602405309677124,0.4568673372268677
1772045260937076200,0.300076171875,2.120823621749878,-1.5447367429733276,0.49080541729927063
1772045260947062300,0.310062255859375,2.100454092025757,-1.6819281578063965,0.5325284004211426
1772045260957048000,0.320048095703125,2.120117425918579,-1.7246897220611572,0.5933334231376648
1772045260967034400,0.330034423828125,2.1865711212158203,-1.7056596279144287,0.6675258874893188
1772045260977019400,0.340019287109375,2.3005547523498535,-1.6992716789245605,0.727131187915802
1772045260987005200,0.350005126953125,2.410548210144043,-1.6945546865463257,0.753285825252533
1772045260996991500,0.359991455078125,2.491213321685791,-1.5312855243682861,0.7340520620346069
1772045261006977300,0.369977294921875,2.4821135997772217,-1.2821755409240723,0.667847216129303
1772045261016963300,0.37996337890625,2.3959405422210693,-1.0493998527526855,0.5418851971626282
1772045261026949400,0.389949462890625,2.3274176120758057,-0.9934965372085571,0.3915327191352844
1772045261036934400,0.399934326171875,2.3397114276885986,-1.1002631187438965,0.2921604514122009
1772045261046920200,0.409920166015625,2.4214956760406494,-1.303970456123352,0.2646135091781616
1772045261056906200,0.41990625,2.538435459136963,-1.5768930912017822,0.3077341616153717
1772045261066892300,0.429892333984375,2.6410715579986572,-1.846032977104187,0.4002974033355713
1772045261076878300,0.43987841796875,2.661818265914917,-2.0202412605285645,0.47256210446357727
1772045261086864100,0.449864013671875,2.612135171890259,-2.1348376274108887,0.501315176486969
1772045261096850400,0.459850341796875,2.5513243675231934,-2.2323780059814453,0.48952311277389526
1772045261106835500,0.46983544921875,2.5315911769866943,-2.2889184951782227,0.4775135815143585
1772045261116821200,0.4798212890625,2.5699946880340576,-2.2851076126098633,0.5077829957008362
1772045261126807300,0.489807373046875,2.629446029663086,-2.253840208053589,0.5769021511077881
1772045261136793300,0.49979345703125,2.6779491901397705,-2.2279088497161865,0.6694992780685425
1772045261146779400,0.509779296875,2.7406389713287354,-2.186021089553833,0.7719273567199707
1772045261156765200,0.51976513671875,2.8339858055114746,-2.0855631828308105,0.8347687721252441
1772045261166750200,0.529750244140625,2.9206676483154297,-1.9250789880752563,0.8360934853553772
1772045261176736300,0.539736328125,2.9870004653930664,-1.7719886302947998,0.7669540047645569
1772045261186722300,0.549722412109375,2.9945106506347656,-1.6284037828445435,0.648594856262207
1772045261196708000,0.5597080078125,2.991655111312866,-1.5007027387619019,0.4957013428211212
1772045261206694400,0.5696943359375,3.0225980281829834,-1.3551008701324463,0.2892685532569885
1772045261216680200,0.57968017578125,3.0656352043151855,-1.3389294147491455,0.11822960525751114
1772045261226666200,0.589666259765625,3.1076414585113525,-1.4660879373550415,0.037763260304927826
1772045261236651300,0.5996513671875,3.044332504272461,-1.645600438117981,0.0316949300467968
1772045261246637300,0.60963720703125,2.926316499710083,-1.9424227476119995,0.1012343317270279
1772045261256623400,0.619623291015625,2.83994722366333,-2.317875623703003,0.2577863335609436
1772045261266609200,0.629609130859375,2.7774977684020996,-2.7212915420532227,0.5117533206939697
1772045261276595500,0.639595458984375,2.669764280319214,-3.095747232437134,0.827570915222168
1772045261286581200,0.649581298828125,2.6031124591827393,-3.419469118118286,1.1144585609436035
1772045261296567300,0.6595673828125,2.6660850048065186,-3.738706111907959,1.2672284841537476
1772045261306552000,0.669552001953125,2.803677797317505,-3.8914124965667725,1.3382600545883179
1772045261316538400,0.679538330078125,2.959988832473755,-3.8738224506378174,1.3990877866744995
1772045261326524200,0.689524169921875,3.1270840167999268,-3.754481077194214,1.4518260955810547
1772045261336510200,0.69951025390625,3.262909173965454,-3.52057147026062,1.5084362030029297
1772045261346496300,0.709496337890625,3.3222479820251465,-3.2343204021453857,1.5724185705184937
1772045261356482300,0.719482421875,3.1700615882873535,-2.9180421829223633,1.656076431274414
1772045261366467300,0.72946728515625,2.8545022010803223,-2.5460901260375977,1.6965519189834595
1772045261376453400,0.739453369140625,2.4573121070861816,-2.128904342651367,1.6864807605743408
1772045261386439400,0.749439453125,2.142299175262451,-1.74910306930542,1.583154320716858
1772045261396425200,0.75942529296875,1.9051319360733032,-1.3654175996780396,1.4473025798797607
1772045261406411300,0.769411376953125,1.75563645362854,-0.9869216680526733,1.2556575536727905
1772045261416397300,0.779397216796875,1.6600749492645264,-0.5960657596588135,1.0083166360855103
1772045261426383400,0.78938330078125,1.5639739036560059,-0.19741374254226685,0.7564236521720886
1772045261436368100,0.7993681640625,1.4282416105270386,0.13184121251106262,0.5473796129226685
1772045261446354400,0.8093544921875,1.205458641052246,0.3420077860355377,0.400661826133728
1772045261456340200,0.81934033203125,0.9074310064315796,0.41165027022361755,0.3115484416484833
1772045261466326300,0.829326171875,0.5933980345726013,0.3821898400783539,0.2612932622432709
1772045261476312300,0.839312255859375,0.32780638337135315,0.3034836947917938,0.22295567393302917
1772045261486298400,0.84929833984375,0.1276504099369049,0.22018800675868988,0.18366952240467072
1772045261496284200,0.8592841796875,-0.011817051097750664,0.13337843120098114,0.1448795199394226
1772045261506269200,0.869269287109375,-0.12158030271530151,0.06413410604000092,0.09604007005691528
1772045261516255500,0.87925537109375,-0.20879408717155457,0.04174267128109932,0.05505683273077011
1772045261526241300,0.8892412109375,-0.2636842429637909,0.01610788330435753,0.05346506088972092
1772045261536227300,0.899227294921875,-0.347663551568985,0.08317063003778458,0.01467855740338564
1772045261546213400,0.90921337890625,-0.4288550615310669,0.16347266733646393,0.001990192336961627
1772045261556199400,0.919199462890625,-0.48362281918525696,0.20258034765720367,0.013412806205451488
1772045261566185200,0.929185302734375,-0.5033600330352783,0.22626623511314392,0.035741548985242844
1772045261576170200,0.939170166015625,-0.49585095047950745,0.22676336765289307,0.07113659381866455
1772045261586156300,0.94915625,-0.4680984318256378,0.21161024272441864,0.11993396282196045
1772045261596142300,0.959142333984375,-0.42852774262428284,0.18866173923015594,0.1823738068342209
1772045261606128000,0.969128173828125,-0.3834761083126068,0.1386939138174057,0.2546975314617157
1772045261616114400,0.979114501953125,-0.3462821841239929,0.06517360359430313,0.3234059810638428
1772045261626100200,0.989100341796875,-0.32581207156181335,0.03634808212518692,0.37690380215644836
1772045261636086300,0.999086181640625,-0.31491875648498535,0.03651387244462967,0.44034555554389954
1772045261646071300,1.0090712890625,-0.3166479468345642,0.023027358576655388,0.513714611530304
1772045261656057300,1.019057373046875,-0.33094289898872375,-0.008231637999415398,0.5912405848503113
1772045261666043400,1.02904345703125,-0.3515799939632416,-0.061469823122024536,0.6441485285758972
1772045261676029200,1.039029296875,-0.36276543140411377,-0.12446695566177368,0.6819818615913391
1772045261686015500,1.049015380859375,-0.3591238260269165,-0.1524581015110016,0.72069251537323
1772045261696001300,1.059001220703125,-0.3116278052330017,-0.10509008914232254,0.7942693829536438
1772045261705987300,1.0689873046875,-0.26915809512138367,-0.04118487983942032,0.8788737058639526
1772045261715973400,1.078973388671875,-0.25681260228157043,-0.011632174253463745,0.948774516582489
1772045261725958400,1.08895849609375,-0.2812100648880005,-0.05797916278243065,0.9853194952011108
1772045261735944200,1.098944091796875,-0.3059808313846588,-0.1662868708372116,0.9920514225959778
1772045261745930200,1.10893017578125,-0.3170068562030792,-0.2627561688423157,0.949668824672699
1772045261755916300,1.118916259765625,-0.28742435574531555,-0.2810872793197632,0.8641533255577087
1772045261765902300,1.12890234375,-0.2285437136888504,-0.2229187786579132,0.770747184753418
1772045261775888100,1.13888818359375,-0.16601066291332245,-0.11771223694086075,0.6740715503692627
1772045261785874400,1.14887451171875,-0.10114619135856628,0.004489573650062084,0.6002795696258545
1772045261795860200,1.158860107421875,-0.05963858217000961,0.09533074498176575,0.5620394945144653
1772045261805845200,1.16884521484375,-0.03973784297704697,0.1478128582239151,0.5511932373046875
1772045261815831300,1.178831298828125,-0.02273298054933548,0.1586925983428955,0.5666868090629578
1772045261825817300,1.1888173828125,-0.029279030859470367,0.12778101861476898,0.6224102973937988
1772045261835803400,1.198803466796875,-0.06765995174646378,0.0986417755484581,0.7097493410110474
1772045261845789200,1.2087890625,-0.09648894518613815,0.11727938055992126,0.814308226108551
1772045261855775200,1.218775146484375,-0.09304027259349823,0.09319797903299332,0.8993792533874512
1772045261865761300,1.22876123046875,-0.027559794485569,0.05416295677423477,0.9488147497177124
1772045261875747300,1.238747314453125,0.07757987827062607,-0.03268629312515259,0.9572619199752808
1772045261885732000,1.248732177734375,0.23232658207416534,-0.23749296367168427,0.9445797204971313
1772045261895718400,1.258718505859375,0.24568964540958405,-0.378103107213974,0.9647008776664734
1772045261905704200,1.2687041015625,0.12401167303323746,-0.4892783761024475,1.0228732824325562
1772045261915690200,1.278690185546875,-0.017219584435224533,-0.6142289638519287,1.0688824653625488
1772045261925676300,1.28867626953125,-0.1446869969367981,-0.6485666632652283,1.0765507221221924
1772045261935662300,1.298662353515625,-0.18669186532497406,-0.570132315158844,1.0192586183547974
1772045261945648000,1.308648193359375,-0.20790766179561615,-0.4964740574359894,0.835917055606842
1772045261955633400,1.31863330078125,-0.18877796828746796,-0.377910852432251,0.6084161400794983
1772045261965619200,1.328619140625,-0.10012799501419067,-0.20455798506736755,0.4054041802883148
1772045261975605200,1.338605224609375,-0.009247740730643272,-0.028902491554617882,0.24973370134830475
1772045261985591300,1.34859130859375,0.08580873161554337,0.19852107763290405,0.1555350422859192
1772045261995577300,1.358577392578125,0.1879976987838745,0.37251755595207214,0.12678216397762299
1772045262005563100,1.368563232421875,0.2637140154838562,0.4559924900531769,0.17387190461158752
1772045262015549200,1.378549072265625,0.29939478635787964,0.4818840026855469,0.2677152752876282
1772045262025535200,1.38853515625,0.29615718126296997,0.47090163826942444,0.4136868417263031
1772045262035520300,1.398520263671875,0.26509109139442444,0.3891291618347168,0.5826968550682068
1772045262045506300,1.40850634765625,0.22137503325939178,0.25394871830940247,0.7409554719924927
1772045262055492400,1.418492431640625,0.19051112234592438,0.08796117454767227,0.8621724843978882
1772045262065478400,1.428478515625,0.19506512582302094,-0.060238681733608246,0.927430272102356
1772045262075464200,1.438464111328125,0.21411776542663574,-0.1671394258737564,0.9624050259590149
1772045262085450200,1.4484501953125,0.25225502252578735,-0.23118339478969574,0.9843971729278564
1772045262095436300,1.458436279296875,0.28604856133461,-0.2680743634700775,1.0154730081558228
1772045262105422300,1.46842236328125,0.303716778755188,-0.2807222306728363,1.0469390153884888
1772045262115407000,1.478406982421875,0.31557556986808777,-0.27556005120277405,1.0993051528930664
1772045262125393400,1.488393310546875,0.3014698624610901,-0.2476368099451065,1.1668199300765991
1772045262135379200,1.498379150390625,0.27840086817741394,-0.22091282904148102,1.2466078996658325
1772045262145365200,1.508365234375,0.24780219793319702,-0.23325684666633606,1.305152177810669
1772045262155351300,1.518351318359375,0.2216535210609436,-0.2667475938796997,1.3434696197509766
1772045262165337300,1.52833740234375,0.21738873422145844,-0.29904934763908386,1.3625128269195557
1772045262175323100,1.5383232421875,0.23163065314292908,-0.33183813095092773,1.3618334531784058
1772045262185309200,1.54830908203125,0.2648610770702362,-0.35212448239326477,1.351139783859253
1772045262195294500,1.55829443359375,0.32129669189453125,-0.3503749668598175,1.319516658782959
1772045262205280300,1.5682802734375,0.3757604658603668,-0.331358939409256,1.283691167831421
1772045262215266300,1.578266357421875,0.4416996240615845,-0.30624693632125854,1.2695469856262207
1772045262225252400,1.58825244140625,0.49096381664276123,-0.20539331436157227,1.267580509185791
1772045262235238400,1.59823828125,0.5118395090103149,-0.11478843539953232,1.285936951637268
1772045262245224200,1.60822412109375,0.5075400471687317,-0.12884514033794403,1.3149877786636353
1772045262255210500,1.61821044921875,0.47000226378440857,-0.23157772421836853,1.345332145690918
1772045262265196300,1.6281962890625,0.41797128319740295,-0.4125254154205322,1.3665210008621216
1772045262275181300,1.638181396484375,0.3822445571422577,-0.6277471780776978,1.387275218963623
1772045262285167000,1.6481669921875,0.3735956847667694,-0.7823042273521423,1.419478416442871
1772045262295153400,1.6581533203125,0.38514411449432373,-0.8309776782989502,1.4429734945297241
1772045262305139200,1.66813916015625,0.41318854689598083,-0.7790923714637756,1.4431260824203491
1772045262315125200,1.678125244140625,0.4589237570762634,-0.669935405254364,1.417259931564331
1772045262325111300,1.688111328125,0.5079940557479858,-0.5770288705825806,1.3629058599472046
1772045262335097300,1.698097412109375,0.5334110856056213,-0.5334475636482239,1.2975502014160156
1772045262345083100,1.708083251953125,0.5308142304420471,-0.541217565536499,1.2200703620910645
1772045262355069400,1.7180693359375,0.5115076303482056,-0.5902714133262634,1.1348925828933716
1772045262365054500,1.728054443359375,0.48828569054603577,-0.6494237184524536,1.0458530187606812
1772045262375040300,1.738040283203125,0.4694863557815552,-0.6985536217689514,0.9599412083625793
1772045262385026300,1.7480263671875,0.4537372291088104,-0.722566545009613,0.8714390397071838
1772045262395012400,1.758012451171875,0.44266238808631897,-0.7195888161659241,0.7879703640937805
1772045262404998400,1.767998291015625,0.4386490285396576,-0.6914602518081665,0.7106926441192627
1772045262414984200,1.777984130859375,0.4251576066017151,-0.6687690019607544,0.6293334364891052
1772045262424970500,1.787970458984375,0.40001603960990906,-0.6332834362983704,0.5414296984672546
1772045262434956300,1.797956298828125,0.3664175570011139,-0.5976550579071045,0.4499657154083252
1772045262444941300,1.80794140625,0.34279903769493103,-0.5753082036972046,0.36113810539245605
1772045262454927000,1.817927001953125,0.31555888056755066,-0.5615327954292297,0.27710235118865967
1772045262464913400,1.827913330078125,0.29989948868751526,-0.5543925762176514,0.20949454605579376
1772045262474899200,1.837899169921875,0.29969799518585205,-0.5494028925895691,0.14866437017917633
1772045262484885200,1.84788525390625,0.30870485305786133,-0.5191861391067505,0.09384319931268692
1772045262494871300,1.857871337890625,0.31846630573272705,-0.4870445728302002,0.049284789711236954
1772045262504857300,1.867857421875,0.32342857122421265,-0.4576107859611511,0.013686580583453178
1772045262514843100,1.877843017578125,0.3026984632015228,-0.4287353754043579,-0.014849096536636353
1772045262524828200,1.887828125,0.25628384947776794,-0.4349900782108307,-0.06165415421128273
1772045262534814500,1.897814453125,0.20781658589839935,-0.4427054524421692,-0.1362214982509613
1772045262544800300,1.90780029296875,0.15884290635585785,-0.39698296785354614,-0.23303619027137756
1772045262554786300,1.917786376953125,0.13017135858535767,-0.314269095659256,-0.337636798620224
1772045262564772400,1.9277724609375,0.1269601285457611,-0.20077501237392426,-0.44532036781311035
1772045262574758400,1.93775830078125,0.11856973171234131,-0.06981908529996872,-0.5418843626976013
1772045262584744200,1.947744140625,0.10225839912891388,0.07768994569778442,-0.6260448098182678
1772045262594730500,1.95773046875,0.07207326591014862,0.214963898062706,-0.6719606518745422
1772045262604715300,1.96771533203125,0.03261427581310272,0.32336997985839844,-0.678924560546875
1772045262614701300,1.977701416015625,-0.023133281618356705,0.3688204288482666,-0.6507601737976074
1772045262624687000,1.98768701171875,-0.08180538564920425,0.38306063413619995,-0.5927043557167053
1772045262634673400,1.99767333984375,-0.1426587700843811,0.3623464107513428,-0.505890965461731
1772045262644659200,2.0076591796875,-0.19588975608348846,0.2982425391674042,-0.39401766657829285
1772045262654645200,2.017645263671875,-0.2493332326412201,0.22973184287548065,-0.2540130317211151
1772045262664631300,2.02763134765625,-0.3027845025062561,0.14143046736717224,-0.10471753776073456
1772045262674617300,2.037617431640625,-0.3562069535255432,0.021921562030911446,0.03595937043428421
1772045262684602400,2.047602294921875,-0.3978680968284607,-0.10972435027360916,0.16472773253917694
1772045262694588200,2.057588134765625,-0.4491954743862152,-0.23782221972942352,0.27109548449516296
1772045262704574500,2.067574462890625,-0.5033362507820129,-0.35304710268974304,0.35536989569664
1772045262714560300,2.077560302734375,-0.5651777982711792,-0.44423824548721313,0.4135184586048126
1772045262724546300,2.08754638671875,-0.6281335949897766,-0.508213222026825,0.4397926926612854
1772045262734532400,2.097532470703125,-0.6862165331840515,-0.5358024835586548,0.43900352716445923
1772045262744518400,2.107518310546875,-0.7346900701522827,-0.5317888259887695,0.4052940309047699
1772045262754504200,2.117504150390625,-0.7663727402687073,-0.5090920329093933,0.34498336911201477
1772045262764489200,2.1274892578125,-0.7812036275863647,-0.45162180066108704,0.25770440697669983
1772045262774475300,2.137475341796875,-0.7805489301681519,-0.37506306171417236,0.17283518612384796
1772045262784461300,2.14746142578125,-0.7561628818511963,-0.28790658712387085,0.08194257318973541
1772045262794447000,2.157447021484375,-0.7115130424499512,-0.1960023045539856,-0.00345456856302917
1772045262804433200,2.16743310546875,-0.6466070413589478,-0.10653100907802582,-0.08407750725746155
1772045262814419200,2.177419189453125,-0.5775527954101562,-0.029706353321671486,-0.14880123734474182
1772045262824405200,2.1874052734375,-0.5132265686988831,0.02058185078203678,-0.18579760193824768
1772045262834391000,2.19739111328125,-0.447039395570755,0.058934349566698074,-0.20090368390083313
1772045262844377300,2.20737744140625,-0.37599825859069824,0.07891631126403809,-0.19124306738376617
1772045262854362400,2.2173623046875,-0.2941592037677765,0.06998970359563828,-0.1599837988615036
1772045262864348200,2.22734814453125,-0.20947253704071045,0.046395957469940186,-0.10520123690366745
1772045262874334200,2.237334228515625,-0.12956920266151428,0.01567479781806469,-0.041659146547317505
1772045262884320300,2.2473203125,-0.06746295094490051,-0.0036291249562054873,0.027645092457532883
1772045262894306300,2.257306396484375,-0.008864244446158409,-0.00019166103447787464,0.09852152317762375
1772045262904292000,2.2672919921875,0.054883040487766266,0.0034241126850247383,0.1527125984430313
1772045262914278100,2.277278076171875,0.12242133170366287,0.007928228937089443,0.1876559555530548
1772045262924264200,2.28726416015625,0.2049979716539383,-0.0024059016723185778,0.21669559180736542
1772045262934249200,2.297249267578125,0.28013595938682556,-0.04150240123271942,0.23576056957244873
1772045262944235000,2.307235107421875,0.3572262227535248,-0.08977672457695007,0.2634313404560089
1772045262954221300,2.31722119140625,0.42584288120269775,-0.1323649138212204,0.30568867921829224
1772045262964207000,2.32720703125,0.4805697798728943,-0.18787343800067902,0.35821953415870667
1772045262974193200,2.337193115234375,0.5219248533248901,-0.2375819981098175,0.4191569983959198
1772045262984179200,2.34717919921875,0.5400830507278442,-0.2572888731956482,0.47595956921577454
1772045262994165200,2.357165283203125,0.5431309342384338,-0.24494187533855438,0.5203365087509155
1772045263004151000,2.367151123046875,0.5322002172470093,-0.2115306556224823,0.540703296661377
1772045263014136000,2.377135986328125,0.5123353004455566,-0.1767907291650772,0.541512131690979
1772045263024122000,2.3871220703125,0.48044559359550476,-0.14085909724235535,0.5191378593444824
1772045263034108200,2.397108154296875,0.4453776776790619,-0.11730315536260605,0.48786813020706177
1772045263044094200,2.40709423828125,0.4123683273792267,-0.09665167331695557,0.45587077736854553
1772045263054080300,2.417080322265625,0.3785787522792816,-0.08533968031406403,0.4342227280139923
1772045263064066000,2.427066162109375,0.342126727104187,-0.0730031207203865,0.4262329638004303
1772045263074052000,2.437052001953125,0.3125380277633667,-0.0634019672870636,0.42767563462257385
1772045263084037000,2.447037109375,0.294802188873291,-0.057838618755340576,0.4304858148097992
1772045263094023200,2.457023193359375,0.2834585905075073,-0.07101064920425415,0.43204712867736816
1772045263104009200,2.46700927734375,0.28760406374931335,-0.09029033780097961,0.43368709087371826
1772045263113995000,2.4769951171875,0.291400283575058,-0.09243537485599518,0.4241091310977936
1772045263123981300,2.486981201171875,0.30167636275291443,-0.08468690514564514,0.40856504440307617
1772045263133967000,2.496967041015625,0.2997613549232483,-0.06591595709323883,0.3844398856163025
1772045263143953200,2.506953125,0.28678056597709656,-0.031274084001779556,0.34755295515060425
1772045263153939200,2.516939208984375,0.27228423953056335,-0.026964984834194183,0.27729058265686035
1772045263163924200,2.52692431640625,0.2713172435760498,-0.019866596907377243,0.17993740737438202
1772045263173910000,2.536909912109375,0.29955995082855225,0.01308475062251091,0.08674336969852448
1772045263183896000,2.54689599609375,0.33967673778533936,0.04994902387261391,0.010846208781003952
1772045263193882000,2.556882080078125,0.3884241580963135,0.08504649996757507,-0.038160908967256546
1772045263203868200,2.5668681640625,0.43490511178970337,0.10369635373353958,-0.05284637585282326
1772045263213854000,2.57685400390625,0.48271670937538147,0.10185997933149338,-0.04024309664964676
1772045263223840300,2.58684033203125,0.5295987129211426,0.09968125075101852,0.006133724469691515
1772045263233826000,2.596825927734375,0.5468520522117615,0.08323507755994797,0.0779605284333229
1772045263243811000,2.60681103515625,0.5430916547775269,0.05845356360077858,0.16738896071910858
1772045263253797000,2.616797119140625,0.507419764995575,0.026388248428702354,0.27073729038238525
1772045263263783200,2.626783203125,0.4481610059738159,-0.02779456228017807,0.3766789138317108
1772045263273769200,2.636769287109375,0.36092647910118103,-0.09430008381605148,0.4762636125087738
1772045263283755000,2.646755126953125,0.25917747616767883,-0.16504615545272827,0.5698180794715881
1772045263293741300,2.6567412109375,0.15395773947238922,-0.23420199751853943,0.651466429233551
1772045263303727000,2.66672705078125,0.05858888104557991,-0.2990840673446655,0.7280229330062866
1772045263313713200,2.676713134765625,-0.021032817661762238,-0.35496166348457336,0.8122816681861877
1772045263323698200,2.6866982421875,-0.07792326807975769,-0.4111407697200775,0.8974442481994629
1772045263333684200,2.696684326171875,-0.11177511513233185,-0.47526755928993225,0.9790145754814148
1772045263343670000,2.706669921875,-0.12917886674404144,-0.5407639741897583,1.062294602394104
1772045263353656000,2.716656005859375,-0.12900684773921967,-0.6118884682655334,1.132437825202942
1772045263363642000,2.72664208984375,-0.11908470839262009,-0.6942118406295776,1.186274766921997
1772045263373628200,2.736628173828125,-0.10585758835077286,-0.7740172743797302,1.2327861785888672
1772045263383614000,2.746614013671875,-0.09631015360355377,-0.8396410346031189,1.2658075094223022
1772045263393599200,2.75659912109375,-0.09067974984645844,-0.8899568915367126,1.278289556503296
1772045263403585300,2.766585205078125,-0.09724950790405273,-0.913999617099762,1.2755630016326904
1772045263413571000,2.776571044921875,-0.11166450381278992,-0.9204049110412598,1.2521923780441284
1772045263423557400,2.786557373046875,-0.1404937505722046,-0.9058550000190735,1.2124541997909546
1772045263433543200,2.796543212890625,-0.18120241165161133,-0.8748416304588318,1.1558878421783447
1772045263443529200,2.806529296875,-0.2250542938709259,-0.8171985745429993,1.0944409370422363
1772045263453515000,2.816514892578125,-0.2727109491825104,-0.7329148650169373,1.0198322534561157
1772045263463501300,2.826501220703125,-0.3132093846797943,-0.6317477822303772,0.9483102560043335
1772045263473486000,2.836486083984375,-0.3411492109298706,-0.5367566347122192,0.8706520199775696
1772045263483472100,2.84647216796875,-0.3518843948841095,-0.4566088020801544,0.8019201159477234
1772045263493458200,2.856458251953125,-0.33451834321022034,-0.3944721817970276,0.7458034753799438
1772045263503444200,2.8664443359375,-0.3001689016819,-0.3670445382595062,0.7078004479408264
1772045263513430000,2.876429931640625,-0.2615915834903717,-0.37757614254951477,0.6815463900566101
1772045263523416300,2.886416259765625,-0.22327642142772675,-0.4176953136920929,0.6753782629966736
1772045263533402000,2.896402099609375,-0.19269192218780518,-0.47276172041893005,0.6836580038070679
1772045263543387100,2.90638720703125,-0.1617121696472168,-0.5366493463516235,0.7028143405914307
1772045263553373200,2.916373291015625,-0.1369135081768036,-0.6004461050033569,0.7262035012245178
1772045263563359200,2.926359130859375,-0.11013355851173401,-0.6505473852157593,0.7443918585777283
1772045263573345300,2.93634521484375,-0.0771818459033966,-0.676906943321228,0.7473441958427429
1772045263583331000,2.9463310546875,-0.04315037280321121,-0.6799759864807129,0.7399808764457703
1772045263593317400,2.9563173828125,-0.011070090346038342,-0.6620665192604065,0.7084798812866211
1772045263603303200,2.96630322265625,0.030590005218982697,-0.6270834803581238,0.656401515007019
1772045263613288200,2.9762880859375,0.06867597997188568,-0.5751014351844788,0.595816969871521
1772045263623274000,2.98627392578125,0.09873374551534653,-0.5260100364685059,0.5236586332321167
1772045263633260300,2.99626025390625,0.11584675312042236,-0.49118173122406006,0.45146021246910095
1772045263643246000,3.00624609375,0.12155230343341827,-0.45869436860084534,0.38120096921920776
1772045263653232000,3.016232177734375,0.11038710176944733,-0.42661771178245544,0.3151038885116577
1772045263663218200,3.02621826171875,0.09861540049314499,-0.39608749747276306,0.2549034059047699
1772045263673204200,3.036204345703125,0.09004400670528412,-0.36555346846580505,0.19290870428085327
1772045263683189200,3.046189208984375,0.10193608701229095,-0.3282415270805359,0.1238635927438736
1772045263693175000,3.056175048828125,0.1288744956254959,-0.3011253774166107,0.05581282079219818
1772045263703161300,3.066161376953125,0.17011168599128723,-0.2789740264415741,-0.007846049964427948
1772045263713147100,3.076147216796875,0.20708701014518738,-0.2563016414642334,-0.07845593243837357
1772045263723133200,3.08613330078125,0.2417488396167755,-0.23129773139953613,-0.1383861005306244
1772045263733119200,3.096119140625,0.26598429679870605,-0.1875494122505188,-0.19513432681560516
1772045263743105300,3.106105224609375,0.2851838171482086,-0.12165507674217224,-0.24695278704166412
1772045263753091000,3.116091064453125,0.2904905378818512,-0.0593360997736454,-0.2948359549045563
1772045263763076000,3.126076171875,0.29938578605651855,0.009553752839565277,-0.35682421922683716
1772045263773062100,3.136062255859375,0.3094621002674103,0.09347217530012131,-0.42753756046295166
1772045263783048200,3.146048095703125,0.3141641914844513,0.18452006578445435,-0.49845144152641296
1772045263793034200,3.1560341796875,0.3203991651535034,0.28534191846847534,-0.5498512387275696
1772045263803020300,3.166020263671875,0.33104223012924194,0.38507968187332153,-0.5852153301239014
1772045263813006000,3.176006103515625,0.32917872071266174,0.48123595118522644,-0.6138588190078735
1772045263822991000,3.1859912109375,0.33818233013153076,0.5477931499481201,-0.6138793230056763
1772045263832977400,3.195977294921875,0.33695051074028015,0.5879427194595337,-0.5763953924179077
1772045263842963200,3.205963134765625,0.332736074924469,0.577013373374939,-0.4981602430343628
1772045263852949200,3.21594921875,0.29812419414520264,0.5289301872253418,-0.39300811290740967
1772045263862935300,3.225935302734375,0.25643959641456604,0.44599586725234985,-0.26613032817840576
1772045263872921300,3.23592138671875,0.2008279412984848,0.3260730803012848,-0.1167081966996193
1772045263882907100,3.2459072265625,0.13065525889396667,0.18465283513069153,0.044532354921102524
1772045263892892200,3.25589208984375,0.05246201530098915,0.0338430255651474,0.20171576738357544
1772045263902878200,3.265878173828125,-0.032121580094099045,-0.10177099704742432,0.34277674555778503
1772045263912864300,3.2758642578125,-0.1129736453294754,-0.21967662870883942,0.4684697985649109
1772045263922850000,3.28585009765625,-0.18707796931266785,-0.312673956155777,0.5691370368003845
1772045263932836400,3.29583642578125,-0.2527071535587311,-0.3941589891910553,0.6523683667182922
1772045263942822100,3.305822265625,-0.30494609475135803,-0.44732391834259033,0.7081860899925232
1772045263952808200,3.31580810546875,-0.3515479266643524,-0.4883520305156708,0.7404986023902893
1772045263962793200,3.325793212890625,-0.4081488847732544,-0.5216420888900757,0.7474662065505981
1772045263972779300,3.335779296875,-0.461326003074646,-0.534427285194397,0.7227428555488586
1772045263982765300,3.345765380859375,-0.516822874546051,-0.535021960735321,0.6667650938034058
1772045263992751000,3.355751220703125,-0.5606641173362732,-0.5061131119728088,0.5823954939842224
1772045264002737400,3.3657373046875,-0.5893612504005432,-0.44929081201553345,0.4795069694519043
1772045264012723200,3.37572314453125,-0.6015715599060059,-0.36477044224739075,0.3549530804157257
1772045264022709200,3.385709228515625,-0.5976255536079407,-0.27082929015159607,0.22035692632198334
1772045264032694000,3.395694091796875,-0.569898247718811,-0.1637520045042038,0.08953485637903214
1772045264042680300,3.405680419921875,-0.5242117047309875,-0.05516133829951286,-0.0241637472063303
1772045264052666000,3.415666015625,-0.4700804054737091,0.042156320065259933,-0.11506021022796631
1772045264062652200,3.425652099609375,-0.41427117586135864,0.12038534134626389,-0.1812823861837387
1772045264072638200,3.43563818359375,-0.36202743649482727,0.16687257587909698,-0.22219498455524445
1772045264082624300,3.445624267578125,-0.31255337595939636,0.19129270315170288,-0.2348085194826126
1772045264092610000,3.455610107421875,-0.26629066467285156,0.1811525970697403,-0.21537648141384125
1772045264102595000,3.465594970703125,-0.22117431461811066,0.15650025010108948,-0.15878324210643768
1772045264112581400,3.475581298828125,-0.17476564645767212,0.1099281832575798,-0.08210597187280655
1772045264122567200,3.485567138671875,-0.13126637041568756,0.05401724576950073,0.01700703054666519
1772045264132553200,3.49555322265625,-0.09515900909900665,-0.007346800062805414,0.13343553245067596
1772045264142539300,3.505539306640625,-0.06138800457119942,-0.08515611290931702,0.26088374853134155
1772045264152525300,3.515525390625,-0.03576008602976799,-0.1767159253358841,0.38705432415008545
1772045264162511000,3.525510986328125,-0.016361087560653687,-0.2551782429218292,0.4949405789375305
1772045264172496400,3.535496337890625,0.008158144541084766,-0.3098585903644562,0.5862209796905518
1772045264182482200,3.545482177734375,0.037302449345588684,-0.3443361520767212,0.6641884446144104
1772045264192468200,3.55546826171875,0.07109259068965912,-0.35613611340522766,0.7220666408538818
1772045264202454000,3.5654541015625,0.10470221191644669,-0.350544273853302,0.7557106018066406
1772045264212440300,3.5754404296875,0.13928894698619843,-0.33925166726112366,0.7661989331245422
1772045264222426000,3.585426025390625,0.17095446586608887,-0.33646202087402344,0.7682674527168274
1772045264232411100,3.5954111328125,0.20587900280952454,-0.33080071210861206,0.7683526277542114
1772045264242397200,3.605397216796875,0.2453364133834839,-0.3266746699810028,0.7636013031005859
1772045264252383200,3.61538330078125,0.27878591418266296,-0.3313045799732208,0.7606338858604431
1772045264262369300,3.625369384765625,0.31532636284828186,-0.3360266387462616,0.7583315968513489
1772045264272355300,3.635355224609375,0.35043659806251526,-0.3459392189979553,0.7420331835746765
1772045264282341000,3.645341064453125,0.37623196840286255,-0.3514716625213623,0.7206048965454102
1772045264292327200,3.6553271484375,0.3897884488105774,-0.3615453839302063,0.7045847177505493
1772045264302312200,3.665312255859375,0.4022773504257202,-0.35965025424957275,0.6875175833702087
1772045264312298200,3.67529833984375,0.420216828584671,-0.33992400765419006,0.671043872833252
1772045264322284300,3.6852841796875,0.4429844617843628,-0.3181942105293274,0.6555924415588379
1772045264332270000,3.69527001953125,0.4626142382621765,-0.2952132821083069,0.6488981246948242
1772045264342256400,3.70525634765625,0.48139405250549316,-0.28602856397628784,0.6458219289779663
1772045264352242200,3.7152421875,0.5001412630081177,-0.2897423207759857,0.6490266919136047
1772045264362228200,3.725228271484375,0.5096937417984009,-0.2952001988887787,0.637881875038147
1772045264372213200,3.735213134765625,0.5068139433860779,-0.28804442286491394,0.6194548010826111
1772045264382199300,3.74519921875,0.47806647419929504,-0.29192861914634705,0.5795659422874451
1772045264392185000,3.75518505859375,0.42514607310295105,-0.2913822829723358,0.5192721486091614
1772045264402171100,3.765171142578125,0.37730103731155396,-0.2338966280221939,0.4322770833969116
1772045264412157200,3.7751572265625,0.3365463614463806,-0.16734711825847626,0.32385316491127014
1772045264422143200,3.785143310546875,0.3232835531234741,-0.09858375787734985,0.2115980088710785
1772045264432129000,3.79512890625,0.3350246250629425,0.0037422645837068558,0.11287549883127213
1772045264442114000,3.805114013671875,0.37742799520492554,0.11203305423259735,0.06109326332807541
1772045264452100400,3.815100341796875,0.43187612295150757,0.2199537605047226,0.06709102541208267
1772045264462086100,3.825086181640625,0.45995089411735535,0.31138700246810913,0.1224200651049614
1772045264472072200,3.835072265625,0.44605132937431335,0.35161828994750977,0.22025391459465027
1772045264482058200,3.845058349609375,0.3767537474632263,0.3340379595756531,0.34187835454940796
1772045264492044300,3.855044189453125,0.26213347911834717,0.25792938470840454,0.46182191371917725
1772045264502030000,3.865030029296875,0.11978138983249664,0.1555100828409195,0.5701994895935059
1772045264512015000,3.87501513671875,-0.022991729900240898,0.027752822265028954,0.6581344604492188
1772045264522001200,3.885001220703125,-0.13554038107395172,-0.10725932568311691,0.7281023263931274
1772045264531987200,3.8949873046875,-0.20258758962154388,-0.21314464509487152,0.7952198386192322
1772045264541973000,3.904972900390625,-0.2228023111820221,-0.2973911166191101,0.8702266812324524
1772045264551959300,3.914959228515625,-0.20121222734451294,-0.3765889108181,0.9531740546226501
1772045264561945000,3.924945068359375,-0.166708841919899,-0.4515502452850342,1.0498279333114624
1772045264571931100,3.93493115234375,-0.126649409532547,-0.535916268825531,1.1601661443710327
1772045264581916200,3.944916259765625,-0.09996186941862106,-0.6317413449287415,1.2740002870559692
1772045264591902200,3.954902099609375,-0.09306491911411285,-0.7303500771522522,1.387318730354309
1772045264601888300,3.96488818359375,-0.09455868601799011,-0.8309550285339355,1.5072760581970215
1772045264611874000,3.9748740234375,-0.11475509405136108,-0.91215580701828,1.6179925203323364
1772045264621860400,3.9848603515625,-0.1362670511007309,-0.9784919619560242,1.7120143175125122
1772045264631846100,3.99484619140625,-0.170058935880661,-1.0275863409042358,1.7681500911712646
1772045264641832200,4.004832275390625,-0.20871365070343018,-1.043637752532959,1.7894607782363892
1772045264651817200,4.014817138671875,-0.24610072374343872,-1.0464171171188354,1.7810672521591187
1772045264661803300,4.02480322265625,-0.27899208664894104,-1.024850606918335,1.7383387088775635
1772045264671789000,4.0347890625,-0.29543906450271606,-0.9781858921051025,1.670338749885559
1772045264681775000,4.044775146484375,-0.3044975697994232,-0.9177417159080505,1.5863112211227417
1772045264691761200,4.05476123046875,-0.2957580089569092,-0.8451094031333923,1.496878981590271
1772045264701747200,4.064747314453125,-0.28022804856300354,-0.7743292450904846,1.4106450080871582
1772045264711733000,4.07473291015625,-0.2557286024093628,-0.7129433155059814,1.3229470252990723
1772045264721718300,4.08471826171875,-0.22565460205078125,-0.6765519976615906,1.2556363344192505
1772045264731704300,4.094704345703125,-0.19445940852165222,-0.6616383194923401,1.2020962238311768
1772045264741690000,4.104690185546875,-0.16032461822032928,-0.6793086528778076,1.163727045059204
1772045264751676400,4.114676513671875,-0.13234665989875793,-0.7041535377502441,1.1402313709259033
1772045264761662200,4.124662109375,-0.09499556571245193,-0.7424820065498352,1.1340445280075073
1772045264771648300,4.134648193359375,-0.055423762649297714,-0.7853541970252991,1.1337727308273315
1772045264781634000,4.144634033203125,-0.01616743579506874,-0.8354775309562683,1.1323444843292236
1772045264791619800,4.154619873046875,0.024036286398768425,-0.8772280812263489,1.1290274858474731
1772045264801605600,4.164605712890625,0.05513055622577667,-0.8998047709465027,1.1144636869430542
1772045264811591700,4.174591796875,0.0859450250864029,-0.9110403656959534,1.09013831615448
1772045264821577500,4.184577392578125,0.10763674974441528,-0.904490053653717,1.0506553649902344
1772045264831563800,4.194563720703125,0.124183289706707,-0.8835981488227844,1.006257176399231
1772045264841549600,4.204549560546875,0.12631221115589142,-0.8518189191818237,0.9519859552383423
1772045264851535600,4.21453564453125,0.11283881217241287,-0.8169265985488892,0.8868623375892639
1772045264861521700,4.224521728515625,0.08721387386322021,-0.7683244347572327,0.8135244846343994
1772045264871506700,4.234506591796875,0.05121772736310959,-0.7154039740562439,0.7307528257369995
1772045264881492700,4.24449267578125,0.018660586327314377,-0.6490931510925293,0.6308728456497192
1772045264891478800,4.254478759765625,-0.010546509176492691,-0.5699157118797302,0.5208448171615601
1772045264901464600,4.264464599609375,-0.03106137178838253,-0.4918510317802429,0.4058612287044525
1772045264911450600,4.27445068359375,-0.039525486528873444,-0.4065895974636078,0.2738681137561798
1772045264921436700,4.284436767578125,-0.046405233442783356,-0.309780478477478,0.13700614869594574
1772045264931422700,4.294422607421875,-0.03787880390882492,-0.21671177446842194,0.0013828901574015617
1772045264941407700,4.30440771484375,-0.01577962562441826,-0.1346062570810318,-0.12713408470153809
1772045264951393500,4.3143935546875,0.013491976074874401,-0.05849001184105873,-0.25354471802711487
1772045264961379800,4.3243798828125,0.04938925802707672,0.03513288125395775,-0.36816662549972534
1772045264971365600,4.33436572265625,0.09851637482643127,0.16039486229419708,-0.46429920196533203
1772045264981351700,4.3443515625,0.13340911269187927,0.30079299211502075,-0.5300470590591431
1772045264991337700,4.354337646484375,0.13224105536937714,0.44504639506340027,-0.5663527846336365
1772045265001323800,4.36432373046875,0.08685146272182465,0.5657615661621094,-0.5839599967002869
1772045265011308500,4.37430859375,0.013441764749586582,0.6596660017967224,-0.5910084247589111
1772045265021294600,4.384294677734375,-0.07207579910755157,0.7061032652854919,-0.6018722653388977
1772045265031280600,4.39428076171875,-0.14597971737384796,0.7231296896934509,-0.5972855687141418
1772045265041266700,4.4042666015625,-0.19419384002685547,0.7102628946304321,-0.566259503364563
1772045265051252500,4.41425244140625,-0.2269512116909027,0.6740846037864685,-0.5057289600372314
1772045265061238800,4.42423876953125,-0.2555530071258545,0.6066650748252869,-0.41106554865837097
1772045265071224600,4.434224609375,-0.29861947894096375,0.5132675170898438,-0.2894067168235779
1772045265081210600,4.444210693359375,-0.3659907877445221,0.39583173394203186,-0.14909592270851135
1772045265091195600,4.454195556640625,-0.4593874216079712,0.25513777136802673,-0.012165941298007965
1772045265101181700,4.464181640625,-0.5717760324478149,0.12044520676136017,0.12292610108852386
1772045265111167700,4.474167724609375,-0.6846302151679993,0.0011962901335209608,0.2433849275112152
1772045265121153500,4.484153564453125,-0.793229341506958,-0.09774600714445114,0.3496956527233124
1772045265131139800,4.494139892578125,-0.887836754322052,-0.17705748975276947,0.4404560327529907
1772045265141125600,4.504125732421875,-0.9599402546882629,-0.23022644221782684,0.5069591999053955
1772045265151111700,4.514111572265625,-1.0087753534317017,-0.2640899419784546,0.5559548139572144
1772045265161097700,4.52409765625,-1.0351507663726807,-0.27731359004974365,0.5791741013526917
1772045265171082800,4.534082763671875,-1.043507695198059,-0.2724865972995758,0.5876955986022949
1772045265181068500,4.544068603515625,-1.0353161096572876,-0.2568328082561493,0.5790739059448242
1772045265191054600,4.5540546875,-1.0340529680252075,-0.2506537139415741,0.550695538520813
1772045265201040600,4.56404052734375,-1.035899043083191,-0.2505972683429718,0.5163769721984863
1772045265211026700,4.574026611328125,-1.0376615524291992,-0.2463952600955963,0.4718262255191803
1772045265221012500,4.584012451171875,-1.0334670543670654,-0.2336195409297943,0.42038407921791077
1772045265230998800,4.593998779296875,-1.0184345245361328,-0.20747460424900055,0.3624984920024872
1772045265240984600,4.603984619140625,-0.9815747141838074,-0.15365451574325562,0.3039683401584625
1772045265250969600,4.613969482421875,-0.9317500591278076,-0.08940324187278748,0.24425585567951202
1772045265260955600,4.62395556640625,-0.863872230052948,-0.025668736547231674,0.18593183159828186
1772045265270941700,4.633941650390625,-0.7848381400108337,0.029125606641173363,0.12765084207057953
1772045265280927700,4.643927734375,-0.6982042193412781,0.05935514718294144,0.06654301285743713
1772045265290913500,4.65391357421875,-0.6056795716285706,0.08139333873987198,0.017073199152946472
1772045265300899800,4.66389990234375,-0.5097426772117615,0.0957736074924469,-0.022010819986462593
1772045265310885600,4.6738857421875,-0.4114343523979187,0.09920388460159302,-0.05296267941594124
1772045265320871700,4.68387158203125,-0.31172189116477966,0.10116636753082275,-0.06099290773272514
1772045265330857700,4.693857666015625,-0.22404704988002777,0.09942061454057693,-0.04359777271747589
1772045265340842800,4.7038427734375,-0.15210895240306854,0.09114696830511093,-0.009110103361308575
1772045265350828500,4.71382861328125,-0.09960898756980896,0.07005127519369125,0.03569784760475159
1772045265360814600,4.723814697265625,-0.04938709735870361,0.05014920234680176,0.09237231314182281
1772045265370800600,4.733800537109375,0.0010364046320319176,0.01994531974196434,0.16223660111427307
1772045265380786700,4.74378662109375,0.05374382808804512,-0.012004624120891094,0.24774616956710815
1772045265390772500,4.7537724609375,0.11573507636785507,-0.04918428882956505,0.35873961448669434
1772045265400758800,4.7637587890625,0.16787712275981903,-0.10819567739963531,0.46670764684677124
1772045265410744600,4.77374462890625,0.21271777153015137,-0.17633569240570068,0.5720006227493286
1772045265420729600,4.7837294921875,0.23673760890960693,-0.2431967556476593,0.6576026082038879
1772045265430715600,4.793715576171875,0.24042874574661255,-0.30168819427490234,0.7260754704475403
1772045265440701700,4.80370166015625,0.22365136444568634,-0.3329145312309265,0.7753615379333496
1772045265450687700,4.813687744140625,0.19931410253047943,-0.34706738591194153,0.7973513603210449
1772045265460673500,4.823673583984375,0.17896674573421478,-0.3309856057167053,0.7882979512214661
1772045265470659800,4.833659912109375,0.15916135907173157,-0.2917485535144806,0.748235821723938
1772045265480645600,4.843645751953125,0.15806306898593903,-0.22908863425254822,0.6810290813446045
1772045265490631700,4.853631591796875,0.17191410064697266,-0.15408454835414886,0.6091313362121582
1772045265500617700,4.86361767578125,0.20938344299793243,-0.0730176568031311,0.5497865676879883
1772045265510602800,4.873602783203125,0.2582327723503113,-0.020184611901640892,0.5059505701065063
1772045265520588500,4.883588623046875,0.322847455739975,0.017151573672890663,0.4874996840953827
1772045265530574600,4.89357470703125,0.38994356989860535,0.02768522873520851,0.4901804029941559
1772045265540560600,4.903560546875,0.44527581334114075,-0.005729719530791044,0.5182445645332336
1772045265550546700,4.913546630859375,0.47527143359184265,-0.07470490038394928,0.5629342198371887
1772045265560532500,4.923532470703125,0.4849744141101837,-0.1871398389339447,0.60042405128479
1772045265570518800,4.933518798828125,0.5070152878761292,-0.2750488221645355,0.6243807077407837
1772045265580504600,4.943504638671875,0.5451338887214661,-0.3075641393661499,0.6459687948226929
1772045265590490600,4.95349072265625,0.5938524007797241,-0.3060200810432434,0.6644883751869202
1772045265600475600,4.9634755859375,0.6127483248710632,-0.3077061176300049,0.6857513189315796
1772045265610461700,4.973461669921875,0.5970191955566406,-0.32740843296051025,0.7000706195831299
1772045265620447700,4.98344775390625,0.5448633432388306,-0.3142295181751251,0.6884326338768005
1772045265630433500,4.99343359375,0.46519795060157776,-0.2766309380531311,0.6529240012168884
1772045265640419800,5.003419921875,0.37279877066612244,-0.2236119508743286,0.5897064208984375
1772045265650405600,5.013405517578125,0.2797299325466156,-0.14773356914520264,0.5208921432495117
1772045265660391700,5.0233916015625,0.18114158511161804,-0.06973011046648026,0.4634948968887329
1772045265670377700,5.033377685546875,0.07624951004981995,-0.01667444221675396,0.43027251958847046
1772045265680363800,5.04336376953125,-0.03327272832393646,0.01200194377452135,0.4362209439277649
1772045265690348500,5.0533486328125,-0.1505054533481598,0.010483549907803535,0.47704383730888367
1772045265700334600,5.06333447265625,-0.28320756554603577,-0.04139962047338486,0.5192956924438477
1772045265710320600,5.073320556640625,-0.4221614599227905,-0.11848277598619461,0.5523420572280884
1772045265720306700,5.083306640625,-0.5569448471069336,-0.17932136356830597,0.5607398152351379
1772045265730292500,5.09329248046875,-0.6778870224952698,-0.22580650448799133,0.5454392433166504
1772045265740278800,5.10327880859375,-0.7531852126121521,-0.2693651616573334,0.5179117321968079
1772045265750264600,5.1132646484375,-0.7781823873519897,-0.31872522830963135,0.5007679462432861
1772045265760250600,5.123250732421875,-0.7736262679100037,-0.34627029299736023,0.49597156047821045
1772045265770236000,5.13323583984375,-0.7897642254829407,-0.3969581723213196,0.4925360083580017
1772045265780221700,5.1432216796875,-0.8187428712844849,-0.4206898808479309,0.49203479290008545
1772045265790207500,5.15320751953125,-0.8707717657089233,-0.412476122379303,0.4934464693069458
1772045265800193300,5.163193359375,-0.9195038676261902,-0.3489956855773926,0.48232752084732056
1772045265810179300,5.173179443359375,-0.9707883596420288,-0.2277544140815735,0.44089004397392273
1772045265820165400,5.183165283203125,-1.0413717031478882,-0.062290873378515244,0.3641662299633026
1772045265830151400,5.1931513671875,-1.125368356704712,0.16695107519626617,0.2590964734554291
1772045265840137200,5.20313720703125,-1.2261871099472046,0.4143020212650299,0.12248508632183075
1772045265850123500,5.21312353515625,-1.3211901187896729,0.6929963827133179,-0.026361506432294846
1772045265860109300,5.223109375,-1.40388023853302,1.0069689750671387,-0.17176850140094757
1772045265870094300,5.23309423828125,-1.4753296375274658,1.3313038349151611,-0.32196900248527527
1772045265880080100,5.243080078125,-1.526597023010254,1.6583642959594727,-0.46643534302711487
1772045265890066400,5.25306640625,-1.5567560195922852,2.0127341747283936,-0.5877164006233215
1772045265900052200,5.26305224609375,-1.5932613611221313,2.354670763015747,-0.6832482218742371
1772045265910038300,5.273038330078125,-1.6507012844085693,2.668323516845703,-0.7597975134849548
1772045265920024300,5.2830244140625,-1.7309718132019043,2.9613687992095947,-0.8047212958335876
1772045265930010400,5.29301025390625,-1.811418890953064,3.2028894424438477,-0.8013222217559814
1772045265939996200,5.30299609375,-1.8766255378723145,3.4138152599334717,-0.7611724138259888
1772045265949981200,5.312981201171875,-1.9181560277938843,3.5709726810455322,-0.7119194269180298
1772045265959967500,5.322967529296875,-1.9609713554382324,3.675475597381592,-0.6743677854537964
1772045265969953300,5.332953369140625,-2.005622625350952,3.741516351699829,-0.6632803082466125
1772045265979938300,5.342938232421875,-2.040698766708374,3.7651009559631348,-0.6758863925933838
1772045265989924000,5.352924072265625,-2.051152467727661,3.8056111335754395,-0.6822471618652344
1772045265999910400,5.362910400390625,-2.0462541580200195,3.895866632461548,-0.6611109972000122
1772045266009896200,5.372896240234375,-2.029176712036133,4.018299102783203,-0.6154912114143372
1772045266019882200,5.38288232421875,-1.9996373653411865,4.142364501953125,-0.5731879472732544
1772045266029868300,5.392868408203125,-1.9290928840637207,4.256070613861084,-0.525406539440155
1772045266039854300,5.402854248046875,-1.8535352945327759,4.349911212921143,-0.4614531397819519
1772045266049840000,5.412840087890625,-1.782859444618225,4.518131256103516,-0.3783336579799652
1772045266059826400,5.422826416015625,-1.7196117639541626,4.689912796020508,-0.31413495540618896
1772045266069811500,5.4328115234375,-1.6456164121627808,4.681381702423096,-0.23575469851493835
1772045266079797200,5.44279736328125,-1.5646650791168213,4.559891223907471,-0.12714938819408417
1772045266089783300,5.452783203125,-1.4819023609161377,4.391414642333984,-0.02978132851421833
1772045266099769300,5.462769287109375,-1.4110337495803833,4.228564262390137,0.03308818116784096
1772045266109755400,5.47275537109375,-1.3561643362045288,4.096187114715576,0.06206770986318588
1772045266119741200,5.4827412109375,-1.330898642539978,3.973452568054199,0.06413831561803818
1772045266129727500,5.4927275390625,-1.337723970413208,3.8178632259368896,0.05928805097937584
1772045266139713300,5.50271337890625,-1.3703312873840332,3.618394136428833,0.0836314782500267
1772045266149699300,5.51269921875,-1.3995535373687744,3.4701318740844727,0.10508156567811966
1772045266159684000,5.52268408203125,-1.395792841911316,3.243025541305542,0.0762760192155838
1772045266169670400,5.53267041015625,-1.3038722276687622,2.7876832485198975,-0.016500117257237434
1772045266179656200,5.54265625,-1.143242597579956,2.3437623977661133,-0.06880273669958115
1772045266189642200,5.552642333984375,-0.9887611865997314,2.1382267475128174,0.027210764586925507
1772045266199628300,5.562628173828125,-0.8809329867362976,2.12457537651062,0.21670691668987274
1772045266209614300,5.5726142578125,-0.7868385314941406,2.1387319564819336,0.3543975055217743
1772045266219600100,5.58260009765625,-0.673099935054779,2.1635000705718994,0.37832069396972656
1772045266229586400,5.59258642578125,-0.5389983654022217,2.2211098670959473,0.3527202308177948
1772045266239572200,5.602572265625,-0.39323073625564575,2.2404088973999023,0.33739346265792847
1772045266249557200,5.61255712890625,-0.25418898463249207,2.1187384128570557,0.3284628391265869
1772045266259543300,5.622543212890625,-0.13399864733219147,1.872086763381958,0.2917168140411377
1772045266269529300,5.632529296875,-0.054497189819812775,1.5944381952285767,0.2601858973503113
1772045266279515400,5.642515380859375,-0.02053815685212612,1.4571812152862549,0.2382880449295044
1772045266289501200,5.652501220703125,-0.015093810856342316,1.426864743232727,0.22156430780887604
1772045266299487200,5.6624873046875,-0.022388475015759468,1.441675066947937,0.2141769677400589
1772045266309473300,5.672473388671875,-0.034541428089141846,1.4362914562225342,0.18637722730636597
1772045266319459000,5.682458984375,-0.07759276032447815,1.4182759523391724,0.14937765896320343
1772045266329445400,5.6924453125,-0.18891353905200958,1.3543306589126587,0.09787563234567642
1772045266339431200,5.70243115234375,-0.31973251700401306,1.1709704399108887,0.07736583054065704
1772045266349417200,5.712417236328125,-0.40010878443717957,1.029076099395752,0.08597689867019653
1772045266359402200,5.72240234375,-0.39521336555480957,0.9632692933082581,0.10661506652832031
1772045266369388300,5.73238818359375,-0.30871185660362244,0.9372785091400146,0.14154617488384247
1772045266379374300,5.742374267578125,-0.17298917472362518,0.9331988096237183,0.19433721899986267
1772045266389360000,5.752360107421875,-0.005564030259847641,0.9256041646003723,0.21356919407844543
1772045266399346400,5.762346435546875,0.18407860398292542,0.9160351753234863,0.2093009352684021
1772045266409332200,5.772332275390625,0.3589109182357788,0.9790596961975098,0.21800430119037628
1772045266419318300,5.782318359375,0.4868837893009186,1.0705161094665527,0.2215726673603058
1772045266429304300,5.79230419921875,0.5574946403503418,1.1812748908996582,0.19934237003326416
1772045266439290400,5.802290283203125,0.5753058791160583,1.3094379901885986,0.1383780837059021
1772045266449276200,5.812276123046875,0.5512643456459045,1.4280112981796265,0.0655611976981163
1772045266459261200,5.82226123046875,0.5096796154975891,1.5013526678085327,-0.017929429188370705
1772045266469247200,5.832247314453125,0.43293434381484985,1.48739492893219,-0.10313024371862411
1772045266479233300,5.8422333984375,0.30062901973724365,1.324375867843628,-0.17171649634838104
1772045266489219000,5.852218994140625,0.10683208703994751,1.0683629512786865,-0.23232832551002502
1772045266499205400,5.862205322265625,-0.11452720314264297,0.8372272253036499,-0.28410762548446655
1772045266509191200,5.872191162109375,-0.3134000897407532,0.6852413415908813,-0.33580780029296875
1772045266519177200,5.88217724609375,-0.4320543110370636,0.6303647756576538,-0.39381998777389526
1772045266529163300,5.892163330078125,-0.45717930793762207,0.6497095227241516,-0.4327574074268341
1772045266539148300,5.902148193359375,-0.41857174038887024,0.7572115063667297,-0.45316681265830994
1772045266549134300,5.91213427734375,-0.3390609920024872,0.9425550699234009,-0.46573275327682495
1772045266559120100,5.9221201171875,-0.2666057050228119,1.2033463716506958,-0.45963066816329956
1772045266569106400,5.9321064453125,-0.17137211561203003,1.384928822517395,-0.44459185004234314
1772045266579092200,5.94209228515625,-0.0393349751830101,1.3602991104125977,-0.4097859263420105
1772045266589078300,5.952078369140625,0.07475917786359787,1.1834386587142944,-0.3702501952648163
1772045266599064300,5.962064208984375,0.14691726863384247,0.9669076204299927,-0.322677880525589
1772045266609050400,5.97205029296875,0.2254893034696579,0.8053991794586182,-0.24176783859729767
1772045266619036200,5.9820361328125,0.3319867253303528,0.7574449181556702,-0.07617329806089401
1772045266629021400,5.992021484375,0.4151301383972168,0.6964105367660522,0.09943990409374237
1772045266639007200,6.00200732421875,0.4489235281944275,0.6201568245887756,0.2718484103679657
1772045266648993300,6.0119931640625,0.4065402150154114,0.48814669251441956,0.42859989404678345
1772045266658979000,6.02197900390625,0.34115883708000183,0.3306784927845001,0.5639321804046631
1772045266668965400,6.03196533203125,0.2891136705875397,0.181094691157341,0.6590127348899841
1772045266678951200,6.041951171875,0.297003835439682,0.06288255751132965,0.6940839290618896
1772045266688937200,6.051937255859375,0.3551543653011322,-0.0026143835857510567,0.6599928736686707
1772045266698923300,6.06192333984375,0.42855241894721985,-0.00004896067548543215,0.5764191746711731
1772045266708909300,6.071909423828125,0.5224246382713318,0.11039894074201584,0.46111512184143066
1772045266718894300,6.081894287109375,0.6275092959403992,0.3544755280017853,0.3320183753967285
1772045266728880400,6.09188037109375,0.6929201483726501,0.530079185962677,0.2075454294681549
1772045266738866400,6.101866455078125,0.768690824508667,0.6251598596572876,0.09716353565454483
1772045266748852200,6.111852294921875,0.8371685743331909,0.6715087294578552,0.007095739245414734
1772045266758838300,6.12183837890625,0.8765535354614258,0.7021867632865906,-0.04738055169582367
