time,seconds_elapsed,z,y,x
1772048343033277000,0.07227685546875,0.06992284653186798,0.0026276450898498295,-0.043441018387535585
1772048343043228200,0.082228271484375,0.04612111518383026,-0.002026537391543388,-0.02914706758150132
1772048343053179100,0.09217919921875,0.06723346131742,0.008201938090845943,-0.035816286529600616
1772048343063129000,0.102129150390625,0.08159399510324,0.00602773585692048,-0.05765136658032424
1772048343073080000,0.112080078125,0.04657353512644768,-0.0012199702490121125,-0.0444773756979499
1772048343083031300,0.12203125,0.04043722432851791,0.008522183021157979,-0.0264605775770382
1772048343092981000,0.13198095703125,0.07201075872182845,0.009690642278641462,-0.033835428610420784
1772048343102932200,0.14193212890625,0.08039104905426502,0.008773015977069734,-0.046025965979974715
1772048343112883200,0.15188330078125,0.056899698829650874,0.011453852558881044,-0.04824797114469111
1772048343122834200,0.161834228515625,0.062440966343879696,0.012744696087017655,-0.044912186918640504
1772048343132784000,0.1717841796875,0.06544073268175125,0.011418196723610162,-0.030904713487345723
1772048343142735000,0.181735107421875,0.06603986761868,0.014248305583000182,-0.04611948948232457
1772048343152686000,0.19168603515625,0.08248188385367393,0.0013814444210380316,-0.04898095702778082
1772048343162636000,0.201635986328125,0.06556523584425449,0.008699293153733014,-0.029962315787409897
1772048343172587300,0.211587158203125,0.04014320981800556,0.0052766982939094305,-0.04061185024306178
1772048343182538000,0.2215380859375,0.058708794078230854,0.00914192235469818,-0.051195249243499705
1772048343192488200,0.23148828125,0.07695698295235634,0.0049357759017497295,-0.05518168396458495
1772048343202439200,0.241439208984375,0.064083472853899,-0.005314984477683901,-0.03164755861074663
1772048343212390100,0.25139013671875,0.06557867984771729,-0.009186857474967837,-0.03963022336114663
1772048343222340000,0.261340087890625,0.05869359650909901,0.0022006518494337795,-0.037191639136569574
1772048343232291000,0.271291015625,0.05929156240224838,0.00804820883385837,-0.037205156205268576
1772048343242242000,0.281241943359375,0.05450725073516369,0.006634250382706522,-0.0444793347595958
1772048343252192000,0.29119189453125,0.06946808850169181,0.004870528645813465,-0.04714267221733462
1772048343262143200,0.301143310546875,0.05824585274159908,0.011574556329101324,-0.03491492637624032
1772048343272094000,0.311093994140625,0.07500292627513408,0.008017521434649824,-0.04545743167728651
1772048343282044200,0.321044189453125,0.08397475275993346,0.010665478660166263,-0.04652794241905212
1772048343291995100,0.3309951171875,0.06107143155634403,0.00495090040564537,-0.041948391509870994
1772048343301943000,0.340943115234375,0.05299859973788261,0.003319865137711167,-0.03038564891614951
1772048343311893200,0.350893310546875,0.07080021388828754,-0.005582330176979303,-0.042714348080800844
1772048343321844200,0.36084423828125,0.06541442919671535,-0.0055956280499696726,-0.04053110859047156
1772048343331795200,0.370795166015625,0.05913198792636394,0.0027506869476288556,-0.03205049512214027
1772048343341745200,0.3807451171875,0.04925122990310192,0.005372267622873187,-0.031104893968254325
1772048343351696100,0.390696044921875,0.05389058014154434,0.006248392870277166,-0.03793311428679153
1772048343361647000,0.400647216796875,0.07200082184970379,0.004983779761940241,-0.04265291391687933
1772048343371597000,0.41059716796875,0.07648761187493801,-0.001122355093434453,-0.0464355925270589
1772048343381548300,0.42054833984375,0.06436755049228668,0.0043995501331984994,-0.037594858775753526
1772048343391499000,0.4304990234375,0.061525605064630506,0.0021320435926318166,-0.041511146303499113
1772048343401450200,0.4404501953125,0.07454407659173011,0.005578969176113605,-0.038603063137340354
1772048343411400200,0.450400146484375,0.07649521065950393,-0.00034508711062371727,-0.0350561797441449
1772048343421351200,0.46035107421875,0.06273614989817142,0.0007210077509284019,-0.045868199868686496
1772048343431302100,0.47030224609375,0.0643798254519701,0.014078355843573807,-0.03599586718047503
1772048343441252400,0.48025244140625,0.057041737648844716,0.0012939122680574655,-0.04559842018370982
1772048343451203000,0.490203125,0.07365443427562714,0.008128288332745433,-0.037893969586491584
1772048343461154300,0.500154296875,0.08443067983388901,0.01017871805652976,-0.046657770210644225
1772048343471104300,0.510104248046875,0.05553717830479145,0.013680954023823142,-0.04531695462751668
1772048343481055200,0.52005517578125,0.04146715189814568,0.011207988039031624,-0.03730167081572581
1772048343491006200,0.530006103515625,0.07753039892613887,0.005372194557636976,-0.03931769594640937
1772048343500956200,0.5399560546875,0.07528583486974239,0.008053323400393128,-0.03976420673804823
1772048343510907100,0.5499072265625,0.05195405912101268,0.0015952333021908998,-0.0386020036914153
1772048343520858000,0.559858154296875,0.07275894674062729,0.0030174481250345706,-0.043937103941943494
1772048343530808300,0.569808349609375,0.07993512198030948,0.004317497872933745,-0.0381273719169898
1772048343540759000,0.579759033203125,0.06557283462882041,0.0009882803849875926,-0.03807159117572009
1772048343550710300,0.589710205078125,0.06707388684153556,-0.009553864156454801,-0.041509114176617
1772048343560660200,0.59966015625,0.06213292330801486,0.00141505442969501,-0.03716759610727895
1772048343570611200,0.609611083984375,0.060789692005515095,0.005854644312337041,-0.03807752772616222
1772048343580562200,0.619562255859375,0.07352525493800639,0.006805076904967427,-0.041689069286826995
1772048343590513200,0.62951318359375,0.06979191362857819,0.00981996774673462,-0.04267178301413078
1772048343600463000,0.639463134765625,0.0738344670176506,0.007546469856798649,-0.039920639408775604
1772048343610414000,0.6494140625,0.08581482766866684,0.004858619012311101,-0.03467948278570548
1772048343620365000,0.659364990234375,0.07640402524471282,-0.001536927243694663,-0.03685868085515685
1772048343630315000,0.66931494140625,0.0411176078081131,0.01056494089514017,-0.03645716454929206
1772048343640266200,0.679266357421875,0.036519174101948736,0.003927475642040372,-0.03818717581282835
1772048343650217000,0.689217041015625,0.0565934093594551,0.0272195769675076,-0.03685627426893916
1772048343660167200,0.699167236328125,0.06769055743515491,0.0076942808296531435,-0.03724827839436475
1772048343670118100,0.7091181640625,0.07896013946831226,-0.0014428922846913337,-0.03548645178703591
1772048343680069000,0.719069091796875,0.0891711523592472,0.01083477081246674,-0.028826276945206335
1772048343690019000,0.72901904296875,0.06764496472775935,0.07692147324755787,-0.059263304422143843
1772048343699970300,0.73897021484375,0.0654033232808113,-0.06914316739626228,-0.023920754617825148
1772048343709921000,0.748921142578125,0.11284662697911262,0.022447613325342536,-0.061710633642179887
1772048343719871000,0.75887109375,0.06871405526399613,0.010428308903425932,-0.026026777853211388
1772048343729822200,0.768822265625,0.036115853998064995,-0.02154080067873001,-0.054647946980642154
1772048343739773000,0.77877294921875,0.09102876292467117,0.01399871473610401,-0.0609158619687194
1772048343749724200,0.78872412109375,0.10568389574289322,0.004288125647976994,-0.05033426219972316
1772048343759674000,0.798674072265625,0.05899345623850822,0.004040507562458515,-0.02872997696388047
1772048343769625000,0.808625,0.03638824119865894,-0.010190554624795914,-0.04155554256765172
1772048343779576000,0.818576171875,0.074217913377285,-0.021680866736546157,-0.04703047141397837
1772048343789526300,0.8285263671875,0.10383096135258674,-0.00928220760822296,-0.03728670614203438
1772048343799477000,0.83847705078125,0.08764671927094458,-0.012910992564633487,-0.04503548450474627
1772048343809428200,0.84842822265625,0.050208092236518856,-0.004953165427967906,-0.0345690218482865
1772048343819378200,0.858378173828125,0.05286006805002689,0.011139452847465873,-0.03081521770614199
1772048343829329200,0.8683291015625,0.11769172892272471,-0.00805346953086555,-0.039187146635609675
1772048343839280000,0.878280029296875,0.13988251794278622,-0.0038999300479888913,-0.064525700196065
1772048343849230000,0.88822998046875,-0.08714169235825538,0.0010052315197885036,-0.0056313341175904495
1772048343859181000,0.89818115234375,0.05397358224987983,-0.01903122901059687,0.024710818150127305
1772048343869132000,0.908132080078125,0.15586159284114837,0.012620631315931677,-0.05979983158479445
1772048343879083300,0.918083251953125,0.022041735938191413,0.04090988334156573,-0.07975264155287295
1772048343889033000,0.928032958984375,0.0036363106757402418,0.012129632928594945,-0.0255118643007474
1772048343898984200,0.937984130859375,0.050636546781659124,0.010620397409424186,0.01811224643557798
1772048343908935200,0.94793505859375,0.06836860282719134,0.024864099882543084,-0.03059104442829266
1772048343918885000,0.957885009765625,0.06364391239285469,0.027775457284599542,-0.08249061514940112
1772048343928836000,0.967836181640625,0.06994739645123481,0.032804683623462914,-0.061423464430985036
1772048343938787300,0.977787353515625,0.07430734522640704,0.01602269484438002,-0.028044702680036424
1772048343948737000,0.987737060546875,0.11832535065114498,0.032233313476294274,-0.052137315866583954
1772048343958688300,0.997688232421875,0.09916296954154968,0.03256101106069982,-0.07072897071640473
1772048343968639200,1.00763916015625,0.046325697845220566,0.017428469989076257,-0.04281201803530566
1772048343978589200,1.017589111328125,0.0578571456849575,0.006945727484673261,-0.03795917574323248
1772048343988540200,1.0275400390625,0.09945113883316516,0.010272095428407192,-0.038415705605386756
1772048343998491100,1.0374912109375,0.19815175155997275,0.025729484540224074,-0.0651404665269656
1772048344008441000,1.047441162109375,0.11041969209313392,-0.017667393311485646,-0.04893082970916293
1772048344018392000,1.05739208984375,-0.08830021474361419,-0.016943024559691548,-0.008206111942464485
1772048344028343300,1.06734326171875,0.10367840113937854,-0.014130889748409389,-0.00841323818739038
1772048344038294000,1.0772939453125,0.06405073962807654,-0.01886887805573642,-0.03520601371072698
1772048344048244200,1.087244140625,-0.0822474905759096,-0.0011086188290268181,-0.0423754395492142
1772048344058195200,1.0971953125,-0.004137830457091331,0.0073648296795785426,-0.05131862902799621
1772048344068146200,1.107146240234375,0.08655424785912036,-0.04163023350536823,-0.04861823836234398
1772048344078096100,1.11709619140625,0.10606675758063792,-0.017247925790399313,-0.03571511857691221
1772048344088047000,1.127047119140625,0.028436405411362647,0.001121916702017188,-0.023730579507700165
1772048344097998000,1.136998046875,0.06704582979083061,0.010086801989376544,-0.04330845521616283
1772048344107948000,1.146947998046875,0.1536684667110443,0.0015464987896382809,-0.0409455026442185
1772048344117899300,1.156899169921875,0.13136603401005267,0.004045987455174327,-0.04354067480314988
1772048344127850000,1.16685009765625,-0.003739771050214767,0.008246434819698334,-0.033643317271536216
1772048344137801200,1.17680126953125,0.052225861799716944,0.00030986966677010056,-0.046809700236190105
1772048344147751200,1.186751220703125,0.09292787454426288,0.004548968541249632,-0.049249485470587384
1772048344157702100,1.1967021484375,0.08560323074460029,0.005184855291992425,-0.0244299553821329
1772048344167653000,1.206653076171875,0.08351239594519137,-0.0009969751480966805,-0.04336816778045613
1772048344177603300,1.216603271484375,0.06674655458331108,0.017233605004101992,-0.037568157998495735
1772048344187554000,1.226553955078125,0.0769061295479536,0.02498787239268422,-0.036511292189592495
1772048344197505300,1.23650537109375,0.08736264163255691,0.011659165872633456,-0.0424535554198781
1772048344207455200,1.246455322265625,0.08300853807628154,0.021926365930214523,-0.03918933402611874
1772048344217406000,1.256406005859375,0.049318449920415876,0.010616013495251536,-0.04492025606066454
1772048344227357200,1.266357177734375,0.05274024106264114,0.015437150041386485,-0.04077010954469442
1772048344237307100,1.27630712890625,0.0633422990977764,0.020726196360215544,-0.04452834783336147
1772048344247258000,1.286258056640625,0.05270516974925995,0.01613024687208235,-0.04569734138038475
1772048344257209000,1.296208984375,0.06691431236565112,0.014161796343326568,-0.054447921763360496
1772048344267160000,1.30616015625,0.0508902292817831,0.004947831665724515,-0.03661470689829439
1772048344277110000,1.316110107421875,0.04775602290928364,0.005382789016887545,-0.029635593167250042
1772048344287061200,1.326061279296875,0.05958440786898136,0.0020952187135815617,-0.03805743478620425
1772048344297012000,1.336011962890625,0.045375265252590176,0.003456277933716774,-0.03711908079043496
1772048344306962000,1.3459619140625,0.03880640825629234,-0.0008360124327242374,-0.046119800009578465
1772048344316913000,1.355912841796875,0.07682546552717685,-0.0053477177035063505,-0.043940341645223084
1772048344326864100,1.365864013671875,0.059167059239745134,0.009010843320935965,-0.026135302561870775
1772048344336813800,1.375813720703125,0.04930091426372528,-0.007028072005882859,-0.03458014146392233
1772048344346765000,1.38576513671875,0.06263853474259376,-0.0037454701386392115,-0.0383329089930281
1772048344356716000,1.395716064453125,0.07627659947276115,0.01476027369312942,-0.03471919374158606
1772048344366667000,1.4056669921875,0.07075695926845073,0.010136340219527482,-0.03610004907415714
1772048344376617000,1.415616943359375,0.07210778935551643,-0.002048530027642846,-0.03885704246498644
1772048344386568200,1.425568115234375,0.07689385458827018,0.0014209727138280869,-0.039367562970123254
1772048344396519000,1.435518798828125,0.07269581837654113,0.005730652606487274,-0.04007235023861285
1772048344406468900,1.44546875,0.06102408528327941,0.000019289222359657286,-0.03499938978930004
1772048344416420000,1.455420166015625,0.06267126796841621,0.0029852994211018082,-0.03578246189181227
1772048344426370800,1.465370849609375,0.058925651699304575,0.008896203965321182,-0.03981057576357853
1772048344436321000,1.475321044921875,0.06564648438692093,-0.002283873153477907,-0.0458985447746003
1772048344446272000,1.48527197265625,0.07162205166518688,-0.002734393399953842,-0.04658850893329363
1772048344456223000,1.495222900390625,0.0690635993540287,0.00004997662156820297,-0.03941103678566869
1772048344466173000,1.5051728515625,0.06068097093403339,-0.002003960233554244,-0.03698223416958935
1772048344476124200,1.515124267578125,0.07100947272479534,-0.0026566519886255264,-0.03902660861192271
1772048344486075000,1.525074951171875,0.05469605130553245,0.006487170062214135,-0.033596756449760866
1772048344496026000,1.535026123046875,0.04931026661396026,0.006321896497905254,-0.03831334577603265
1772048344505976000,1.54497607421875,0.0602320581227541,0.005450155164673924,-0.043142359667946585
1772048344515927000,1.554927001953125,0.06890870105326176,0.011033508254960179,-0.04294018815935124
1772048344525878000,1.5648779296875,0.06188391698300838,0.006860752614960074,-0.04062373247710056
1772048344535828000,1.574827880859375,0.05709609818458557,0.007745718755945563,-0.044200842045200986
1772048344545779000,1.584779052734375,0.06113397539854049,0.007937003544345497,-0.036051405893149785
1772048344555730000,1.59472998046875,0.05753624316751957,0.005346256398782134,-0.0299090580800781
1772048344565680000,1.60468017578125,0.06247428409159183,0.00654343029409647,-0.028365194205520673
1772048344575630800,1.614630859375,0.060088850259780884,0.0035693829193711277,-0.038553908499679525
1772048344585582000,1.62458203125,0.06068447806537151,-0.0008749562036246061,-0.03769126835493371
1772048344595532800,1.63453271484375,0.06981003380715847,0.012196999076381325,-0.04124304711895529
1772048344605483000,1.64448291015625,0.06890987009704112,0.008214870637655258,-0.04344745726147666
1772048344615434000,1.65443408203125,0.05977730009257793,0.003649024026840925,-0.035012212738255034
1772048344625385000,1.664385009765625,0.06965455098450184,0.010528262146562337,-0.04140769506217912
1772048344635335000,1.6743349609375,0.07397767488062382,0.005394990911334753,-0.03866781263635494
1772048344645286100,1.6842861328125,0.06918342634141444,0.0008459493048489094,-0.03731405080668628
1772048344655236900,1.69423681640625,0.060493923929333684,-0.00857369401268661,-0.03433319923183881
1772048344665186800,1.704186767578125,0.05465630381703376,-0.00003828618377447128,-0.03359661488586571
1772048344675138000,1.714137939453125,0.046726095339655875,0.00008979717530310154,-0.03197005943022668
1772048344685088800,1.7240888671875,0.074853873193264,-0.00013363631702959536,-0.03341829917689319
1772048344695040000,1.7340400390625,0.08517243811190128,0.0007152355972677469,-0.03546696620185394
1772048344704990000,1.743989990234375,0.06541150658726692,0.004747779048979282,-0.031448122481931934
1772048344714941000,1.75394091796875,0.07304711603224277,0.005737739934399724,-0.036811622276459816
1772048344724892000,1.763891845703125,0.0856026462227106,0.00939670083336532,-0.03695393965686671
1772048344734842000,1.773842041015625,0.061952890565991396,0.0027708529528230426,-0.028465873534441924
1772048344744792800,1.783792724609375,0.05343231498003006,0.003974310458451509,-0.03372332370518707
1772048344754744000,1.793744140625,0.06854688200354575,0.003064794398099184,-0.04338141085451934
1772048344764694000,1.803694091796875,0.06391279246211051,0.008966200461611151,-0.042263722803047854
1772048344774645000,1.81364501953125,0.061217562028765674,0.0062907707072794436,-0.03517064100324642
1772048344784596000,1.823595947265625,0.06062134970128536,0.005064955239370465,-0.04337962532280944
1772048344794547200,1.833547119140625,0.06063362466096878,0.003678615447506308,-0.03570277055199258
1772048344804497000,1.843496826171875,0.07320552146434783,0.010982435654848813,-0.03460817111516371
1772048344814447900,1.85344775390625,0.0727490098685026,-0.0011642945390194653,-0.036613693118141964
1772048344824399000,1.863399169921875,0.06106967799067497,0.01046637589149177,-0.03577700026540551
1772048344834348800,1.873348876953125,0.05732756885290145,0.008846446539461612,-0.03511550871594809
1772048344844300000,1.883300048828125,0.07782032178342342,0.011063465001806615,-0.04285342775792814
1772048344854251000,1.8932509765625,0.05567629451453685,0.0065339318133890625,-0.033111516516353
1772048344864201000,1.903200927734375,0.049104514908790586,0.0036423750903457402,-0.03828151673250831
1772048344874152000,1.91315185546875,0.06646598407626152,-0.0006119213532656431,-0.048689426735299635
1772048344884103200,1.923103271484375,0.07543547247350216,0.0035881606850773095,-0.04614813105491921
1772048344894054000,1.933053955078125,0.06839256822466849,0.010787059213221073,-0.035107900798227634
1772048344904003800,1.94300390625,0.06151099201738834,0.007173691021651029,-0.04101001011463813
1772048344913955000,1.952955078125,0.07048281850218772,0.008767755280062555,-0.03515843454222194
1772048344923906000,1.962906005859375,0.07674713959395885,0.0018999153371900318,-0.03834001915382687
1772048344933856000,1.97285595703125,0.07239420508146285,-0.005674611570313573,-0.02899607142100576
1772048344943807000,1.982806884765625,0.06205693546235561,0.002297024895995855,-0.04052434548954479
1772048344953758000,1.992758056640625,0.05322656327486038,0.0017246318355202675,-0.037924497155495916
1772048344963708000,2.0027080078125,0.0695388156503439,-0.003547098022326827,-0.031485020426218396
1772048344973659100,2.0126591796875,0.06670680709481239,-0.001627747332304716,-0.035408902171952646
1772048344983609900,2.02260986328125,0.056389411219954486,-0.0020501374628394842,-0.03443313420866616
1772048344993561000,2.03256103515625,0.059541737771034234,-0.0020570055950433013,-0.03318670977756846
1772048345003511000,2.042510986328125,0.07406301507651805,-0.0074004855148494236,-0.043077596469200216
1772048345013462000,2.0524619140625,0.06492927602827549,0.007662205190956592,-0.04109637322383933
1772048345023413000,2.0624130859375,0.06537935788333415,0.0028638649985194206,-0.04063398900963366
1772048345033363000,2.072363037109375,0.06672784988284111,0.005385638561099767,-0.028078678014874455
1772048345043314000,2.08231396484375,0.06283785670697689,0.002234919445216656,-0.02858605214827694
1772048345053265000,2.092264892578125,0.06373275972008705,-0.0011667787570506334,-0.03075716737597249
1772048345063215000,2.102215087890625,0.07181202127933502,0.015598697278648615,-0.032990273890015666
1772048345073165800,2.112165771484375,0.06193710847496986,0.011975392214953898,-0.03474961627931334
1772048345083117000,2.122116943359375,0.0683709409147501,-0.004167494942992926,-0.041062521186587396
1772048345093067800,2.13206787109375,0.07000818672776221,0.0036038697108626365,-0.038460133835580196
1772048345103018000,2.14201806640625,0.059684945634007454,0.007464490661770105,-0.03459754925644956
1772048345112969000,2.151968994140625,0.055199909174442285,0.0021675532974302766,-0.03814648304283619
1772048345122920000,2.161919921875,0.04937281045615673,0.006671221392229199,-0.043157401973451484
1772048345132870000,2.171869873046875,0.05999474223554134,0.008503186059743165,-0.0407510760506615
1772048345142821000,2.181821044921875,0.06388941158652305,0.005895560844615101,-0.040285339968744664
1772048345152771800,2.191771728515625,0.07167232054769992,0.014696780002862214,-0.04347972926299553
1772048345162721800,2.2017216796875,0.05715221228599548,-0.0015284516762942074,-0.03811310592961963
1772048345172673000,2.211673095703125,0.059848611763119695,0.007550488444790244,-0.03765498233200051
1772048345182623700,2.221623779296875,0.06508651241660118,0.014434037413448094,-0.04234439595697913
1772048345192575000,2.231574951171875,0.06118716689050197,0.006192424899339676,-0.037762794654606836
1772048345202525000,2.24152490234375,0.0565454785645008,0.0018799685277044772,-0.040859276532335204
1772048345212476000,2.251475830078125,0.060143795317411416,0.005194499903172254,-0.03294575432827696
1772048345222427000,2.261427001953125,0.05280804560184479,0.004352934512495995,-0.033756650586053726
1772048345232377000,2.271377197265625,0.06298048004806041,0.004989405785128474,-0.0343527076499071
1772048345242327800,2.281327880859375,0.07240180386602878,-0.0050911856591701506,-0.03911998598380014
1772048345252279000,2.291279052734375,0.05908464165329933,0.006270166310667991,-0.027639222585107197
1772048345262229000,2.30122900390625,0.05310732080936432,0.007951835787296295,-0.03378111374045256
1772048345272180000,2.311179931640625,0.07256371642947197,0.002971051700040698,-0.041731113763689064
1772048345282131000,2.321130859375,0.052343935221433636,0.005646116128191351,-0.041981225200393234
1772048345292082200,2.331082275390625,0.0503846178472042,0.009012523821368813,-0.037220390307018535
1772048345302032000,2.341031982421875,0.06369651936292647,0.0002758943319320679,-0.035502147113089445
1772048345311983000,2.350983154296875,0.060092941913008686,-0.0008763444431126117,-0.0369105617394438
1772048345321934300,2.360934326171875,0.05380348637998104,0.012052695234864949,-0.03304207714248914
1772048345331884000,2.370884033203125,0.0702700525343418,0.004040288366749883,-0.035182381673390044
1772048345341835300,2.380835205078125,0.0677303049236536,0.005924567743390798,-0.03586676547466777
1772048345351786200,2.3907861328125,0.04963000008761882,0.004477583805471658,-0.028042241294891572
1772048345361736200,2.400736083984375,0.07327449504733086,-0.004993935829773545,-0.040430584525177254
1772048345371687200,2.410687255859375,0.07417641232311725,0.0007846475716680287,-0.03824899356923997
1772048345381638400,2.420638427734375,0.03826514098644256,0.004949439100921153,-0.03031155163347721
1772048345391589000,2.430589111328125,0.0414005164027214,-0.00376841262280941,-0.04024474766345229
1772048345401539300,2.440539306640625,0.07116904720067978,0.010738543896377087,-0.03607280944078229
1772048345411490300,2.450490234375,0.07311375152766704,0.0083481416285038,-0.04137739125546068
1772048345421441300,2.460441162109375,0.0563537553846836,-0.009298062764480709,-0.033692686538328416
1772048345431391200,2.47039111328125,0.050506782922148705,-0.00253982067592442,-0.033897707591135987
1772048345441342200,2.48034228515625,0.06037701955139636,0.005331424155831337,-0.03433497563039418
1772048345451293200,2.490293212890625,0.07085223633646964,0.015641221246123313,-0.031905140967853365
1772048345461243100,2.5002431640625,0.05258884989321232,0.00019661855064332485,-0.03731279499793891
1772048345471194400,2.5101943359375,0.06021101533472538,-0.0019001345328986644,-0.025618169652856886
1772048345481145000,2.52014501953125,0.06889058087468147,-0.0038564562324434515,-0.03669870452047325
1772048345491095300,2.53009521484375,0.06963526176214217,-0.0018715660255402325,-0.033865796349220906
1772048345501046300,2.54004638671875,0.04868307462632656,-0.009313771790266037,-0.03172477029911242
1772048345510997200,2.549997314453125,0.04449263719916344,0.0005636252321302891,-0.03498721986089367
1772048345520948200,2.5599482421875,0.06799100168645382,0.0063236500635743135,-0.03254319227621891
1772048345530898400,2.5698984375,0.052580666586756704,0.011689853271842002,-0.0367123403201811
1772048345540849200,2.57984912109375,0.06006897651553154,0.012500000610947607,-0.036122082809451964
1772048345550800400,2.58980029296875,0.05902151328921318,0.006510843198746443,-0.043444498119410126
1772048345560750300,2.599750244140625,0.056610360494256017,0.008407105274125934,-0.038111749656172464
1772048345570701000,2.609701171875,0.05570785869657993,0.01162482521161437,-0.03790393385807983
1772048345580652300,2.61965234375,0.062434536603093144,0.016969401109963655,-0.041882760661444626
1772048345590602200,2.629602294921875,0.056738370788097375,0.014125482920929789,-0.04076468445090577
1772048345600553200,2.63955322265625,0.04760521626174449,0.0023853607665747403,-0.032434726933063936
1772048345610504200,2.649504150390625,0.06465630430579185,0.006704393009468913,-0.03895319174926262
1772048345620455200,2.659455078125,0.05237549940347671,0.003561126547679305,-0.034427156559028664
1772048345630405000,2.669405029296875,0.05132452904582023,0.002259907756000757,-0.02612618310707621
1772048345640356400,2.6793564453125,0.05565642077028751,0.01149791089631617,-0.037618426881008776
1772048345650307000,2.68930712890625,0.05715104324221611,0.00029832535944879056,-0.04255876936002168
1772048345660257300,2.69925732421875,0.05624444979131221,0.0011707973450422286,-0.030370606610644606
1772048345670208300,2.709208251953125,0.060137365576624864,0.003378609587624669,-0.02837958349047694
1772048345680159200,2.7191591796875,0.05565992790162563,0.002596080907806754,-0.03225813282371964
1772048345690109200,2.729109130859375,0.05416472090780735,0.005136120779439807,-0.032267882466176526
1772048345700060200,2.73906005859375,0.07183774024248123,0.00669525985494256,-0.04534032180337235
1772048345710011100,2.74901123046875,0.061494625404477116,0.012658406043052673,-0.037729321643267755
1772048345719961000,2.758961181640625,0.05340191984176636,0.018834391264244913,-0.03205508909886703
1772048345729912300,2.768912353515625,0.07643851203620433,0.0008535480894148349,-0.03579240333051421
1772048345739863000,2.778863037109375,0.07583294735848903,0.0003610153321176767,-0.04074788857973181
1772048345749814300,2.788814208984375,0.03721300158500671,0.0026664427302777764,-0.033761559656611644
1772048345759764200,2.79876416015625,0.04992927529513835,-0.00013173662088811398,-0.03244904771936126
1772048345769715200,2.808715087890625,0.0672901599407196,0.004766629879921674,-0.033701732927886766
1772048345779666200,2.818666259765625,0.06115034201145172,0.0076774758253246546,-0.028005831974372265
1772048345789616000,2.8286162109375,0.05008884977102279,-0.0037264731772243976,-0.034369800348603166
1772048345799567000,2.838567138671875,0.054873745959997174,0.004261676032468676,-0.04213613720089197
1772048345809518300,2.848518310546875,0.05680909793674945,0.005164250895380974,-0.041527375919092446
1772048345819468300,2.85846826171875,0.05830898110568523,0.010358677733317017,-0.03867726088471245
1772048345829419300,2.868419189453125,0.06474047545790672,0.0047153380841016765,-0.03005678685454186
1772048345839370200,2.878370361328125,0.049019174712896345,-0.0006844751328229904,-0.028728862719028254
1772048345849320200,2.8883203125,0.06322831732928752,0.00015920914970338342,-0.04021932096125092
1772048345859271200,2.898271240234375,0.06217617792785168,0.006813406341895461,-0.04209290541394148
1772048345869222100,2.90822216796875,0.055441316714882845,0.00263122528642416,-0.040008180694910696
1772048345879173400,2.91817333984375,0.05021276841163635,0.00594246872626245,-0.03747259323610924
1772048345889123300,2.928123291015625,0.06353226871192455,0.01385309572033584,-0.0423088086203672
1772048345899074300,2.93807421875,0.051553077104687685,0.01113850299939513,-0.031137686559581195
1772048345909025300,2.948025390625,0.06666530604064465,0.010846899641677737,-0.03211520808853675
1772048345918975200,2.957975341796875,0.05693827727437019,-0.00007679156325757503,-0.04260893777783494
1772048345928926200,2.96792626953125,0.05259527963399887,-0.002564735921472311,-0.04410676142042502
1772048345938877400,2.97787744140625,0.06905541604757308,0.017650953633338212,-0.03699472375840414
1772048345948827400,2.987827392578125,0.0665144993931055,0.006686345896124839,-0.03893150964041706
1772048345958778000,2.997778076171875,0.046913142344355584,0.004866802318766713,-0.028546395991323515
1772048345968729300,3.007729248046875,0.05529635528624057,0.001520852891728282,-0.030360208514216353
1772048345978679300,3.01767919921875,0.06068447806537151,0.0015212912831455469,-0.0337199581377441
1772048345988630300,3.02763037109375,0.052749593412876127,0.004429287684336304,-0.031278012912301346
1772048345998581200,3.037581298828125,0.04316811059713364,0.0013570406321436166,-0.023575891269487326
1772048346008531500,3.047531494140625,0.057823827937245366,0.010615282842889427,-0.03548042847162578
1772048346018482200,3.057482177734375,0.06664835490584373,-0.003531681257486343,-0.0395826807252597
1772048346028433400,3.067433349609375,0.062007835623621936,0.0023319500789046287,-0.03362496419751551
1772048346038384000,3.077384033203125,0.05497253015935421,-0.0004893909521400928,-0.03502030471316538
1772048346048334000,3.087333984375,0.05033434896469116,0.014463044312223792,-0.03339527906090952
1772048346058285300,3.097285400390625,0.05033201087713241,0.010303586545214056,-0.03230557956148405
1772048346068236000,3.107236083984375,0.06888181304633617,0.0015565817922353743,-0.036608838846511206
1772048346078186200,3.117186279296875,0.06902268282175064,0.00721811468526721,-0.03280477495500818
1772048346088137200,3.12713720703125,0.0622884061306715,0.001248684886842966,-0.032275604548328556
1772048346098088200,3.137088134765625,0.060195817765593525,0.008996084143221377,-0.040221311988937664
1772048346108038100,3.1470380859375,0.05554653065502643,0.007661839864775538,-0.039257298395526594
1772048346117989400,3.1569892578125,0.054199207699298854,0.0064735068630427115,-0.023985600014962253
1772048346127940000,3.166940185546875,0.06347907721996307,-0.0022456600349396467,-0.032080534067377445
1772048346137890300,3.176890380859375,0.06078267774283885,0.006634688774123787,-0.03715788756401744
1772048346147841300,3.18684130859375,0.047616906699538226,0.012282266207039356,-0.03651385403943713
1772048346157792300,3.196792236328125,0.05629705676138401,0.00791683753915131,-0.037241382862697354
1772048346167742200,3.2067421875,0.062276131170988076,0.011295081800594926,-0.03321781273530796
1772048346177693200,3.216693115234375,0.05225158076286315,0.0018435089748352765,-0.03213924198467284
1772048346187644200,3.22664404296875,0.060631871095299716,0.009329773076996206,-0.037191903998050835
1772048346197595100,3.23659521484375,0.06810849058628082,0.0016273820061236618,-0.0360291438289918
1772048346207545300,3.24654541015625,0.05329436781406402,0.0007147241406142711,-0.02516415597477462
1772048346217496000,3.25649609375,0.05659107127189636,0.009309972397983073,-0.030909490127163007
1772048346227447300,3.266447265625,0.0717126525580883,0.006196881878748535,-0.039856771259172814
1772048346237397200,3.276397216796875,0.07155892330110072,0.005667085850983858,-0.03181644890424795
1772048346247348200,3.28634814453125,0.047908583122491834,0.011468465606123208,-0.04034085128195584
1772048346257299200,3.29629931640625,0.04850304188430309,0.010479966025426984,-0.034035061102057805
1772048346267249200,3.306249267578125,0.04895312373936176,0.00805354259610176,-0.03632834597127512
1772048346277200100,3.3162001953125,0.05314414568841457,-0.00019705694206058978,-0.03078204608890228
1772048346287151400,3.3261513671875,0.06406476815342903,0.009421323817968367,-0.037894371445290745
1772048346297101300,3.336101318359375,0.0585194089859724,0.0043234892223030326,-0.034821215644222685
1772048346307052000,3.346052001953125,0.05791852048337459,0.006323942324519157,-0.03326401736405678
1772048346317003000,3.3560029296875,0.06988894426226616,0.008283186633512378,-0.027869236515276133
1772048346326953200,3.365953125,0.06749591164588928,0.003927767902985215,-0.03024816754106432
1772048346336904000,3.375904052734375,0.041620296633243556,0.008977233312278985,-0.03545393775692209
1772048346346855200,3.385855224609375,0.05462824676632881,-0.00029291853196918965,-0.03294443002087064
1772048346356806100,3.39580615234375,0.07347966223061084,0.004841375616565347,-0.032214736639987675
1772048346366756000,3.405756103515625,0.05910977609455585,0.008647124575078487,-0.034592891347641125
1772048346376707000,3.41570703125,0.047882279637455935,0.0007864742025732994,-0.04065748861622996
1772048346386658300,3.425658203125,0.044587914267182345,0.01084543833695352,-0.03336527208171319
1772048346396608000,3.43560791015625,0.05926175178587436,0.005769304116442799,-0.022012824937538242
1772048346406559000,3.44555908203125,0.05971884790360927,0.0056231005787849425,-0.02919853062396869
1772048346416510200,3.45551025390625,0.04773731820881366,0.006966697207465768,-0.040503923756023866
1772048346426460000,3.4654599609375,0.05282090508341789,0.007174860065430402,-0.038333068823232314
1772048346436411100,3.4754111328125,0.06539981614947318,0.0004469400499016046,-0.028920604165154507
1772048346446362000,3.485362060546875,0.06210778886675834,-0.0022597616255283356,-0.023753225164348257
1772048346456312000,3.49531201171875,0.035623686566948885,-0.00019523031115531922,-0.03625860976988915
1772048346466263000,3.505262939453125,0.06316460444331169,0.0029941403146833178,-0.041892706666723824
1772048346476214300,3.51521435546875,0.06736088708937167,0.0092048315230757,-0.03721012464133091
1772048346486164000,3.5251640625,0.053152328994870185,0.008502528472617269,-0.02768185158385895
1772048346496115200,3.535115234375,0.05839841295480728,0.01420804663784802,-0.02901307278815657
1772048346506066200,3.545066162109375,0.05030863000154495,0.009423954166471958,-0.043105457157082853
1772048346516016000,3.55501611328125,0.06527122133374214,0.005850333463400602,-0.0370628114253981
1772048346525967000,3.564967041015625,0.060336103019118306,0.009243556098267436,-0.026673350394750012
1772048346535918000,3.57491796875,0.07036123794913292,0.005354001313820481,-0.035819442034489474
1772048346545869000,3.584869140625,0.058843818634748454,0.008575082252174616,-0.03715531201444101
1772048346555819000,3.594819091796875,0.04821604163646698,0.009680997667461633,-0.03278696530368179
1772048346565770200,3.604770263671875,0.06422668071687221,0.008641790812835096,-0.03164404234625399
1772048346575720200,3.61472021484375,0.05883855793774127,0.008499532797932625,-0.03265316002329346
1772048346585671200,3.624671142578125,0.050313890698552126,0.0015428455278277396,-0.040635231118649244
1772048346595622100,3.6346220703125,0.06213233878612518,0.004570449720695614,-0.03934175267543178
1772048346605573000,3.644572998046875,0.045075990045070645,-0.003099427320063114,-0.02645780338135082
1772048346615523000,3.654523193359375,0.05316928012967109,0.007923559540882707,-0.02922893946196418
1772048346625474300,3.664474365234375,0.07248948214948177,-0.002668780817836523,-0.04155056043185759
1772048346635425000,3.674425048828125,0.07070201421082019,0.0030434593491256235,-0.034744104420556685
1772048346645375000,3.684375,0.05528992554545402,-0.006998699780926108,-0.026683424264192578
1772048346655326200,3.694326171875,0.05753273603618145,-0.005922302721068262,-0.03279222143411171
1772048346665277000,3.70427685546875,0.05078793795108795,0.006219678232446312,-0.03182956411414779
1772048346675227100,3.71422705078125,0.0660480509251356,-0.0003165916685014963,-0.02986131451479159
1772048346685178000,3.72417822265625,0.06589958236515521,-0.0006374211207032203,-0.038687339320732275
1772048346695129000,3.734129150390625,0.0597568418264389,0.009650748659670352,-0.033206062932009804
1772048346705079000,3.7440791015625,0.04285071521103382,0.010055457003042102,-0.03047898062225431
1772048346715030300,3.7540302734375,0.06139642572700977,0.007973755358159541,-0.0375161264171591
1772048346724981000,3.76398095703125,0.06992460009753704,0.005742854500934481,-0.021675071749999185
1772048346734931000,3.773930908203125,0.04868775080144405,0.018699366707727313,-0.019367959284828973
1772048346744882200,3.783882080078125,0.04674538456201553,0.01833696313612163,-0.036411539875855665
1772048346754833000,3.7938330078125,0.06560615237653256,0.002239668685570359,-0.045536940354015676
1772048346764783000,3.803783203125,0.06754676505029202,0.0006861556332558393,-0.04000732217838522
1772048346774734000,3.813734130859375,0.052443303942680354,0.00216959912404418,-0.0320766707430128
1772048346784685000,3.82368505859375,0.046910219734907145,0.004640738477930426,-0.029439413008023982
1772048346794635000,3.833635009765625,0.05499298842549324,0.0034187224023044106,-0.033760239915782586
1772048346804586200,3.843586181640625,0.06635609396100044,0.00940809901021421,-0.03422577050172258
1772048346814537000,3.853536865234375,0.06409925494492054,0.004350304163992405,-0.03327973552299663
1772048346824487200,3.863487060546875,0.048534606066346166,0.006922200478613376,-0.027248944625887086
1772048346834438100,3.873438232421875,0.058550973168015476,0.00004069733656942844,-0.03876429984734859
1772048346844389000,3.88338916015625,0.06767886699736118,0.004545607540383935,-0.03522341237009968
1772048346854339000,3.893339111328125,0.04643851056993007,0.003507496664300561,-0.02617232837032061
1772048346864290000,3.9032900390625,0.05632686737775802,0.0012099603116512297,-0.0317792267329758
1772048346874241000,3.913240966796875,0.06127484517395496,0.004059139197692275,-0.042297702704463154
1772048346884192000,3.92319189453125,0.05618307499289512,0.010863996906951069,-0.033001498536928554
1772048346894142200,3.93314208984375,0.05334580574035644,0.008676131473854183,-0.035000536000193094
1772048346904093000,3.943093017578125,0.05095277312397956,0.0032681349504739042,-0.029842874675802884
1772048346914044200,3.953044189453125,0.053035424616932864,-0.001632277376949787,-0.03898662366140634
1772048346923994000,3.962994140625,0.05273439584374427,-0.0008468991529196501,-0.03348327700477093
1772048346933945000,3.972945068359375,0.054368719047307966,0.0021733985163271425,-0.029681195007800122
1772048346943896000,3.98289599609375,0.05526712919175625,0.003800926652923226,-0.035056248242803845
1772048346953846300,3.99284619140625,0.062300681090354915,0.0009490443531423807,-0.031190622323215938
1772048346963797000,4.002796875,0.05901099189519882,-0.0013244535367935896,-0.03262624918348156
1772048346973748200,4.012748291015625,0.05227846876978874,-0.0005890519343316555,-0.026318358378042465
1772048346983698200,4.0226982421875,0.05662088188827037,0.002805339744314551,-0.028347631149366496
1772048346993649000,4.03264892578125,0.06665303108096123,0.0009145575616508722,-0.040181957226083614
1772048347003600100,4.04260009765625,0.05497603729069232,0.011618979992717503,-0.031533060819027015
1772048347013550000,4.052550048828125,0.05632745189964771,0.0006184972245246172,-0.027351003061141816
1772048347023501000,4.0625009765625,0.07009469596743584,0.00839183463975787,-0.03425081361143384
1772048347033452000,4.0724521484375,0.06306348215639591,0.014365063830465078,-0.038251587385125456
1772048347043402200,4.08240234375,0.05872340712547302,0.010040770890563726,-0.03940636517712846
1772048347053353000,4.09235302734375,0.06290858385562896,0.0024821722045540806,-0.03913245273972861
1772048347063304200,4.10230419921875,0.05137479792833328,0.0035500936970114705,-0.03149861512673087
1772048347073254100,4.112254150390625,0.054363458350300785,0.01153707386292517,-0.027803806596249342
1772048347083204900,4.122204833984375,0.05735913303494453,0.0058110243663191796,-0.04483440440811682
1772048347093156000,4.132156005859375,0.06678747111558914,0.002203793654590845,-0.036688831580430264
1772048347103106000,4.14210595703125,0.054362873828411096,0.010952551973238587,-0.03224450159058906
1772048347113057000,4.15205712890625,0.0558615879535675,0.007627645334228873,-0.028761093621351753
1772048347123008000,4.162008056640625,0.054659810948371884,0.010838716335222124,-0.034706361659476534
1772048347132958200,4.171958251953125,0.05959317569732666,0.006866305572912097,-0.035966787216463125
1772048347142909000,4.181908935546875,0.0697697017967701,0.0014613777894526719,-0.034698347316379656
1772048347152860200,4.191860107421875,0.0688584321707487,0.01484371419288218,-0.029879288562899453
1772048347162810000,4.20181005859375,0.046858197286725044,0.007405673146620393,-0.03461268289349973
1772048347172761000,4.211760986328125,0.055688569474220274,-0.0008586626559495925,-0.03809134162238333
1772048347182712000,4.221712158203125,0.06884732625484466,0.005418444852158427,-0.0373509167849319
1772048347192662000,4.231662109375,0.05147942734658718,0.005423632483929395,-0.025912969614658502
1772048347202613000,4.241613037109375,0.055366497913002966,0.0075687547538429495,-0.028042149963346308
1772048347212564000,4.25156396484375,0.061041620939970016,0.0008450725220143794,-0.03590771853956394
1772048347222514200,4.26151416015625,0.059386839470267294,0.002616831434890628,-0.042677532334905115
1772048347232465200,4.271465087890625,0.046809681969881056,0.005583937612175941,-0.02902013271660544
1772048347242416000,4.281416015625,0.05473404522836208,0.003889700914919376,-0.03413059846498072
1772048347252366000,4.291365966796875,0.06056932725310325,-0.006738952866196632,-0.0348559490308864
1772048347262317000,4.301317138671875,0.060577510559558866,0.009741641813516616,-0.02887595673925243
1772048347272268000,4.31126806640625,0.05010346281826496,0.012571969868615269,-0.03217070570201613
1772048347282218200,4.32121826171875,0.05578969176113605,0.0037322453308850524,-0.03051234403573908
1772048347292169200,4.331169189453125,0.06387538306117058,0.004689984447136521,-0.037449034264008516
1772048347302120200,4.3411201171875,0.06507716006636619,0.012107567227259277,-0.04113352689645253
1772048347312070100,4.351070068359375,0.05356032527387142,0.009492416292801498,-0.04111537018525414
1772048347322021000,4.361021240234375,0.055659343379735944,0.0034502135191112754,-0.03321209994715173
1772048347331972000,4.37097216796875,0.06972410908937454,0.0036125644739717242,-0.031123091778648086
1772048347341922000,4.380922119140625,0.05370996287763118,0.011273600621148943,-0.02650222247838974
1772048347351873300,4.390873291015625,0.054013914260268206,0.011193228861317038,-0.03921377891420852
1772048347361824000,4.400823974609375,0.06883212868571281,0.00872640035636723,-0.03909868746744469
1772048347371774200,4.410774169921875,0.06149579444825649,0.007284019528329372,-0.03563185160709545
1772048347381725200,4.42072509765625,0.035005262407660484,-0.0007396393861621618,-0.03774372006137855
1772048347391676200,4.43067626953125,0.06778057380616664,0.0035319004531949756,-0.044498363687051457
1772048347401626000,4.440626220703125,0.06957680957317351,0.0036889176458120344,-0.03873606013355311
1772048347411577000,4.4505771484375,0.05940320608317852,0.00935490751825273,-0.03268391592116095
1772048347421528000,4.460528076171875,0.06045651452839374,0.015841273862868547,-0.029693908358900806
1772048347431478000,4.47047802734375,0.053877136138081545,-0.002655775205790996,-0.03205662803540472
1772048347441429200,4.48042919921875,0.06675123075842856,0.0015948679760098457,-0.030304003081261178
1772048347451380000,4.4903798828125,0.08111293358802794,0.010188070406764746,-0.03820969360531307
1772048347461330200,4.500330078125,0.05896423014402389,0.010976225109770893,-0.04274835538167972
1772048347471281200,4.51028125,0.035624271088838574,0.008218158573284744,-0.031517981980904004
1772048347481232100,4.520232177734375,0.05626899971067905,0.008598682323470712,-0.03488603820847347
1772048347491182000,4.53018212890625,0.06434709222614765,0.01881480978094041,-0.03857142132348381
1772048347501133300,4.54013330078125,0.05507715957760811,0.006410232368484139,-0.03190753842091653
1772048347511084000,4.550083984375,0.04476268631219864,0.006384221144393086,-0.03291214431961998
1772048347521034000,4.560033935546875,0.056441433668136594,0.004629924822971225,-0.03389989954822231
1772048347530985200,4.569985107421875,0.07081599597930907,-0.00045694998726248737,-0.029646032362873664
1772048347540936000,4.57993603515625,0.0643926849335432,0.0032516222070902586,-0.028417869674251413
1772048347550886100,4.58988623046875,0.052724458971619606,0.005872910621389746,-0.033834853221685626
1772048347560837000,4.599837158203125,0.058415364089608186,0.002655482944846153,-0.02839879964760039
1772048347570788000,4.6097880859375,0.07278934187889098,0.006120601772144437,-0.03824952785877976
1772048347580738000,4.619738037109375,0.07189677695333957,0.004083104595169425,-0.033923577251331875
1772048347590689300,4.629689208984375,0.05692775588035583,0.0074491469621658325,-0.023319614953477865
1772048347600640000,4.639639892578125,0.04779810848534107,0.0013376783445477485,-0.02621626341016963
1772048347610590200,4.649590087890625,0.06634498804509639,0.00743826024197042,-0.035689038854162206
1772048347620541200,4.659541259765625,0.052581835630536075,0.01066255605071783,-0.03276181259611621
1772048347630492200,4.6694921875,0.06741115597188473,0.010261647099629043,-0.028723337160539812
1772048347640442000,4.679442138671875,0.06576455780863762,0.007415025496855378,-0.03194165075307246
1772048347650393000,4.68939306640625,0.04960135851502418,0.009541589196771384,-0.029920520189008672
1772048347660344000,4.699343994140625,0.05917933419942856,0.009521423191577196,-0.03243144813058898
1772048347670294000,4.7092939453125,0.06531447595357895,0.001882598876208067,-0.033941898359311745
1772048347680245200,4.719245361328125,0.053044192445278165,0.0151935505438596,-0.034774020068207755
1772048347690196000,4.729196044921875,0.05559446144998073,0.01132649985216558,-0.03162731954031624
1772048347700146200,4.739146240234375,0.0636783991843462,0.0033432460132986307,-0.03141672269667033
1772048347710097200,4.74909716796875,0.06337737041115761,0.006205941968038677,-0.029911953290062954
1772048347720048000,4.759048095703125,0.06996317854225635,0.00004661562070250511,-0.03481474480424076
1772048347729998000,4.768998046875,0.05709785175025463,0.009260361102595925,-0.036456401930889115
1772048347739949000,4.778948974609375,0.050064299851655954,0.004331380267813802,-0.039628857954544947
1772048347749900000,4.788900146484375,0.057258010748028755,0.00012289572730660438,-0.03488428920938168
1772048347759850000,4.79885009765625,0.06220657306611538,0.00504851556122303,-0.030487588620395398
1772048347769801200,4.80880126953125,0.058469140103459355,0.01649681516215205,-0.02472823507580906
1772048347779752000,4.818751953125,0.03947568581998348,0.014831220037490128,-0.03478680191796738
1772048347789702100,4.8287021484375,0.05952887828946113,0.0047911067340523006,-0.04149767946715001
1772048347799653000,4.838653076171875,0.05607610748708248,0.011530205730721353,-0.03875051335059106
1772048347809604000,4.84860400390625,0.05951134263277053,0.014004121563583612,-0.02513172414305154
1772048347819554000,4.858553955078125,0.06370178005993365,0.00786086956821382,-0.029723623077152296
1772048347829505300,4.86850537109375,0.05875555582940578,0.010225918199121952,-0.03539519330700859
1772048347839455200,4.878455322265625,0.05127484468519687,0.005137801279872655,-0.03314224044817965
1772048347849406000,4.888406005859375,0.05351999326348304,-0.0016172259382903574,-0.03299780417592264
1772048347859357200,4.898357177734375,0.055154316467046736,0.006626724663376808,-0.024596137695317155
1772048347869307100,4.90830712890625,0.05889174942970275,0.00622479279898107,-0.03352465476135257
1772048347879258000,4.918258056640625,0.06233458335995674,0.0008289981700479984,-0.03311156218212563
1772048347889209000,4.928208984375,0.05888590421080589,0.003022124300152063,-0.02409728479508776
1772048347899159300,4.9381591796875,0.054848026996850964,0.013308248253911734,-0.02809048718367703
1772048347909110000,4.948110107421875,0.060541270202398294,0.016045856524258852,-0.027148580390796994
1772048347919061200,4.958061279296875,0.0632335780262947,0.0038012919791042803,-0.029986772091942837
1772048347929011200,4.96801123046875,0.05934358485043049,-0.0012885054405778647,-0.03557800252800807
1772048347938962000,4.9779619140625,0.06428864003717899,0.006536781357601285,-0.0332457601881586
1772048347948913200,4.9879130859375,0.06922200478613376,0.009598872341960668,-0.03367971289232373
1772048347958863000,4.997863037109375,0.06458090098202228,0.009341390449553727,-0.032265439347340726
1772048347968814000,5.00781396484375,0.06548340277969837,-0.000312573080509901,-0.029501970549952235
1772048347978765000,5.01776513671875,0.05665361511409282,-0.0009040361676365137,-0.0435601055894047
1772048347988715300,5.02771533203125,0.056800914630293846,-0.0007269991002976894,-0.034020114694675425
1772048347998666000,5.037666015625,0.051560091367363926,0.008895619443431497,-0.03014444230510853
1772048348008617200,5.0476171875,0.06473229215145111,0.005227013933286071,-0.030004750706627965
1772048348018567200,5.057567138671875,0.06204816763401031,0.006577332563698291,-0.034228537847544066
1772048348028518100,5.06751806640625,0.05127893633842468,0.002469604983925819,-0.03413403253108263
1772048348038469000,5.07746923828125,0.058306643018126485,0.007794453268498182,-0.02871588907302357
1772048348048419000,5.087419189453125,0.05096913973689079,0.007134966446459293,-0.03257260560037102
1772048348058370000,5.0973701171875,0.05665127702653408,0.005259308767691254,-0.03403388749170117
1772048348068321000,5.107321044921875,0.05815057567358017,0.011956395253539085,-0.030061851188726722
1772048348078271200,5.117271240234375,0.05680208367407322,0.009149740334972739,-0.026760215827450154
1772048348088222000,5.127221923828125,0.052910336932539936,0.010663213637843727,-0.02716109737907536
1772048348098173200,5.137173095703125,0.07341068864762783,0.012318725759908557,-0.04343631024637725
1772048348108123100,5.147123046875,0.0692202512204647,0.01261997372880578,-0.03467619941665325
1772048348118074000,5.15707421875,0.05963876840472221,0.016422288621217012,-0.02738291886963416
1772048348128025000,5.167025146484375,0.058881812557578087,0.003087444621324539,-0.03226371774771251
1772048348137975300,5.176975341796875,0.06036942076683044,-0.005463891429081559,-0.02719204507318791
1772048348147926000,5.186926025390625,0.05737199251651764,0.012419921112060545,-0.02148356776589062
1772048348157876000,5.1968759765625,0.062465516263246534,0.003942234819754958,-0.03448623436908237
1772048348167827200,5.2068271484375,0.060067807471752166,0.006975538101047277,-0.03203526102039032
1772048348177778000,5.21677783203125,0.05902385137677192,0.012156813196465372,-0.03885542589663528
1772048348187728100,5.22672802734375,0.06381693087220192,0.00775521723665297,-0.0340934219594812
1772048348197679000,5.23667919921875,0.059630000576376914,0.01071669739075005,-0.03466254991721362
1772048348207630000,5.246630126953125,0.06307517259418964,0.0012353139486163853,-0.028085952572454696
1772048348217580000,5.256580078125,0.06906476839780808,0.0019294336926192043,-0.04194452818550635
1772048348227531300,5.26653125,0.0672597648024559,0.010616671082377432,-0.024184296358260325
1772048348237482000,5.27648193359375,0.043012627774477,0.004561608827114105,-0.02659781464023981
1772048348247432000,5.286431884765625,0.06335223596990108,0.003522767298668623,-0.03878558466397226
1772048348257383200,5.296383056640625,0.07891337771713733,0.008630319570749997,-0.03441965823916252
1772048348267334000,5.306333984375,0.052578328499197954,0.012052768300101161,-0.033004055820195936
1772048348277284000,5.3162841796875,0.05392155980169773,-0.0024096914902329443,-0.032435873143956996
1772048348287235000,5.326235107421875,0.07053308738470077,0.012372647904232143,-0.02028700579192955
1772048348297186000,5.33618603515625,0.06529343316555022,0.014952727525308728,-0.020575083751999772
1772048348307135500,5.346135498046875,0.06185936706364154,0.01020545993298292,-0.03467919509133789
1772048348317086500,5.35608642578125,0.06604746640324592,0.011569295632094145,-0.04332886781652923
1772048348327037700,5.36603759765625,0.0636567718744278,0.007946867351233958,-0.03709721601849887
1772048348336987400,5.3759873046875,0.06785363904237747,-0.0023420330815017223,-0.027076250373525543
1772048348346938400,5.3859384765625,0.06665770725607871,0.0025945465378463266,-0.027139620766206643
1772048348356889600,5.3958896484375,0.05723346082866192,-0.003428074752539396,-0.0262566456529079
1772048348366839300,5.40583935546875,0.0596218172699213,-0.00439333958812058,-0.02727507001440972
1772048348376790500,5.41579052734375,0.0675520257472992,0.01283756200224161,-0.033677630533091724
1772048348386740500,5.425740478515625,0.047640287575125694,0.010897387719899416,-0.035891639621020294
1772048348396691500,5.43569140625,0.06290449220240116,0.013725304622203111,-0.027248798495414665
1772048348406642400,5.445642333984375,0.07532733592391014,0.0021672610364854334,-0.031181448069494216
1772048348416592400,5.45559228515625,0.05751753846704959,0.006860679549723863,-0.03090466782157309
1772048348426543400,5.46554345703125,0.05557751031517982,0.0027403847493231294,-0.026915009096940046
1772048348436494600,5.47549462890625,0.057824412459135055,0.0012160977914929389,-0.03420615248579997
1772048348446444500,5.485444580078125,0.055126843938231467,0.009671937578171492,-0.03398647271997761
1772048348456395300,5.495395263671875,0.060060793209075924,0.005839154482260346,-0.023890396012179554
1772048348466346500,5.505346435546875,0.05945698209702968,0.0035224750377237796,-0.02925945789781399
1772048348476296400,5.51529638671875,0.05092763868272304,0.0030695436384528874,-0.03896881401007995
1772048348486247400,5.525247314453125,0.0527291351467371,0.0019295067578554152,-0.03789892432282213
1772048348496198400,5.535198486328125,0.07099076802432537,0.005446428837627172,-0.03345011908726301
1772048348506148600,5.545148681640625,0.05348550647199154,0.014535525026544928,-0.031503072106139736
1772048348516099300,5.555099365234375,0.05319733718037605,0.009570157704129814,-0.03376321732415818
1772048348526050600,5.565050537109375,0.06203647719621658,0.009418108947575091,-0.026507962666009553
1772048348536000500,5.57500048828125,0.06442892529070376,0.007352043263241648,-0.03884244768405333
1772048348545951500,5.584951416015625,0.05829962875545024,0.0059172612197697155,-0.03330929041104391
1772048348555902500,5.59490234375,0.06188391698300838,0.0033357933592051267,-0.02698745784522034
1772048348565852400,5.604852294921875,0.06248655905127525,-0.001064998883008957,-0.03570174307210836
1772048348575803400,5.614803466796875,0.05665127702653408,0.002368117370828986,-0.03631462340659927
1772048348585754400,5.62475439453125,0.0672685326308012,0.0021910803034901616,-0.03086051358601544
1772048348595704600,5.63470458984375,0.06396949108541011,0.0006437047310173511,-0.035773817361053076
1772048348605655600,5.644655517578125,0.049159459966421126,0.007761646977439522,-0.034264312413823786
1772048348615605500,5.65460546875,0.0582885228395462,0.009229527572914958,-0.02813303855061531
1772048348625556500,5.664556396484375,0.06382686774432658,0.01443980956710875,-0.032623417905578385
1772048348635507500,5.674507568359375,0.051259647116065024,0.011099851489439606,-0.027061806289642117
1772048348645457400,5.68445751953125,0.05290449171364307,0.004383183520287275,-0.045605073686782266
1772048348655408400,5.694408447265625,0.05619885708391666,-0.0004398527219891548,-0.03378087627843488
1772048348665359600,5.704359619140625,0.059791328617930406,0.009412994381040334,-0.026792026604665443
1772048348675309300,5.714309326171875,0.0725146165907383,0.011444938600063324,-0.0365384998569265
1772048348685260500,5.724260498046875,0.06308744755387306,0.0023227438591420647,-0.035281412467919285
1772048348695211500,5.73421142578125,0.04947101013362407,0.004700213580206036,-0.0323567891589133
1772048348705161500,5.744161376953125,0.05530103146135807,-0.00014868775568902491,-0.03468686237456277
1772048348715112400,5.754112548828125,0.06517419070005416,0.00498100328296423,-0.03933487541007343
1772048348725063700,5.764063720703125,0.06039163259863853,0.01387691498734057,-0.038645299410447476
1772048348735013400,5.774013427734375,0.051720250365138054,0.003286620455235243,-0.03328639815922361
1772048348744964400,5.78396435546875,0.0612947189182043,0.0034703064590692516,-0.02822246583316009
1772048348754915600,5.79391552734375,0.06683247930109501,0.010172726707160473,-0.031262239954434334
1772048348764865300,5.803865234375,0.059497898629307745,0.009600333646684885,-0.03446484908775892
1772048348774816500,5.81381640625,0.0750543642014265,0.01224010756574571,-0.04390718372771516
1772048348784766500,5.823766357421875,0.06382277609109878,0.0056332566466182465,-0.03537248828485608
1772048348794717400,5.833717529296875,0.059765025132894514,0.020259601761773226,-0.027497722622030412
1772048348804668400,5.84366845703125,0.06439326945543289,0.006198854640126228,-0.02941831998764537
1772048348814618600,5.85361865234375,0.06004968729317188,0.001752031299099326,-0.023344160306267438
1772048348824569300,5.8635693359375,0.05451368047595024,-0.003658157181367278,-0.022774287996441125
1772048348834520600,5.8735205078125,0.064083472853899,0.004395677675679326,-0.02923533267013263
1772048348844470500,5.883470458984375,0.05331365703642368,0.01284903324432671,-0.02754517849294934
1772048348854421500,5.89342138671875,0.058549804124236104,0.0040402153015136714,-0.020175754836644046
1772048348864372500,5.90337255859375,0.07111819379627704,0.008548559571430086,-0.023058881658059544
1772048348874322400,5.913322509765625,0.061253217864036556,0.002840045731514692,-0.028451657779421654
1772048348884273400,5.9232734375,0.04914601596295833,0.006829699889570474,-0.028693225150066427
1772048348894224400,5.933224365234375,0.06545768381655216,0.001434928173944354,-0.03762770616600755
1772048348904174600,5.943174560546875,0.05856675525903701,0.00020166005194187164,-0.035920011765556405
1772048348914125600,5.95312548828125,0.04614683414697647,0.0021283172655850646,-0.026911269070161507
1772048348924075300,5.9630751953125,0.05961714109480381,0.006878726663067936,-0.02969237398894038
1772048348934026500,5.973026611328125,0.056176060730218885,0.002239303359389305,-0.023003329245653
1772048348943977500,5.9829775390625,0.054092824715375895,0.008044117180630564,-0.026465986687806434
1772048348953927400,5.992927490234375,0.05753565864562988,0.003542860238626599,-0.0298042551318882
1772048348963878400,6.00287841796875,0.05378945785462856,0.005112666838616132,-0.026785633396496995
1772048348973829600,6.01282958984375,0.056171969076991075,0.012784516640752553,-0.02564113953649066
1772048348983779300,6.022779296875,0.06484744296371936,-0.0001727262184023857,-0.029707000735914334
1772048348993730600,6.03273046875,0.06185469088852405,0.01585493706203997,-0.02284533023892436
1772048349003681500,6.042681640625,0.04479191240668297,0.004991597742214799,-0.024150686349603347
1772048349013631500,6.052631591796875,0.05931845040917396,0.007198021745309233,-0.028407896269508636
1772048349023582500,6.06258251953125,0.06396715299785137,0.011402414632588623,-0.032325795799028126
1772048349033533700,6.07253369140625,0.049749827075004575,0.008145093337073922,-0.023900547513435594
1772048349043483400,6.0824833984375,0.05094225172996521,0.008227657053992152,-0.028826002950570546
1772048349053434400,6.092434326171875,0.056333881640434263,0.0023185060754418374,-0.03208610529163852
1772048349063384600,6.102384521484375,0.05184241544008255,0.002044365309178829,-0.03007799403935205
1772048349073335300,6.112335205078125,0.05948211653828621,0.012850056157633662,-0.028229927620408123
1772048349083286500,6.12228662109375,0.06606383301615715,0.011849720008671284,-0.031742598216747867
1772048349093236500,6.132236572265625,0.060380526682734484,0.003127192109823227,-0.0285341575642582
1772048349103187500,6.1421875,0.05947860940694809,-0.00023519699536263941,-0.02509956173938699
1772048349113138400,6.152138427734375,0.05842880809307098,0.008336305060237645,-0.018807553489669226
1772048349123088400,6.16208837890625,0.04629997888207436,0.0038102790031582113,-0.022086036304221488
1772048349133039400,6.172039306640625,0.06560907498598098,-0.00002506137602031231,-0.0369959567342652
1772048349142990600,6.181990478515625,0.08177519688904285,0.005123626624047756,-0.033335201170435175
1772048349152940500,6.1919404296875,0.04779635491967201,0.00860211638957262,-0.02814841878283769
1772048349162891300,6.201891357421875,0.032681203374266624,0.0113408206384629,-0.020557803823635912
1772048349172842500,6.211842529296875,0.07533259662091732,-0.0020673808585852382,-0.027071460033976473
1772048349182792400,6.22179248046875,0.06561141307353972,0.018037541798129678,-0.027439590093470176
1772048349192743400,6.231743408203125,0.042565468528866765,0.011756634897738694,-0.031086586560006253
1772048349202693400,6.241693359375,0.05183540117740631,-0.0006744651954621076,-0.041665866507752794
1772048349212644600,6.25164453125,0.06410568468570708,0.005614990337565541,-0.026398734704451633
1772048349222595300,6.26159521484375,0.056333297118544574,0.0018760960701853036,-0.026994568006019105
1772048349232545300,6.271545166015625,0.04137129030823707,-0.00325176833756268,-0.03717876138868741
1772048349242496500,6.28149658203125,0.06038111120462417,0.0007080752041190862,-0.0367859170130454
1772048349252447500,6.291447509765625,0.0552910945892334,0.01002330829910934,-0.031833760798652654
1772048349262397400,6.3013974609375,0.06232523100972175,0.00715418260358274,-0.03300100078000687
1772048349272348400,6.311348388671875,0.06262041456401347,0.00674582099840045,-0.033057160547189414
1772048349282299400,6.32129931640625,0.050347208446264266,0.009330284533649683,-0.029975679875770583
1772048349292249300,6.331249267578125,0.07115677224099635,0.014874328526854514,-0.029362041489453986
1772048349302200600,6.34120068359375,0.06306757380962372,0.004082081681862473,-0.029913652056804855
1772048349312150800,6.35115087890625,0.04346446319520473,0.004076894050091505,-0.03980328293968923
1772048349322101800,6.361101806640625,0.06395780064761639,0.007782470569759607,-0.041210843616095366
1772048349332052700,6.371052734375,0.0639478637754917,0.0140803286049515,-0.033714633508655244
1772048349342003000,6.3810029296875,0.06454816775619983,0.010314181004464625,-0.020277110019000247
1772048349351953700,6.39095361328125,0.05616846194565296,0.011810483976826072,-0.03714434766243212
1772048349361905000,6.40090478515625,0.06275134746730328,0.008227291727811097,-0.03285202532995026
1772048349371854800,6.410854736328125,0.04748831188380718,0.010326236768439412,-0.03229503533458337
1772048349381805600,6.4208056640625,0.0557265633970499,0.011539923407137394,-0.024124981086188924
1772048349391756800,6.4307568359375,0.05229015920758247,0.0051633010473102325,-0.030059307605191134
1772048349401706800,6.440706787109375,0.05977671557068824,0.007171718260273337,-0.03066994118366856
1772048349411657700,6.45065771484375,0.06262450621724128,0.007115384963154793,-0.03954571428231429
1772048349421607700,6.460607666015625,0.06291676716208458,0.0004904138654470443,-0.03894756115949712
1772048349431559000,6.470558837890625,0.05198737686872482,0.010306363024190067,-0.030883972093416374
1772048349441509600,6.480509521484375,0.051093058377504344,0.006510477872565389,-0.027005486692255363
1772048349451459800,6.4904599609375,0.06919803938865661,-0.002434606735780835,-0.03719020066473167
1772048349461410800,6.500410888671875,0.06515431695580481,0.009423004318401217,-0.03401968543641269
1772048349471361800,6.51036181640625,0.04465221167504787,0.008251695516705513,-0.03143231299144681
1772048349481311700,6.520311767578125,0.05720949543118477,0.005744023544713855,-0.030648702032817526
1772048349491262700,6.5302626953125,0.059002808588743204,0.006525163985043764,-0.030190797630907033
1772048349501213700,6.540213623046875,0.052130584731698036,0.014578487385436892,-0.01961265019432176
1772048349511163600,6.55016357421875,0.04630816218852996,0.014343655716255307,-0.022404244541074148
1772048349521115000,6.560114990234375,0.04347323102355003,-0.000607829700037837,-0.0378588845733786
1772048349531064800,6.57006494140625,0.06457447124123573,-0.0016968670457601547,-0.03397106508829165
1772048349541015800,6.580015869140625,0.07175707622170448,0.006824146931618451,-0.038665954039408826
1772048349550966800,6.589966796875,0.045270051312446595,0.009073898619785904,-0.02663297728516627
1772048349560916700,6.599916748046875,0.038087446331977845,0.010723492457717657,-0.02698726604897529
1772048349570867700,6.60986767578125,0.056934185621142386,0.010402736070752143,-0.03359485218704212
1772048349580818700,6.619818603515625,0.06411620607972145,0.005496478524431586,-0.03211603007244412
1772048349590769000,6.629768798828125,0.0445247859030962,0.005926759700477123,-0.023554583619977348
1772048349600719600,6.6397197265625,0.04333762194514274,0.0072628306098282336,-0.034059323327057064
1772048349610669800,6.649669921875,0.0515700282394886,0.010968187933787702,-0.038708838766487313
1772048349620620800,6.659620849609375,0.05830547397434711,0.0092892218708992,-0.02547001618670765
1772048349630571800,6.66957177734375,0.061895022898912425,0.006905322409048676,-0.025923121115914546
1772048349640521700,6.679521728515625,0.05934416937232017,0.0020787790354341268,-0.0347409900148632
1772048349650473000,6.689472900390625,0.047971711486577986,0.007779694090783595,-0.0277634700192837
1772048349660423700,6.699423583984375,0.05621580821871757,-0.0006567103430628776,-0.031132412162842227
1772048349670373600,6.70937353515625,0.05532032068371773,0.005434519204124808,-0.030159210615977643
1772048349680324900,6.719324951171875,0.04783902501761913,0.008257248474657536,-0.02609232650324702
1772048349690275600,6.729275634765625,0.05532675042450428,0.007113485267013311,-0.03266259000534191
1772048349700225800,6.739225830078125,0.057125908800959586,0.007525354003533721,-0.03593043269487098
1772048349710176800,6.7491767578125,0.04844458969533443,0.006206234228983521,-0.027959590813005343
1772048349720127000,6.759126953125,0.062060442593693727,-0.0008187690369784831,-0.033051269662519915
1772048349730077700,6.76907763671875,0.07119476616382599,0.007470920402556657,-0.03138339581580367
1772048349740029000,6.77902880859375,0.04995090260505676,0.009339344622939824,-0.015550921747321263
1772048349749979000,6.788978759765625,0.06835282073616981,0.008482070206478237,-0.031782724731159395
1772048349759929600,6.7989296875,0.06625146454274654,-0.0005501812286674977,-0.03782831590517889
1772048349769879800,6.8088798828125,0.047391281250119204,-0.0015140578247606754,-0.0227616294442676
1772048349779830800,6.818830810546875,0.0477010778516531,0.00925897286310792,-0.03457004932817071
1772048349789781800,6.82878173828125,0.049341830796003336,0.010083440988510847,-0.03542076613968238
1772048349799731700,6.838731689453125,0.0491910241484642,0.005607099292054772,-0.02195602128296159
1772048349809683000,6.848682861328125,0.05322597875297069,0.005992883739247918,-0.03062475946822669
1772048349819633700,6.858633544921875,0.049773207950592036,0.006152385149896145,-0.03547781182285398
1772048349829584000,6.868583984375,0.04452829303443431,0.0029787235498428344,-0.037723512956988996
1772048349839534800,6.878534912109375,0.05126841494441032,0.01081884259097278,-0.03843898601627443
1772048349849485800,6.88848583984375,0.052320554345846176,0.011066095350310206,-0.023720610669534653
1772048349859435800,6.898435791015625,0.05262158311903476,0.010584303182736038,-0.024262129101133904
1772048349869386800,6.90838671875,0.05022679693698883,0.014330942365154623,-0.024239574776031076
1772048349879337000,6.9183369140625,0.06593173106908798,0.009514262798428534,-0.03245238588734064
1772048349889287700,6.92828759765625,0.06458382359147072,0.012388795321434736,-0.033027806588541715
1772048349899239000,6.938239013671875,0.052315293648838995,0.008461977266520261,-0.034745784920989536
1772048349909188900,6.94818896484375,0.05799801546037197,0.007614493591710925,-0.03620613523055799
1772048349919139800,6.958139892578125,0.05679974558651447,0.01210946692340076,-0.0231610359914368
1772048349929089800,6.96808984375,0.050963879039883614,0.008510273387655615,-0.019532228202139956
1772048349939040800,6.978040771484375,0.05395195493996143,0.006641191580146551,-0.030312410150002685
1772048349948991700,6.98799169921875,0.051259062594175335,0.00915953107662499,-0.03686710162363015
1772048349958941700,6.997941650390625,0.05694119988381862,0.007430076935514807,-0.032848719128011725
1772048349968893000,7.007892822265625,0.06666472151875495,0.0001477379076182842,-0.03326143268132582
1772048349978843600,7.01784375,0.05678454801738262,-0.007866130265220999,-0.036124845588696185
1772048349988793900,7.0277939453125,0.05604688139259815,0.002144610813260078,-0.025637938365829175
1772048349998744800,7.037744873046875,0.0470692096889019,0.00604096066467464,-0.03201373874174897
1772048350008695800,7.04769580078125,0.053503042128682135,0.0006672317370772362,-0.0322183670689119
1772048350018645800,7.057645751953125,0.061278936827182766,0.0074597414214164015,-0.02251234455804806
1772048350028597000,7.067596923828125,0.06427110438048839,0.007005202586948871,-0.032536036449647504
1772048350038546700,7.077546630859375,0.040625440376996995,0.005994125848263501,-0.03786767980118748
1772048350048497700,7.08749755859375,0.041676995256543156,0.005188727749511599,-0.02908231123262085
1772048350058449000,7.097448974609375,0.07265840897560119,0.0022544278632849455,-0.03050356250766199
1772048350068398600,7.107398681640625,0.07505085707008838,-0.0029623569369316097,-0.026786519312486053
1772048350078349800,7.117349853515625,0.043781858581304546,0.008621478677168488,-0.019517044332739895
1772048350088299800,7.1272998046875,0.056362523213028905,0.006643164341524243,-0.024061537628271616
1772048350098250800,7.137250732421875,0.06802548847794532,0.011706731341406703,-0.02546246763449162
1772048350108201700,7.14720166015625,0.05590133544206619,0.002480930095538497,-0.024637264290149324
1772048350118151700,7.157151611328125,0.05858838256895542,0.0010804887130856514,-0.029701516276621258
1772048350128102700,7.1671025390625,0.06785831521749495,0.009576075988262892,-0.03512379705368075
1772048350138053600,7.1770537109375,0.058579030218720435,0.007671995932608843,-0.026707681922614572
1772048350148003800,7.18700390625,0.05723638343811035,0.00550217761285603,-0.02974970736647956
1772048350157954800,7.196954833984375,0.05918225680887699,0.011021525556221604,-0.030405508960667064
1772048350167904800,7.20690478515625,0.050501522225141524,0.005513502724468708,-0.02473611242158804
1772048350177855700,7.216855712890625,0.05171498966813087,0.004514189488813281,-0.0258516085159732
1772048350187806700,7.226806640625,0.0687672467559576,0.016281638041511177,-0.0368121702657314
1772048350197756700,7.236756591796875,0.06546995877623557,0.003506985207647085,-0.029880338875669984
1772048350207708000,7.2467080078125,0.06382803678810596,0.012134455234184861,-0.020902913767145946
1772048350217659000,7.256658935546875,0.0632248101979494,0.004717164715006947,-0.033450105387531216
1772048350227608600,7.266608642578125,0.058280339533090586,0.0006213467687368392,-0.033174877775879574
1772048350237559800,7.276559814453125,0.06038286477029323,0.007102233220636844,-0.028844639152381567
1772048350247509800,7.286509765625,0.06351765566468238,0.0009453180260956287,-0.03273991129156202
1772048350257460700,7.296460693359375,0.054392099922895426,0.0029972090546041726,-0.030135222385614176
1772048350267411700,7.30641162109375,0.05365151068866253,0.0069132865197956556,-0.026928443967248313
1772048350277362000,7.31636181640625,0.06726093384623527,0.003141001439467072,-0.03592942804787308
1772048350287312600,7.326312744140625,0.07443944717347621,0.0053037324313074345,-0.022691856710263525
1772048350297263900,7.336263916015625,0.058873044729232785,-0.006449103074148297,-0.02231629226298537
1772048350307218000,7.346218017578125,0.0635083033144474,0.007526303851604461,-0.02771647080609109
1772048350317168600,7.356168701171875,0.0635042116612196,0.0038370939448475836,-0.029663138761301524
1772048350327118600,7.36611865234375,0.06215805774927139,0.0005414864655584096,-0.031744712542020714
1772048350337069800,7.37606982421875,0.06574994476139545,0.003831029530242085,-0.028286598844244143
1772048350347020500,7.3860205078125,0.05542378105819225,0.005055749019607901,-0.014642309869267046
1772048350356970800,7.395970703125,0.057664837983250616,0.00703705902993679,-0.02266329733605962
1772048350366921700,7.405921630859375,0.07802256635725498,0.008269085042923688,-0.03281432823464274
1772048350376872000,7.415871826171875,0.0693418317735195,0.005312719455361366,-0.02540660012825392
1772048350386822700,7.42582275390625,0.04420388338565826,0.012464052514731884,-0.02664464032349642
1772048350396774000,7.43577392578125,0.06515723956525325,0.002208323699235916,-0.02626012538478244
1772048350406723800,7.445723876953125,0.07907061410546302,0.006898381211608648,-0.028816586668253874
1772048350416674600,7.455674560546875,0.06350596522688866,0.011720905997231601,-0.03329575050945859
1772048350426625800,7.465625732421875,0.0575216301202774,-0.004012377446517348,-0.03016387765794061
1772048350436575700,7.47557568359375,0.06485211913883686,0.005767477485537529,-0.03402811990461778
1772048350446526700,7.485526611328125,0.06260989316999913,0.012926701590418815,-0.022691441151732578
1772048350456476700,7.4954765625,0.06785246999859809,-0.0009245674990117549,-0.025903799927514046
1772048350466428000,7.505427978515625,0.057387774607539174,0.008780322500690817,-0.029135744753177276
1772048350476378600,7.515378662109375,0.05619359638690948,0.009933949515223502,-0.028139714886574074
1772048350486328800,7.525328857421875,0.0692161595672369,0.003597513035312295,-0.027744943415326996
1772048350496279800,7.53527978515625,0.08283785768449306,0.00607208645530045,-0.03012572390490677
1772048350506230800,7.545230712890625,0.05157178180515766,0.006527721268311143,-0.029895554711110887
1772048350516180700,7.5551806640625,0.04589139808118343,0.005509557201713323,-0.02472675550477579
1772048350526131700,7.565131591796875,0.07236965516209602,0.002786050521954894,-0.031613884670007975
1772048350536081700,7.57508154296875,0.07161036122739314,0.0035609073519706725,-0.028388903874671086
1772048350546032600,7.58503271484375,0.05621054752171039,0.005431961920857429,-0.02704530724599026
1772048350555984000,7.59498388671875,0.06878185980319976,-0.0004367839820683002,-0.04079086920493282
1772048350565933800,7.604933837890625,0.07311725865900516,-0.0008227145597338675,-0.030531272498494945
1772048350575884800,7.614884765625,0.06563420942723751,0.008036153069883584,-0.023899150140793062
1772048350585835800,7.624835693359375,0.06667407386898994,0.000815115775167942,-0.03464151169576216
1772048350595785700,7.63478564453125,0.06666998221576213,0.006705708183720707,-0.03278848140733316
1772048350605736700,7.64473681640625,0.0669675038576126,0.0034547435637563464,-0.031404118943423966
1772048350615686700,7.654686767578125,0.06666004534363747,-0.005992737608775496,-0.03639323703418486
1772048350625638000,7.664637939453125,0.07159224104881286,-0.0006769494134932756,-0.030035091045964506
1772048350635588600,7.674588623046875,0.05737842225730419,-0.0026548984229564664,-0.028133851401368155
1772048350645538800,7.684538818359375,0.06635667848289012,0.0076899699807167045,-0.030675795535719953
1772048350655489800,7.69448974609375,0.06036416006982326,0.004817191023379564,-0.025386164695001205
1772048350665440800,7.704440673828125,0.06785071643292903,0.005031856687366962,-0.015815280905086545
1772048350675390700,7.714390625,0.07593991486430168,0.00250431097112596,-0.023989303509122692
1772048350685342000,7.724342041015625,0.06949614555239678,0.007457257203385233,-0.02650404910929501
1772048350695291600,7.734291748046875,0.06380348686873913,0.01008819022886455,-0.020994752202485686
1772048350705242600,7.74424267578125,0.0681482380747795,0.005803498646989464,-0.022488625755743123
1772048350715193900,7.75419384765625,0.08818038775622844,0.0059722062774002545,-0.034869972989661616
1772048350725143600,7.7641435546875,0.20660043095350264,0.001056231054663658,-0.07161527943110559
1772048350735094800,7.7740947265625,0.0459884287148714,0.007231850949674845,-0.05695927439662628
1772048350745044700,7.784044677734375,-0.12489303860366344,-0.009876739435270428,0.048085332495463075
1772048350754995700,7.79399560546875,0.16089140370190141,0.010521686275303364,-0.042186698344349856
1772048350764946700,7.80394677734375,0.09144728059768677,0.0007784370265901088,-0.05620043711964972
1772048350774896600,7.813896728515625,-0.020626023921370504,0.003913666312396526,-0.01710131126078777
1772048350784847600,7.82384765625,0.07962590990066527,0.00024221125803887842,-0.0033293636184185743
1772048350794798600,7.833798583984375,0.08396715397536754,0.003754822488874197,-0.021068041200982407
1772048350804748800,7.843748779296875,0.05764028806388378,0.013457885857671499,-0.03868937601419165
1772048350814699800,7.85369970703125,0.05747603741288185,0.005289776971191168,-0.03136154931017663
1772048350824650800,7.863650634765625,0.027854221609234807,-0.002205035763606429,0.0023145422863774
1772048350834600700,7.8736005859375,0.05960661970078945,-0.005464475950971245,-0.01812616079649888
1772048350844551700,7.8835517578125,0.054115036547183984,0.005840688852220773,-0.03961843245865311
1772048350854501600,7.893501708984375,0.066871642267704,0.0030510581336915493,-0.03173634657247457
1772048350864452900,7.903452880859375,0.06361994699537754,-0.012030702598765491,-0.023695727390027604
1772048350874403800,7.91340380859375,0.07785890022814274,0.016239990856871007,-0.01828742033939343
1772048350884353500,7.923353515625,0.08880115000307559,0.017880451540276406,-0.03871751526328735
1772048350894304800,7.9333046875,0.07353694537580013,-0.004525441535189747,-0.034316978749400005
