time,seconds_elapsed,z,y,x
1772048343033277000,0.07227685546875,-0.0028817199636250734,0.005252347327768803,0.0050446027889847755
1772048343043228200,0.082228271484375,-0.00027288729324936867,-0.006583006586879492,-0.0018830783665180206
1772048343053179100,0.09217919921875,-0.0008567715995013714,-0.004872904624789953,-0.0011621969752013683
1772048343063129000,0.102129150390625,-0.0005659544840455055,0.0007594150956720114,0.002299646381288767
1772048343073080000,0.112080078125,0.000932016409933567,0.0010514373425394297,0.0008068671450018883
1772048343083031300,0.12203125,-0.0008272675331681967,-0.005255194380879402,-0.001535915769636631
1772048343092981000,0.13198095703125,0.0006272674072533846,-0.0042973351664841175,0.00111380685120821
1772048343102932200,0.14193212890625,0.00028478470630943775,-0.00014440156519412994,0.0001793033443391323
1772048343112883200,0.15188330078125,-0.0042416066862642765,0.003749513067305088,-0.0006885994225740433
1772048343122834200,0.161834228515625,0.0009270564187318087,-0.0014431183226406574,-0.000991134438663721
1772048343132784000,0.1717841796875,-0.001327819423750043,-0.004325990565121174,-0.002242819871753454
1772048343142735000,0.181735107421875,-0.0019038612954318523,0.0020666616037487984,0.001119420863687992
1772048343152686000,0.19168603515625,-0.002111372770741582,0.005512426607310772,0.0038023758679628372
1772048343162636000,0.201635986328125,-0.000037036603316664696,-0.0013063312508165836,-0.0009955749846994877
1772048343172587300,0.211587158203125,0.0006704649422317743,-0.004539955873042345,-0.0021041990257799625
1772048343182538000,0.2215380859375,-0.00036710244603455067,0.0018119500018656254,-0.001375025138258934
1772048343192488200,0.23148828125,-0.0007054498419165611,0.003644342767074704,0.0032895279582589865
1772048343202439200,0.241439208984375,-0.001919052330777049,0.001043499680235982,-0.00011106254532933235
1772048343212390100,0.25139013671875,0.0030080750584602356,0.00028896727599203587,-0.00009844917804002762
1772048343222340000,0.261340087890625,-0.00007533305324614048,0.0004426315426826477,-0.00000577140599489212
1772048343232291000,0.271291015625,-0.0013158500660210848,-0.0026930533349514008,0.0005467114970088005
1772048343242242000,0.281241943359375,-0.000298522412776947,-0.0014205947518348694,-0.001649330835789442
1772048343252192000,0.29119189453125,0.0012842277064919472,-0.003196630161255598,0.001018522772938013
1772048343262143200,0.301143310546875,0.000052249524742364883,-0.0035500316880643368,-0.00038895756006240845
1772048343272094000,0.311093994140625,-0.003026709659025073,0.0010342595633119345,0.002356746466830373
1772048343282044200,0.321044189453125,-0.0002229337114840746,-0.0012094536796212196,0.00025924062356352806
1772048343291995100,0.3309951171875,0.0001622457057237625,-0.0023473608307540417,0.00010031554847955704
1772048343301943000,0.340943115234375,-0.0030593799892812967,-0.0029894490726292133,0.0011173766106367111
1772048343311893200,0.350893310546875,0.00047279405407607555,-0.0005839522927999496,-0.0010973894968628883
1772048343321844200,0.36084423828125,-0.0010792962275445461,0.0023191594518721104,0.0005891905166208744
1772048343331795200,0.370795166015625,0.0016790684312582016,0.00007933052256703377,0.0014095823280513287
1772048343341745200,0.3807451171875,-0.00039207213558256626,0.0009171608835458755,0.0014865477569401264
1772048343351696100,0.390696044921875,0.0010695969685912132,-0.003506189212203026,-0.002475990913808346
1772048343361647000,0.400647216796875,0.001669607125222683,0.0023216060362756252,0.0006130100227892399
1772048343371597000,0.41059716796875,-0.0004899271298199892,-0.0001854938454926014,0.0007533584721386433
1772048343381548300,0.42054833984375,0.00026081805117428303,-0.0011104093864560127,-0.00012548454105854034
1772048343391499000,0.4304990234375,-0.00005709310062229633,0.002525043673813343,-0.00011792639270424843
1772048343401450200,0.4404501953125,0.0006225453689694405,0.002805208321660757,-0.001033254899084568
1772048343411400200,0.450400146484375,-0.0011566171888262033,-0.0016562920063734055,-0.0024281470105051994
1772048343421351200,0.46035107421875,-0.00006072642281651497,-0.00016119331121444702,-0.0011029578745365143
1772048343431302100,0.47030224609375,-0.0007057024631649256,0.0015298482030630112,0.0009086206555366516
1772048343441252400,0.48025244140625,0.0016975339967757463,-0.00041905278339982033,-0.0011710417456924915
1772048343451203000,0.490203125,0.00028028013184666634,-0.001059376634657383,-0.002256991807371378
1772048343461154300,0.500154296875,0.00017109094187617302,-0.00005669659003615379,0.0008650319650769234
1772048343471104300,0.510104248046875,-0.0017845751717686653,0.00047426437959074974,-0.000019952189177274704
1772048343481055200,0.52005517578125,0.00141308200545609,0.0034111985005438328,-0.0006487243808805943
1772048343491006200,0.530006103515625,0.00015815487131476402,-0.0015556104481220245,-0.000769847072660923
1772048343500956200,0.5399560546875,0.00031927647069096565,-0.001480243168771267,-0.0020457673817873
1772048343510907100,0.5499072265625,0.000031310366466641426,-0.001091514714062214,-0.00024607498198747635
1772048343520858000,0.559858154296875,-0.00012901192530989647,0.002396693453192711,0.0005169208161532879
1772048343530808300,0.569808349609375,0.0012090331874787807,0.002615885343402624,0.000833253376185894
1772048343540759000,0.579759033203125,0.00015601888298988342,0.001833182293921709,0.00036427052691578865
1772048343550710300,0.589710205078125,-0.0020131575874984264,-0.000028466805815696716,-0.0012577734887599945
1772048343560660200,0.59966015625,-0.00002856994979083538,0.001460239989683032,0.0025558730121701956
1772048343570611200,0.609611083984375,-0.0009317540097981691,0.0010788536164909601,-0.0018713357858359814
1772048343580562200,0.619562255859375,-0.0025568148121237755,-0.0005070585757493973,-0.001966677140444517
1772048343590513200,0.62951318359375,-0.0016001681797206402,-0.00028736237436532974,-0.0019097202457487583
1772048343600463000,0.639463134765625,-0.0008688641246408224,0.0008852272294461727,-0.0002985079772770405
1772048343610414000,0.6494140625,0.0011144450400024652,-0.0007008826360106468,-0.001487678848206997
1772048343620365000,0.659364990234375,0.00001988583244383335,-0.00398429436609149,-0.0029612062498927116
1772048343630315000,0.66931494140625,0.0006234403699636459,-0.006554443389177322,-0.007362836971879005
1772048343640266200,0.679266357421875,-0.0001848291140049696,-0.0027559767477214336,-0.002956370823085308
1772048343650217000,0.689217041015625,-0.0016840500757098198,0.0016766753979027271,-0.00437547592446208
1772048343660167200,0.699167236328125,0.00213625468313694,-0.001968126744031906,-0.0067076063714921474
1772048343670118100,0.7091181640625,-0.000782680232077837,-0.0058599840849637985,-0.007711919955909252
1772048343680069000,0.719069091796875,0.0015209540724754333,-0.004915894009172916,-0.004633039236068726
1772048343690019000,0.72901904296875,-0.0025104363448917866,0.0029855044558644295,-0.002418714575469494
1772048343699970300,0.73897021484375,-0.002809243043884635,-0.004964298103004694,-0.004043241962790489
1772048343709921000,0.748921142578125,-0.002102347556501627,0.0027657789178192616,0.001225871965289116
1772048343719871000,0.75887109375,-0.0003688959404826164,-0.008041861467063427,-0.004093259572982788
1772048343729822200,0.768822265625,0.0008886491414159536,-0.005406843964010477,-0.004378254059702158
1772048343739773000,0.77877294921875,0.0006718679796904325,0.004508371464908123,0.0035302694886922836
1772048343749724200,0.78872412109375,-0.0007051427382975817,0.0046143727377057076,0.0008227410726249218
1772048343759674000,0.798674072265625,0.0020834533497691154,-0.0037511489354074,0.0024400788825005293
1772048343769625000,0.808625,0.0004261513240635395,0.0009492654353380203,0.004630089737474918
1772048343779576000,0.818576171875,0.00006476044654846191,0.007192780263721943,0.00567617965862155
1772048343789526300,0.8285263671875,0.0009261746890842915,0.008920084685087204,0.0019881767220795155
1772048343799477000,0.83847705078125,-0.0018658832414075732,0.005019885487854481,0.0019588819704949856
1772048343809428200,0.84842822265625,-0.00001057586632668972,0.004063976462930441,0.005192045588046312
1772048343819378200,0.858378173828125,0.0005034140776842833,0.00879721250385046,0.007171839475631714
1772048343829329200,0.8683291015625,0.002182392403483391,0.012161403894424438,0.02356116473674774
1772048343839280000,0.878280029296875,0.0007280400022864342,0.030862919986248016,0.013570580631494522
1772048343849230000,0.88822998046875,0.002262515714392066,-0.019477585330605507,-0.0018799281679093838
1772048343859181000,0.89818115234375,0.0014342728536576033,-0.03659185394644737,-0.00450473977252841
1772048343869132000,0.908132080078125,0.0017792354337871075,-0.007579068653285503,0.005442282184958458
1772048343879083300,0.918083251953125,-0.002791015198454261,0.027479050680994987,0.007022868376225233
1772048343889033000,0.928032958984375,-0.002113133668899536,0.0006336146034300327,-0.0027627521194517612
1772048343898984200,0.937984130859375,0.0002914345823228359,-0.028850506991147995,-0.008505858480930328
1772048343908935200,0.94793505859375,-0.001518402947112918,-0.0160572100430727,-0.013756971806287766
1772048343918885000,0.957885009765625,0.001014795619994402,0.014061545953154564,-0.0053400518372654915
1772048343928836000,0.967836181640625,-0.0017807518597692251,0.00619539013132453,-0.0007162126712501049
1772048343938787300,0.977787353515625,-0.0017338800244033337,-0.006261811591684818,-0.005460101645439863
1772048343948737000,0.987737060546875,0.0006289242301136255,0.002916427794843912,-0.0011349841952323914
1772048343958688300,0.997688232421875,0.0008502330165356398,0.010942928493022919,0.0033385935239493847
1772048343968639200,1.00763916015625,0.0020379952620714903,0.002900684019550681,0.001451045274734497
1772048343978589200,1.017589111328125,0.000769797945395112,-0.005413172300904989,-0.0029514264315366745
1772048343988540200,1.0275400390625,-0.00037882826291024685,-0.004522760398685932,0.0038608035538345575
1772048343998491100,1.0374912109375,-0.0026350582484155893,0.00995604693889618,0.013459901325404644
1772048344008441000,1.047441162109375,-0.0018056528642773628,0.006969226524233818,0.002843511989340186
1772048344018392000,1.05739208984375,0.0003632255829870701,-0.017560351639986038,0.0012240437790751457
1772048344028343300,1.06734326171875,0.0010877326130867004,-0.02284257486462593,-0.0006726812571287155
1772048344038294000,1.0772939453125,0.002000398002564907,-0.017642220482230186,-0.011024922132492065
1772048344048244200,1.087244140625,-0.0015209242701530457,0.0017002769745886326,-0.004743437748402357
1772048344058195200,1.0971953125,0.0016359868459403515,0.016861652955412865,0.004241001792252064
1772048344068146200,1.107146240234375,0.0016896745655685663,0.014741597697138786,-0.010687276721000671
1772048344078096100,1.11709619140625,-0.00044245203025639057,-0.0019292584620416164,-0.008373523131012917
1772048344088047000,1.127047119140625,-0.0004824819043278694,0.0016762563027441502,-0.003375595435500145
1772048344097998000,1.136998046875,-0.0002281500492244959,0.004359923768788576,0.001145386602729559
1772048344107948000,1.146947998046875,-0.0007850572001188993,0.0026237228885293007,0.00349752651527524
1772048344117899300,1.156899169921875,0.0016131193842738867,-0.0017419969663023949,-0.0027667605318129063
1772048344127850000,1.16685009765625,0.002180185168981552,-0.003401109017431736,-0.0014500864781439304
1772048344137801200,1.17680126953125,0.0010954798199236393,0.008954627439379692,0.0019680806435644627
1772048344147751200,1.186751220703125,-0.003020203672349453,0.005750696174800396,-0.00088845519348979
1772048344157702100,1.1967021484375,-0.0020470847375690937,0.0035719643346965313,-0.0013031093403697014
1772048344167653000,1.206653076171875,-0.0012646985705941916,0.0030250372365117073,-0.00016517704352736473
1772048344177603300,1.216603271484375,0.0014908744487911463,0.004786984529346228,0.0022660226095467806
1772048344187554000,1.226553955078125,0.0011885017156600952,0.005251878406852484,0.0032760868780314922
1772048344197505300,1.23650537109375,-0.00043709157034754753,0.0008515373338013887,0.0027589011006057262
1772048344207455200,1.246455322265625,0.00192198995500803,0.0033386172726750374,0.003591450396925211
1772048344217406000,1.256406005859375,0.001433300320059061,0.007362919859588146,0.001987961120903492
1772048344227357200,1.266357177734375,0.002743204589933157,0.00228522764518857,0.002104318467900157
1772048344237307100,1.27630712890625,-0.000006509013473987579,-0.0002218722365796566,0.004820476286113262
1772048344247258000,1.286258056640625,-0.0015778625383973122,-0.0007765735499560833,0.0009369011968374252
1772048344257209000,1.296208984375,0.002034449018537998,0.005815815180540085,0.00231988076120615
1772048344267160000,1.30616015625,-0.0030158681329339743,-0.0010598916560411453,0.00109483627602458
1772048344277110000,1.316110107421875,0.00002093450166285038,-0.005782741121947765,-0.004279955290257931
1772048344287061200,1.326061279296875,-0.0008716639131307602,-0.006956083234399557,-0.0003474154509603977
1772048344297012000,1.336011962890625,0.0014620644506067038,-0.0036833244375884533,-0.0003961510956287384
1772048344306962000,1.3459619140625,-0.002092172158882022,-0.0005087894387543201,-0.0022193952463567257
1772048344316913000,1.355912841796875,-0.0009483445901423693,-0.0022872481495141983,-0.0020279139280319214
1772048344326864100,1.365864013671875,-0.0007864765357226133,-0.0036680884659290314,0.0005208398215472698
1772048344336813800,1.375813720703125,-0.003099698107689619,-0.003045707941055298,-0.0040139914490282536
1772048344346765000,1.38576513671875,0.0012318696826696396,-0.001789949368685484,-0.005466890521347523
1772048344356716000,1.395716064453125,-0.003978604916483164,-0.0029625394381582737,-0.003704410046339035
1772048344366667000,1.4056669921875,0.0010351352393627167,-0.0003077797591686249,-0.00351764727383852
1772048344376617000,1.415616943359375,-0.00064452039077878,0.0008685383945703506,-0.0005048131570219994
1772048344386568200,1.425568115234375,-0.0007261447608470917,-0.002544903662055731,-0.0006302604451775551
1772048344396519000,1.435518798828125,-0.0002718095201998949,-0.0005680392496287823,-0.0010497085750102997
1772048344406468900,1.44546875,-0.0035844570957124233,-0.002628578804433346,-0.0016649612225592136
1772048344416420000,1.455420166015625,0.000015870435163378716,0.0003621508367359638,0.0004676980897784233
1772048344426370800,1.465370849609375,0.0028794733807444572,0.00017584720626473427,0.002598091494292021
1772048344436321000,1.475321044921875,-0.002694522961974144,-0.001583170611411333,0.0014060605317354202
1772048344446272000,1.48527197265625,-0.0023019728250801563,-0.00002921605482697487,-0.0010813320986926556
1772048344456223000,1.495222900390625,-0.0007488173432648182,0.0005910340696573257,0.0016774365212768316
1772048344466173000,1.5051728515625,0.0006689522415399551,0.0013517646584659815,-0.0012334794737398624
1772048344476124200,1.515124267578125,0.00037280889227986336,-0.0035436581820249557,-0.0009509180672466755
1772048344486075000,1.525074951171875,-0.0009865821339190006,-0.002014376223087311,-0.0016310177743434906
1772048344496026000,1.535026123046875,-0.000344760250300169,-0.002738489769399166,-0.0008549727499485016
1772048344505976000,1.54497607421875,0.0000035811681300401688,0.0006040434818714857,0.0021437467075884342
1772048344515927000,1.554927001953125,0.00008880253881216049,-0.002003990113735199,-0.0010363338515162468
1772048344525878000,1.5648779296875,-0.00015152711421251297,-0.0012048217467963696,-0.0024554873816668987
1772048344535828000,1.574827880859375,0.0011004246771335602,0.0012631297577172518,0.0014029000885784626
1772048344545779000,1.584779052734375,-0.0015386752784252167,0.0018700850196182728,0.002487235702574253
1772048344555730000,1.59472998046875,0.0037282584235072136,-0.0014913571067154408,0.001156453974545002
1772048344565680000,1.60468017578125,0.0014448454603552818,0.0033415844663977623,-0.0005973223596811295
1772048344575630800,1.614630859375,0.0007175360806286335,-0.0008611502125859261,-0.0012639118358492851
1772048344585582000,1.62458203125,0.002357112243771553,0.0035684159956872463,0.0003494173288345337
1772048344595532800,1.63453271484375,0.0013400507159531116,0.0031953072175383568,-0.0007544630207121372
1772048344605483000,1.64448291015625,0.0014537679962813854,0.002074116375297308,-0.001075373962521553
1772048344615434000,1.65443408203125,0.0005419016815721989,0.002330046147108078,0.00009348755702376366
1772048344625385000,1.664385009765625,0.0016784630715847015,0.0033809456508606672,0.002390148350968957
1772048344635335000,1.6743349609375,-0.0008054671343415976,0.0016179329250007868,0.0013704239390790462
1772048344645286100,1.6842861328125,-0.00014806375838816166,-0.000565806869417429,0.002356016542762518
1772048344655236900,1.69423681640625,0.0021284064278006554,-0.0042039514519274235,-0.0007894430309534073
1772048344665186800,1.704186767578125,0.0005054362118244171,-0.002925677690654993,0.0008501498959958553
1772048344675138000,1.714137939453125,-0.0006301358807832003,0.0008509510662406683,0.0003609270788729191
1772048344685088800,1.7240888671875,-0.001683264970779419,0.001575298374518752,0.0005003102123737335
1772048344695040000,1.7340400390625,-0.0011841885279864073,-0.00034617213532328606,0.0021235067397356033
1772048344704990000,1.743989990234375,0.00030214153230190277,0.0015367064625024796,-0.0008176290430128574
1772048344714941000,1.75394091796875,0.000747954472899437,0.0007606614381074905,0.000917420256882906
1772048344724892000,1.763891845703125,-0.0009315276984125376,-0.000173869077116251,0.0015220586210489273
1772048344734842000,1.773842041015625,0.000939076766371727,0.00015716208145022392,-0.003690280020236969
1772048344744792800,1.783792724609375,0.00007621129043400288,0.000333873787894845,0.0006749355234205723
1772048344754744000,1.793744140625,-0.0020849439315497875,-0.001121011096984148,-0.0011866139248013496
1772048344764694000,1.803694091796875,-0.00159899378195405,0.000927117420360446,-0.0011903643608093262
1772048344774645000,1.81364501953125,-0.00048312917351722717,-0.0006292336620390415,0.0012453626841306686
1772048344784596000,1.823595947265625,-0.0012369963806122541,0.0013235181104391813,-0.0013846978545188904
1772048344794547200,1.833547119140625,0.001259717158973217,-0.00022857217118144035,-0.0018960246816277504
1772048344804497000,1.843496826171875,-0.0014567621983587742,0.0018689753487706184,0.0007769991643726826
1772048344814447900,1.85344775390625,0.00166712561622262,-0.0016485275700688362,0.00023850798606872559
1772048344824399000,1.863399169921875,-0.0014375874307006598,0.0036540923174470663,-0.00026562856510281563
1772048344834348800,1.873348876953125,0.0009664478711783886,0.0006111643742769957,-0.0022017466835677624
1772048344844300000,1.883300048828125,-0.00019010785035789013,0.0021754633635282516,0.0021549095399677753
1772048344854251000,1.8932509765625,-0.0002676057629287243,-0.0014935736544430256,-0.0015109316445887089
1772048344864201000,1.903200927734375,0.0020794887095689774,-0.0020136069506406784,-0.0018582562915980816
1772048344874152000,1.91315185546875,-0.0018585273064672947,0.0021073685493320227,0.000030191149562597275
1772048344884103200,1.923103271484375,0.0019317569676786661,0.003003746969625354,0.0027702655643224716
1772048344894054000,1.933053955078125,-0.00047893659211695194,0.003338506445288658,0.0018046032637357712
1772048344904003800,1.94300390625,0.0009435061365365982,-0.0018521873280405998,0.00007987581193447113
1772048344913955000,1.952955078125,-0.0008208379149436951,0.00199767854064703,0.0027132092509418726
1772048344923906000,1.962906005859375,0.0020215834956616163,0.0007501356303691864,0.0011441214010119438
1772048344933856000,1.97285595703125,0.00007454631850123405,-0.0005018161609768867,0.0017649042420089245
1772048344943807000,1.982806884765625,-0.0014287082012742758,-0.000718387309461832,0.001234911847859621
1772048344953758000,1.992758056640625,0.0017148868646472692,-0.0009263800457119942,-0.0008258423767983913
1772048344963708000,2.0027080078125,-0.001997885759919882,-0.0010159676894545555,-0.001882361713796854
1772048344973659100,2.0126591796875,0.0019904642831534147,0.000023996923118829727,-0.0008860728703439236
1772048344983609900,2.02260986328125,0.0013899486511945724,0.00028203194960951805,-0.00242668017745018
1772048344993561000,2.03256103515625,-0.00030488683842122555,-0.0009909593500196934,-0.00042078690603375435
1772048345003511000,2.042510986328125,0.000509197823703289,0.0011191035155206919,0.0005327085964381695
1772048345013462000,2.0524619140625,0.0004713810048997402,0.0022631974425166845,0.00009781448170542717
1772048345023413000,2.0624130859375,-0.0030821773689240217,0.0013404341880232096,0.0002779378555715084
1772048345033363000,2.072363037109375,-0.0018643138464540243,0.0014544175937771797,-0.0002445746213197708
1772048345043314000,2.08231396484375,0.0007427912205457687,0.0012215638998895884,0.0009082169272005558
1772048345053265000,2.092264892578125,-0.0013651007320731878,-0.002812592312693596,-0.00032456032931804657
1772048345063215000,2.102215087890625,-0.0009302962571382523,-0.0005743191577494144,-0.00015067216008901596
1772048345073165800,2.112165771484375,0.001525138271972537,-0.002239061053842306,-0.0021352600306272507
1772048345083117000,2.122116943359375,-0.0018741257954388857,0.002729313215240836,0.0016602627001702785
1772048345093067800,2.13206787109375,-0.00032523111440241337,-0.00042866310104727745,0.002325786743313074
1772048345103018000,2.14201806640625,0.0009309477172791958,0.0025563950184732676,-0.0005591074004769325
1772048345112969000,2.151968994140625,-0.0018544525373727083,0.002360919024795294,-0.002235034480690956
1772048345122920000,2.161919921875,0.0019781042356044054,0.001422900939360261,0.0002537090331315994
1772048345132870000,2.171869873046875,-0.0007023676298558712,-0.0011710179969668388,-0.0019303490407764912
1772048345142821000,2.181821044921875,-0.0009919661097228527,0.0007368482183665037,-0.0003848923370242119
1772048345152771800,2.191771728515625,0.000935097225010395,0.0009837232064455748,0.0029757507145404816
1772048345162721800,2.2017216796875,0.0005686318036168814,0.0008475098293274641,0.0006080986931920052
1772048345172673000,2.211673095703125,-0.00045375549234449863,0.001959645887836814,-0.0009202891960740089
1772048345182623700,2.221623779296875,-0.0020277933217585087,0.0005042103584855795,0.001096207182854414
1772048345192575000,2.231574951171875,0.0025776110123842955,0.0015194073785096407,0.0004591788165271282
1772048345202525000,2.24152490234375,-0.0009333554189652205,-0.0013829073868691921,0.00037630926817655563
1772048345212476000,2.251475830078125,-0.0006566529627889395,-0.0012321723625063896,-0.002874078694730997
1772048345222427000,2.261427001953125,0.0013357442803680897,-0.00014937249943614006,0.0024428635369986296
1772048345232377000,2.271377197265625,-0.0006922527682036161,0.0008543729782104492,-0.0005377465859055519
1772048345242327800,2.281327880859375,0.00017537991516292095,-0.00017517246305942535,0.0016959230415523052
1772048345252279000,2.291279052734375,-0.0022393083199858665,0.0006725115235894918,-0.0023233196698129177
1772048345262229000,2.30122900390625,0.0016345262993127108,0.0015276162885129452,-0.0009546959772706032
1772048345272180000,2.311179931640625,-0.0005127806216478348,0.0020514600910246372,0.0001244167797267437
1772048345282131000,2.321130859375,0.0017707888036966324,0.0033380952663719654,0.0034697994124144316
1772048345292082200,2.331082275390625,-0.0012231366708874702,0.0013159571681171656,2.3329630494117737e-7
1772048345302032000,2.341031982421875,-0.0011090626940131187,0.0025301550049334764,0.0007314104586839676
1772048345311983000,2.350983154296875,-0.0006352863274514675,-0.0016390234231948853,0.0013300888240337372
1772048345321934300,2.360934326171875,0.00004629744216799736,0.0017206277698278427,0.0004632812924683094
1772048345331884000,2.370884033203125,0.0008511047344654799,-0.00019551673904061317,-0.0020201164297759533
1772048345341835300,2.380835205078125,0.0010413138661533594,-0.0020012944005429745,-0.0017311777919530869
1772048345351786200,2.3907861328125,0.0006644765380769968,-0.0020018266513943672,-0.002209214959293604
1772048345361736200,2.400736083984375,-0.00003695441409945488,-0.0003465963527560234,-0.0003933720290660858
1772048345371687200,2.410687255859375,-0.000007127178832888603,0.002367164706811309,0.000731014646589756
1772048345381638400,2.420638427734375,0.0018223649822175503,0.00007240567356348038,0.0006182179786264896
1772048345391589000,2.430589111328125,-0.0016509296838194132,0.0014029208105057478,-0.0007250807248055935
1772048345401539300,2.440539306640625,-0.0008161161094903946,0.00048564188182353973,0.0011655082926154137
1772048345411490300,2.450490234375,0.0004273136146366596,-0.0002477928064763546,-0.0014811414293944836
1772048345421441300,2.460441162109375,0.0013217655941843987,0.0004891983699053526,0.0006384537555277348
1772048345431391200,2.47039111328125,0.0007369355298578739,0.0009318157099187374,0.0008658873848617077
1772048345441342200,2.48034228515625,0.00011278875172138214,-0.0002718297764658928,0.0014912369661033154
1772048345451293200,2.490293212890625,0.0018579582683742046,-0.0006217691116034985,0.0007719169370830059
1772048345461243100,2.5002431640625,0.0007042356301099062,0.0003437579143792391,0.002066245535388589
1772048345471194400,2.5101943359375,0.0011132971849292517,-0.00013081729412078857,-0.0009532463736832142
1772048345481145000,2.52014501953125,0.0003472873941063881,-0.0008194069378077984,-0.000007756054401397705
1772048345491095300,2.53009521484375,-0.0021821828559041023,-0.0023062494583427906,0.00016827881336212158
1772048345501046300,2.54004638671875,0.00009225006215274334,-0.0005295095033943653,0.002531191799789667
1772048345510997200,2.549997314453125,-0.0019682375714182854,0.0009179185144603252,0.0021860459819436073
1772048345520948200,2.5599482421875,-0.000019212020561099052,0.00027586822398006916,-0.000553707592189312
1772048345530898400,2.5698984375,-0.00042241462506353855,0.0030732527375221252,-0.00005862582474946976
1772048345540849200,2.57984912109375,-0.00004695332609117031,0.0008243117481470108,-0.0002711382694542408
1772048345550800400,2.58980029296875,-0.001492250943556428,0.0005324291996657848,0.001808790722861886
1772048345560750300,2.599750244140625,-0.00035142642445862293,-0.0023153945803642273,0.0009399275295436382
1772048345570701000,2.609701171875,0.0017609926871955395,0.0017555132508277893,0.00031594885513186455
1772048345580652300,2.61965234375,-0.0007373692933470011,0.0007025455124676228,0.002678787102922797
1772048345590602200,2.629602294921875,0.001803819090127945,-0.0012812432833015919,0.00008646631613373756
1772048345600553200,2.63955322265625,-0.0007696147076785564,-0.00006228592246770859,0.001327617559581995
1772048345610504200,2.649504150390625,0.000002968357875943184,0.0012708923313766718,0.0009752810001373291
1772048345620455200,2.659455078125,-0.0014778519980609417,-0.001824746374040842,0.002938621211796999
1772048345630405000,2.669405029296875,0.0007576053030788898,-0.0019895960576832294,-0.0015067271888256073
1772048345640356400,2.6793564453125,0.0018712144810706377,0.001456242986023426,0.0006300634704530239
1772048345650307000,2.68930712890625,-0.0007666468154639006,-0.00009771157056093216,0.00027799373492598534
1772048345660257300,2.69925732421875,0.0000247354619204998,-0.0007933652959764004,0.0016664187423884869
1772048345670208300,2.709208251953125,0.0015584498178213835,0.00011743605136871338,-0.004350194241851568
1772048345680159200,2.7191591796875,0.00005806214176118374,-0.0001251925714313984,-0.001317114569246769
1772048345690109200,2.729109130859375,0.00030174129642546177,0.0024522147141397,-0.0024843779392540455
1772048345700060200,2.73906005859375,-0.00189819501247257,0.001090640900656581,-0.0007533440366387367
1772048345710011100,2.74901123046875,0.003794311545789242,0.00007704179733991623,0.002944188890978694
1772048345719961000,2.758961181640625,0.0014537950046360493,0.002141976496204734,0.00151026900857687
1772048345729912300,2.768912353515625,0.0007283496670424938,0.0022777975536882877,-0.00018190359696745872
1772048345739863000,2.778863037109375,-0.00031962664797902107,-0.0012775775976479053,0.001605288591235876
1772048345749814300,2.788814208984375,0.0005594827234745026,0.0017741387709975243,0.0002521364949643612
1772048345759764200,2.79876416015625,0.0015339425299316645,-0.0010387157090008259,-0.0006839456036686897
1772048345769715200,2.808715087890625,-0.0029343089554458857,-0.0014341953210532665,0.0008636172860860825
1772048345779666200,2.818666259765625,0.000022957101464271545,0.0008090047631412745,0.0018184988293796778
1772048345789616000,2.8286162109375,-0.0029581852722913027,-0.001630451064556837,-0.0029972949996590614
1772048345799567000,2.838567138671875,-0.0008733528666198254,0.0010481278877705336,0.0015728892758488655
1772048345809518300,2.848518310546875,0.0003719411324709654,0.003140307031571865,0.0010112286545336246
1772048345819468300,2.85846826171875,0.0000998291652649641,-0.0003611855208873749,-0.0005197292193770409
1772048345829419300,2.868419189453125,0.0010479146149009466,-0.002702903002500534,0.0013000085018575191
1772048345839370200,2.878370361328125,0.0006532603874802589,-0.0004920624196529388,0.001573206391185522
1772048345849320200,2.8883203125,-0.0013073587324470282,0.000026987865567207336,0.0006363061256706715
1772048345859271200,2.898271240234375,-0.0005893430206924677,0.00046029314398765564,0.00004665553569793701
1772048345869222100,2.90822216796875,0.0010863179340958595,-0.0026753125712275505,-0.0015826663002371788
1772048345879173400,2.91817333984375,0.00009008869528770447,0.0012968832161277533,-0.0019358927384018898
1772048345889123300,2.928123291015625,-0.001261998200789094,-0.0005644001066684723,-0.00006768526509404182
1772048345899074300,2.93807421875,0.00044643436558544636,0.0017963857389986515,0.0021432151552289724
1772048345909025300,2.948025390625,-0.0011480003595352173,-0.0030026305466890335,0.001555455382913351
1772048345918975200,2.957975341796875,0.0003859021235257387,-0.0030706613324582577,-0.0009082653559744358
1772048345928926200,2.96792626953125,-0.0010961471125483513,0.0022114524617791176,0.0022244108840823174
1772048345938877400,2.97787744140625,-0.0014852301683276892,0.0005641465540975332,-0.00040635792538523674
1772048345948827400,2.987827392578125,0.00011719390749931335,-0.0011253627017140388,0.0014312230050563812
1772048345958778000,2.997778076171875,0.0011278949677944183,-0.0005218591541051865,0.000132774468511343
1772048345968729300,3.007729248046875,0.0008514588698744774,0.0008304938673973083,-0.0005348804406821728
1772048345978679300,3.01767919921875,-0.0003174280282109976,0.001452930737286806,0.0010275603272020817
1772048345988630300,3.02763037109375,-0.0012231690343469381,-0.0005883821286261082,0.0003037131391465664
1772048345998581200,3.037581298828125,-0.00012562167830765247,-0.0007568309083580971,0.0012111947871744633
1772048346008531500,3.047531494140625,-0.0006784938741475344,0.0015081875026226044,0.0026112187188118696
1772048346018482200,3.057482177734375,0.0020083081908524036,0.0006242312956601381,-0.00048089446499943733
1772048346028433400,3.067433349609375,0.0007121479138731956,0.0011936151422560215,0.0011311168782413006
1772048346038384000,3.077384033203125,-0.0009947207290679216,-0.002634049393236637,-0.00016365805640816689
1772048346048334000,3.087333984375,0.0010268848855048418,-0.0020422949455678463,-0.0003633950836956501
1772048346058285300,3.097285400390625,0.0021189784165471792,0.0011050477623939514,0.00018056435510516167
1772048346068236000,3.107236083984375,0.0015549205709248781,-0.0019003297202289104,-0.00003142328932881355
1772048346078186200,3.117186279296875,-0.0010685543529689312,0.00048305816017091274,0.0010606897994875908
1772048346088137200,3.12713720703125,0.00027687475085258484,-0.0012842155992984772,-0.0010016621090471745
1772048346098088200,3.137088134765625,0.0005252156406641006,0.0007380165625363588,0.0011110445484519005
1772048346108038100,3.1470380859375,0.0002130931243300438,-0.0013890503905713558,-0.000378195196390152
1772048346117989400,3.1569892578125,0.0005628147628158331,0.0008482113480567932,-0.00012573041021823883
1772048346127940000,3.166940185546875,-0.0006561139598488808,0.0000620461069047451,-0.002303131390362978
1772048346137890300,3.176890380859375,-0.0006900732405483723,-0.0007712347432971001,0.0005922494456171989
1772048346147841300,3.18684130859375,-0.000364901265129447,-0.0008729672990739346,-0.0013617114163935184
1772048346157792300,3.196792236328125,0.0004998880904167891,0.0000050477683544158936,0.0024064076133072376
1772048346167742200,3.2067421875,-0.0003552529960870743,-0.0005430309101939201,-0.0001598144881427288
1772048346177693200,3.216693115234375,-0.000010470859706401825,-0.000053606461733579636,-0.0011368347331881523
1772048346187644200,3.22664404296875,-0.00007465295493602753,0.0017578755505383015,-0.000154128298163414
1772048346197595100,3.23659521484375,0.001421610126271844,0.000577043741941452,0.00124408770352602
1772048346207545300,3.24654541015625,0.0004042827058583498,-0.004025164991617203,-0.001102156937122345
1772048346217496000,3.25649609375,0.001057236222550273,-0.0003765355795621872,-0.0007268036715686321
1772048346227447300,3.266447265625,0.0019901415798813105,0.0027976862620562315,-0.00036248331889510155
1772048346237397200,3.276397216796875,0.00018536066636443138,0.00025547388941049576,0.0022698265966027975
1772048346247348200,3.28634814453125,0.0016548926942050457,0.0020829348359256983,0.0024392036721110344
1772048346257299200,3.29629931640625,-0.0003295326605439186,-0.0014059171080589294,0.00036200322210788727
1772048346267249200,3.306249267578125,-0.00044937501661479473,-0.0013545178808271885,-0.0015738485381007195
1772048346277200100,3.3162001953125,0.00012248079292476177,-0.0006731776520609856,0.0006892681121826172
1772048346287151400,3.3261513671875,-0.0009201467037200928,0.0025263438001275063,0.0007888702675700188
1772048346297101300,3.336101318359375,0.001419861102476716,0.0014715641736984253,0.0027871306519955397
1772048346307052000,3.346052001953125,0.00030586053617298603,0.001542937010526657,-0.000940762460231781
1772048346317003000,3.3560029296875,-0.0007371066603809595,0.001947053475305438,-0.0010709157213568687
1772048346326953200,3.365953125,0.0006064579356461763,-0.0005350126884877682,-0.0007007359527051449
1772048346336904000,3.375904052734375,-0.0007775735575705767,-0.0012383628636598587,-0.00021739955991506577
1772048346346855200,3.385855224609375,0.0015713346656411886,0.0017885861452668905,0.003269743639975786
1772048346356806100,3.39580615234375,-0.002835877938196063,-0.0013649975880980492,-0.001094768289476633
1772048346366756000,3.405756103515625,0.0003364796284586191,-0.000049662310630083084,0.0011401562951505184
1772048346376707000,3.41570703125,0.000011713476851582527,-0.00152129540219903,0.0019197314977645874
1772048346386658300,3.425658203125,0.0007395555730909109,-0.00041981227695941925,-0.0005663293413817883
1772048346396608000,3.43560791015625,0.0018471700605005026,-0.00031309016048908234,-0.0005207248032093048
1772048346406559000,3.44555908203125,0.0007824383210390806,-0.0023275050334632397,-0.0002325708046555519
1772048346416510200,3.45551025390625,0.000884519424289465,-0.002363672014325857,0.00126736331731081
1772048346426460000,3.4654599609375,-0.00009046378545463085,-0.001580436248332262,-0.00022507226094603539
1772048346436411100,3.4754111328125,-0.0008433605544269085,-0.0012867902405560017,-0.0023627877235412598
1772048346446362000,3.485362060546875,0.0003521325998008251,-0.0032561980187892914,-0.001556649338454008
1772048346456312000,3.49531201171875,-0.0012010550126433372,0.0002809481229633093,-0.002084404695779085
1772048346466263000,3.505262939453125,0.0009768782183527946,0.0022442303597927094,-0.0013363226316869259
1772048346476214300,3.51521435546875,0.000025429297238588333,0.0003706030547618866,-0.0019446462392807007
1772048346486164000,3.5251640625,0.00013887998647987843,0.0004555580671876669,-0.0028738235123455524
1772048346496115200,3.535115234375,-0.0009308711159974337,0.0028620543889701366,-0.00032548094168305397
1772048346506066200,3.545066162109375,-0.0021362178958952427,0.0007525642868131399,0.0009099594317376614
1772048346516016000,3.55501611328125,0.000022570835426449776,-0.0009697801433503628,-0.0009815096855163574
1772048346525967000,3.564967041015625,0.0007341671735048294,-0.0019527529366314411,-0.0005346313118934631
1772048346535918000,3.57491796875,0.0009072569664567709,0.00043851020745933056,0.0018561913166195154
1772048346545869000,3.584869140625,-0.0011473714839667082,-0.0015149181708693504,0.00007187342271208763
1772048346555819000,3.594819091796875,-0.00014287559315562248,0.0023529366590082645,-0.0010660248808562756
1772048346565770200,3.604770263671875,0.001337043009698391,-0.0012138350866734982,0.0013361466117203236
1772048346575720200,3.61472021484375,-0.0004964780528098345,-0.003094784449785948,-0.00005484186112880707
1772048346585671200,3.624671142578125,0.0016087505500763655,-0.0009759734384715557,0.0011425153352320194
1772048346595622100,3.6346220703125,-0.0017730691470205784,-0.0007806806825101376,0.00044134724885225296
1772048346605573000,3.644572998046875,0.00015106447972357273,-0.001432888675481081,-0.00009954115375876427
1772048346615523000,3.654523193359375,-0.002311994321644306,-0.0010249805636703968,-0.0020833914168179035
1772048346625474300,3.664474365234375,0.0024822282139211893,0.001553491922095418,-0.0012157335877418518
1772048346635425000,3.674425048828125,0.0006073229014873505,0.00012497976422309875,-0.00003325752913951874
1772048346645375000,3.684375,0.0006246338598430157,-0.00039247237145900726,0.0006533055566251278
1772048346655326200,3.694326171875,0.0002478372771292925,-0.0002716733142733574,0.0018163265194743872
1772048346665277000,3.70427685546875,0.00008538435213267803,0.0011118389666080475,0.0020371025893837214
1772048346675227100,3.71422705078125,0.000991026870906353,0.0008741007186472416,-0.0006637158803641796
1772048346685178000,3.72417822265625,0.0001651807688176632,-0.0001216549426317215,0.001266010571271181
1772048346695129000,3.734129150390625,0.003064229153096676,-0.0007611913606524467,0.001767173409461975
1772048346705079000,3.7440791015625,0.00040026893839240074,0.001329922815784812,-0.0022387532517313957
1772048346715030300,3.7540302734375,-0.001768138725310564,0.00338187487795949,0.003015034832060337
1772048346724981000,3.76398095703125,0.0021515015978366137,-0.0036832247860729694,-0.0028015756979584694
1772048346734931000,3.773930908203125,-0.0011382740922272205,-0.006491545122116804,-0.002648928202688694
1772048346744882200,3.783882080078125,0.001359504647552967,0.00032161991111934185,-0.0003820457495748997
1772048346754833000,3.7938330078125,0.0017656134441494942,0.0034062638878822327,0.0011200685985386372
1772048346764783000,3.803783203125,-0.00006104889325797558,0.0009526936337351799,0.0007469598203897476
1772048346774734000,3.813734130859375,0.001009422354400158,-0.0020862347446382046,-0.003208010923117399
1772048346784685000,3.82368505859375,-0.00128782051615417,-0.0012843571603298187,0.0012900684960186481
1772048346794635000,3.833635009765625,0.0014205104671418667,0.0033132899552583694,0.0000342479906976223
1772048346804586200,3.843586181640625,-0.0012940496671944857,-0.0001898319460451603,0.0022329536732286215
1772048346814537000,3.853536865234375,0.00045378925278782845,-0.0008341725915670395,0.001933462917804718
1772048346824487200,3.863487060546875,-0.000992839690297842,0.0013789141084998846,0.0026767512317746878
1772048346834438100,3.873438232421875,-0.0028189215809106827,0.003666666569188237,0.00028982292860746384
1772048346844389000,3.88338916015625,0.00028259563259780407,-0.0007645669393241405,0.0005638622678816319
1772048346854339000,3.893339111328125,-0.0027099628932774067,-0.0012303432449698448,-0.0019583390094339848
1772048346864290000,3.9032900390625,0.0003366931341588497,0.0005132281221449375,-0.002623596228659153
1772048346874241000,3.913240966796875,0.000696755014359951,0.0033862553536891937,0.0009644487872719765
1772048346884192000,3.92319189453125,0.0005872990004718304,0.0016666522715240717,-0.0005940329283475876
1772048346894142200,3.93314208984375,0.0010266248136758804,-0.0018046479672193527,-0.0021487073972821236
1772048346904093000,3.943093017578125,0.0020338320173323154,-0.0002861134707927704,0.00022203847765922546
1772048346914044200,3.953044189453125,0.00018554064445197582,0.0005598587449640036,0.0007859603501856327
1772048346923994000,3.962994140625,-0.0015819994732737541,0.0004820944741368294,0.001197152305394411
1772048346933945000,3.972945068359375,0.0027030077762901783,-0.0017889640294015408,0.0014035697095096111
1772048346943896000,3.98289599609375,-0.002298142295330763,-0.0015111961401998997,-0.0010489355772733688
1772048346953846300,3.99284619140625,-0.00050369743257761,0.001071019098162651,-0.0010297289118170738
1772048346963797000,4.002796875,0.0010132391471415758,0.0005996397230774164,-0.0010987049899995327
1772048346973748200,4.012748291015625,-0.0009265986736863852,0.0002523604780435562,0.0002735918387770653
1772048346983698200,4.0226982421875,0.001823381520807743,-0.00042434874922037125,-0.0006561176851391792
1772048346993649000,4.03264892578125,-0.0019933264702558517,-0.0009353244677186012,-0.00009564077481627464
1772048347003600100,4.04260009765625,0.0027798572555184364,0.0002591032534837723,0.0018681739456951618
1772048347013550000,4.052550048828125,-0.00034783314913511276,0.0015326908323913813,-0.0023156222887337208
1772048347023501000,4.0625009765625,-0.0009808666072785854,0.0024437583051621914,0.0011419598013162613
1772048347033452000,4.0724521484375,-0.00020956480875611305,-0.00021395785734057426,-0.0005747620016336441
1772048347043402200,4.08240234375,-0.00028759543783962727,-0.0008999877609312534,-0.0006416076794266701
1772048347053353000,4.09235302734375,-0.0007946586702018976,0.00006794976070523262,0.001295813824981451
1772048347063304200,4.10230419921875,-0.000679876422509551,-0.002136880997568369,0.0037672272883355618
1772048347073254100,4.112254150390625,-0.0004401812329888344,0.001683142501860857,0.00026216544210910797
1772048347083204900,4.122204833984375,0.0008796812035143375,0.002131618792191148,-0.000851302407681942
1772048347093156000,4.132156005859375,-0.00021718814969062805,-0.0014590374194085598,0.0015117577277123928
1772048347103106000,4.14210595703125,-0.001023859716951847,0.0020273069385439157,-0.0003252909518778324
1772048347113057000,4.15205712890625,0.001226808875799179,0.0008567469194531441,0.0005543716251850128
1772048347123008000,4.162008056640625,0.00047180289402604103,0.0012716674245893955,0.0017480002716183662
1772048347132958200,4.171958251953125,-0.0012828991748392582,-0.0031615854240953922,-0.00040677934885025024
1772048347142909000,4.181908935546875,-0.0019220577087253332,0.0019492870196700096,0.002493669278919697
1772048347152860200,4.191860107421875,0.0001696813851594925,0.0008909094613045454,0.0010206806473433971
1772048347162810000,4.20181005859375,0.00028206687420606613,-0.0004902058281004429,-0.0008089113980531693
1772048347172761000,4.211760986328125,0.0008706287480890751,0.0019665732979774475,0.0003124028444290161
1772048347182712000,4.221712158203125,0.001955068204551935,0.0015886705368757248,0.00023170886561274529
1772048347192662000,4.231662109375,0.0007536467164754868,0.0016619653906673193,-0.0006716162897646427
1772048347202613000,4.241613037109375,-0.0021348176524043083,-0.00026163598522543907,0.0019052582792937756
1772048347212564000,4.25156396484375,-0.0009485147893428802,-0.0016967733390629292,0.0015499275177717209
1772048347222514200,4.26151416015625,0.0003401888534426689,0.0009914215188473463,0.0002100910060107708
1772048347232465200,4.271465087890625,0.0006657293997704983,0.001162020256742835,0.0014204001054167747
1772048347242416000,4.281416015625,0.0015288600698113441,-0.00034053530544042587,0.0009639342315495014
1772048347252366000,4.291365966796875,0.000398420263081789,-0.002362548839300871,-0.001209520734846592
1772048347262317000,4.301317138671875,0.0005044140852987766,0.0000034035183489322662,0.00043498119339346886
1772048347272268000,4.31126806640625,0.0002813003957271576,-0.00045758578926324844,0.00006653135642409325
1772048347282218200,4.32121826171875,-0.0008785061072558165,-0.0007353532128036022,0.00016027456149458885
1772048347292169200,4.331169189453125,0.0007500429637730122,0.0004247638862580061,-0.003223375417292118
1772048347302120200,4.3411201171875,-0.0010316120460629463,0.0004316880367696285,0.0016542039811611176
1772048347312070100,4.351070068359375,0.0019030789844691753,0.0022614134941250086,-0.002098767552524805
1772048347322021000,4.361021240234375,-0.0009342529810965061,0.0011167868506163359,0.0006573381833732128
1772048347331972000,4.37097216796875,0.0016411100514233112,0.0001967810094356537,0.0005104131996631622
1772048347341922000,4.380922119140625,0.0003039366565644741,-0.004230457823723555,-0.0000347355380654335
1772048347351873300,4.390873291015625,-0.003053599502891302,-0.0010102507658302784,-0.0011722077615559101
1772048347361824000,4.400823974609375,-0.00010947510600090027,-0.0009780265390872955,-0.0006821858696639538
1772048347371774200,4.410774169921875,-0.00009894906543195248,-0.0045446776784956455,0.001541612669825554
1772048347381725200,4.42072509765625,-0.0004329094663262367,0.0009275861084461212,0.00026222970336675644
1772048347391676200,4.43067626953125,-0.0031246826983988285,-0.0003674095496535301,-0.0005279476754367352
1772048347401626000,4.440626220703125,0.0015132124535739422,0.0023703197948634624,0.002896078396588564
1772048347411577000,4.4505771484375,0.00006313947960734367,-0.00011518457904458046,-0.003176573198288679
1772048347421528000,4.460528076171875,0.0029417499899864197,-0.0012446311302483082,-0.0009823949076235294
1772048347431478000,4.47047802734375,-0.0007242746651172638,-0.00323083670809865,-0.0016004289500415325
1772048347441429200,4.48042919921875,0.00004378100857138634,0.0014829582069069147,0.0009620646014809608
1772048347451380000,4.4903798828125,-0.0004398317541927099,0.0016002890188246965,0.0005821515806019306
1772048347461330200,4.500330078125,0.0007186434231698513,-0.0011321143247187138,-0.0005611437372863293
1772048347471281200,4.51028125,-0.0005357938352972269,-0.0014199642464518547,-0.00115552032366395
1772048347481232100,4.520232177734375,-0.0009909281507134438,0.00021361885592341423,0.0026269671507179737
1772048347491182000,4.53018212890625,-0.0005470283795148134,0.0009673130698502064,0.0008853580802679062
1772048347501133300,4.54013330078125,0.002719338983297348,-0.004969405941665173,-0.003636423498392105
1772048347511084000,4.550083984375,-0.0013682735152542591,0.00039176130667328835,-0.0007676822133362293
1772048347521034000,4.560033935546875,0.000960660632699728,-0.00046444498002529144,-0.0008933832868933678
1772048347530985200,4.569985107421875,0.0003612097352743149,0.0009242717642337084,-0.002206479199230671
1772048347540936000,4.57993603515625,0.00014789076521992683,-0.0013498016633093357,-0.0012908843345940113
1772048347550886100,4.58988623046875,0.001740356907248497,-0.0008657807484269142,-0.0006678206846117973
1772048347560837000,4.599837158203125,0.00008280575275421143,0.0014413157477974892,-0.001288603525608778
1772048347570788000,4.6097880859375,-0.0016851373948156834,0.0008283674251288176,-0.001588029321283102
1772048347580738000,4.619738037109375,-0.0022808867506682873,-0.001033981330692768,-0.0001235571689903736
1772048347590689300,4.629689208984375,0.00015271594747900963,-0.0018418622203171253,0.001863779965788126
1772048347600640000,4.639639892578125,0.00007575098425149918,0.0003480550367385149,0.00009544100612401962
1772048347610590200,4.649590087890625,-0.0001900161150842905,-0.002922472544014454,-0.0007765819318592548
1772048347620541200,4.659541259765625,0.00029680971056222916,-0.0013988781720399857,-0.0013299868442118168
1772048347630492200,4.6694921875,-0.000694080488756299,-0.0025813370011746883,-0.0022864839993417263
1772048347640442000,4.679442138671875,0.0015011630021035671,-0.0010161972604691982,0.0006762822158634663
1772048347650393000,4.68939306640625,-0.0009872999507933855,0.0005139212589710951,-0.00015634344890713692
1772048347660344000,4.699343994140625,0.0010806447826325893,-0.0019271322526037693,0.00005111703649163246
1772048347670294000,4.7092939453125,0.0006830515339970589,-0.00018546637147665024,0.0006498922593891621
1772048347680245200,4.719245361328125,0.0004146047867834568,-0.0014637839049100876,0.00012524938210844994
1772048347690196000,4.729196044921875,0.0021503139287233353,-0.002510278020054102,-0.0004942244850099087
1772048347700146200,4.739146240234375,-0.0008987393230199814,0.0015185521915555,0.00007489323616027832
1772048347710097200,4.74909716796875,0.00020445184782147408,-0.0007302691228687763,0.0017787860706448555
1772048347720048000,4.759048095703125,0.0008252346888184547,-0.002158522605895996,0.00044853705912828445
1772048347729998000,4.768998046875,0.0004397924058139324,-0.001909495797008276,0.0004291352815926075
1772048347739949000,4.778948974609375,0.0014302218332886696,0.0017161315772682428,-0.0008118976838886738
1772048347749900000,4.788900146484375,0.001290314830839634,0.0001440681517124176,-0.0028434842824935913
1772048347759850000,4.79885009765625,0.0021664947271347046,0.00029533589258790016,-0.0011744815856218338
1772048347769801200,4.80880126953125,-0.0011864213738590479,-0.003005494363605976,-0.001108610536903143
1772048347779752000,4.818751953125,-0.0014759069308638573,-0.0026259939186275005,0.0026174180675297976
1772048347789702100,4.8287021484375,0.0026903441175818443,0.002111825393512845,0.0014287508092820644
1772048347799653000,4.838653076171875,0.0008844546973705292,-0.003766303416341543,-0.0008839382790029049
1772048347809604000,4.84860400390625,0.0005835429765284061,0.0015034896787256002,-0.0000010239891707897186
1772048347819554000,4.858553955078125,-0.0006409785710275173,-0.0006153210997581482,-0.0006918478757143021
1772048347829505300,4.86850537109375,-0.0003323329146951437,-0.00016379030421376228,0.0001614093780517578
1772048347839455200,4.878455322265625,-0.0018332903273403645,-0.00008842302486300468,-0.0013877516612410545
1772048347849406000,4.888406005859375,-0.0019074534066021442,-0.0020273313857614994,0.000564811285585165
1772048347859357200,4.898357177734375,0.0006201528012752533,-0.0004960140213370323,0.0012702825479209423
1772048347869307100,4.90830712890625,0.0011297445744276047,-0.0016249101608991623,-0.0007009734399616718
1772048347879258000,4.918258056640625,0.00013505388051271439,0.002289670519530773,0.0008031800389289856
1772048347889209000,4.928208984375,-0.0008306335657835007,0.0014850536826997995,0.00034348201006650925
1772048347899159300,4.9381591796875,-0.0009171862620860338,0.0009319151286035776,-0.0013460274785757065
1772048347909110000,4.948110107421875,0.00276578264310956,0.0007167698349803686,-0.0012525864876806736
1772048347919061200,4.958061279296875,-0.0023381654173135757,0.0006635065656155348,0.0017173707019537687
1772048347929011200,4.96801123046875,-0.0004924971144646406,0.0005710322875529528,-0.0033731297589838505
1772048347938962000,4.9779619140625,0.0002718302421271801,0.0010924793314188719,0.0002700746990740299
1772048347948913200,4.9879130859375,0.00015870947390794754,0.0005286012310534716,0.001895066350698471
1772048347958863000,4.997863037109375,-0.001441317843273282,0.0004684138111770153,-0.000220548827201128
1772048347968814000,5.00781396484375,0.0009259548969566822,-0.0024575917050242424,-0.0010569528676569462
1772048347978765000,5.01776513671875,0.0009070467203855515,-0.0018669026903808117,0.002783058909699321
1772048347988715300,5.02771533203125,0.0008677863515913486,-0.0001853490248322487,-0.000918275211006403
1772048347998666000,5.037666015625,0.002753038424998522,-0.0012881639413535595,0.0028306569438427687
1772048348008617200,5.0476171875,0.00047955848276615143,-0.0003647482953965664,-0.0012601888738572598
1772048348018567200,5.057567138671875,0.0002550538629293442,0.000034992583096027374,-0.0006242259405553341
1772048348028518100,5.06751806640625,-0.00013698800466954708,-0.000011564698070287704,0.0002896236255764961
1772048348038469000,5.07746923828125,0.001807918306440115,0.0004275904502719641,-0.00010532326996326447
1772048348048419000,5.087419189453125,0.0025356258265674114,0.0017953631468117237,0.0015204600058495998
1772048348058370000,5.0973701171875,-0.00066975480876863,0.0008235757704824209,0.0005127196200191975
1772048348068321000,5.107321044921875,0.0017088851891458035,0.0029745688661932945,0.0003155656158924103
1772048348078271200,5.117271240234375,0.0006912914104759693,0.00011966004967689514,0.0008111800998449326
1772048348088222000,5.127221923828125,-0.0006454295944422483,0.0022872688714414835,-0.0007293401286005974
1772048348098173200,5.137173095703125,-0.00027365214191377163,0.0006835132371634245,0.0006594983860850334
1772048348108123100,5.147123046875,0.00033621909096837044,-0.0010287868790328503,0.0008841035887598991
1772048348118074000,5.15707421875,-0.0003924216143786907,0.0007422151975333691,0.00035386811941862106
1772048348128025000,5.167025146484375,-0.0002122905571013689,0.0001411857083439827,0.0017954220529645681
1772048348137975300,5.176975341796875,0.0008575012907385826,0.0004740809090435505,0.0007839533500373363
1772048348147926000,5.186926025390625,-0.001575432950630784,0.0011291871778666973,-0.0006265677511692047
1772048348157876000,5.1968759765625,0.00023844605311751366,-0.0025595570914447308,-0.0017671994864940643
1772048348167827200,5.2068271484375,-0.0007393993437290192,-0.0009673135355114937,0.0010384521447122097
1772048348177778000,5.21677783203125,-0.0017700425814837217,0.001887861406430602,-0.0007487954571843147
1772048348187728100,5.22672802734375,-0.0016586717683821917,0.0012674983590841293,0.000010301824659109116
1772048348197679000,5.23667919921875,-0.00016037747263908386,0.0019910791888833046,0.000615105964243412
1772048348207630000,5.246630126953125,0.0009682695381343365,-0.0008732485584914684,-0.0015260064974427223
1772048348217580000,5.256580078125,-0.00008447794243693352,0.0022490413393825293,-0.00012997770681977272
1772048348227531300,5.26653125,0.0003015180118381977,0.001041232142597437,0.00048158178105950356
1772048348237482000,5.27648193359375,-0.001351505983620882,-0.00018728431314229965,0.0023758881725370884
1772048348247432000,5.286431884765625,0.0014389106072485447,0.00021694321185350418,0.0025037010200321674
1772048348257383200,5.296383056640625,0.0022423863410949707,-0.0013354131951928139,-0.0009456253610551357
1772048348267334000,5.306333984375,0.00010056188330054283,0.0001657521352171898,-0.0006603868678212166
1772048348277284000,5.3162841796875,0.0048021068796515465,-0.00021960726007819176,0.0018022379372268915
1772048348287235000,5.326235107421875,-0.004856584593653679,-0.0001618354581296444,-0.0012701028026640415
1772048348297186000,5.33618603515625,0.00005774619057774544,0.0010064931120723486,0.00018558092415332794
1772048348307135500,5.346135498046875,-0.00023924955166876316,-0.0018355273641645908,0.00009483378380537033
1772048348317086500,5.35608642578125,-0.0002046283334493637,0.00031976867467164993,-0.0004423256032168865
1772048348327037700,5.36603759765625,0.0005645644851028919,0.0025283941067755222,0.00005355803295969963
1772048348336987400,5.3759873046875,-0.0009302678517997265,0.0015028109773993492,-0.0005373973399400711
1772048348346938400,5.3859384765625,0.00006612669676542282,0.0026313781272619963,-0.00045825447887182236
1772048348356889600,5.3958896484375,0.0007537547498941422,0.0011969995684921741,-0.0006409473717212677
1772048348366839300,5.40583935546875,0.00007168762385845184,-0.002300011459738016,0.0029873379971832037
1772048348376790500,5.41579052734375,0.0006258911453187466,0.0006326613947749138,0.00014068512246012688
1772048348386740500,5.425740478515625,0.0014746971428394318,-0.000019968021661043167,0.0014231721870601177
1772048348396691500,5.43569140625,-0.002044936642050743,0.0007022812496870756,0.0005568461492657661
1772048348406642400,5.445642333984375,-0.0017331684939563274,0.0013929256238043308,0.0001234174706041813
1772048348416592400,5.45559228515625,-0.0008532600477337837,-0.00009098788723349571,0.00002914154902100563
1772048348426543400,5.46554345703125,-0.0007092317100614309,-0.000007288996130228043,-0.0009252545423805714
1772048348436494600,5.47549462890625,0.000759767834097147,0.002118179574608803,0.00162552110850811
1772048348446444500,5.485444580078125,0.0008206209167838097,-0.0006524273194372654,0.0021285563707351685
1772048348456395300,5.495395263671875,-0.0011405306868255138,0.00016276631504297256,0.001662502996623516
1772048348466346500,5.505346435546875,0.0003086170181632042,-0.0006809481419622898,0.0015004663728177547
1772048348476296400,5.51529638671875,-0.0004969891160726547,-0.0015603238716721535,-0.0003094179555773735
1772048348486247400,5.525247314453125,0.0016129878349602222,0.001417113933712244,-0.0010780938901007175
1772048348496198400,5.535198486328125,0.0008976627141237259,0.0031577558256685734,-0.00017581460997462273
1772048348506148600,5.545148681640625,0.0007681408897042274,-0.001454418059438467,-0.003245788160711527
1772048348516099300,5.555099365234375,0.0007388461381196976,0.001035371096804738,-0.002594911027699709
1772048348526050600,5.565050537109375,0.00042075710371136665,-0.00034603988751769066,-0.0023384536616504192
1772048348536000500,5.57500048828125,-0.00029403530061244965,0.002418854273855686,-0.0012705260887742043
1772048348545951500,5.584951416015625,0.0005187815986573696,-0.0013334271498024464,-0.0008385046385228634
1772048348555902500,5.59490234375,0.0008988147601485252,0.00036300672218203545,0.0014254488050937653
1772048348565852400,5.604852294921875,0.0000539291650056839,0.0009037889540195465,-0.00036440789699554443
1772048348575803400,5.614803466796875,-0.0007719169370830059,0.001574905589222908,-0.000023789238184690475
1772048348585754400,5.62475439453125,0.0009295283816754818,-0.0023045106790959835,0.0016257732640951872
1772048348595704600,5.63470458984375,0.0002158009447157383,0.0004318875726312399,-0.0004088818095624447
1772048348605655600,5.644655517578125,-0.00009530363604426384,-0.0003106864169239998,-0.0013534543104469776
1772048348615605500,5.65460546875,0.0007899310439825058,-0.0014529158361256123,-0.001831758301705122
1772048348625556500,5.664556396484375,-0.001996190520003438,0.0006525886710733175,-0.0009331298060715199
1772048348635507500,5.674507568359375,-0.00013970094732940197,-0.0016065705567598343,-0.0016409982927143574
1772048348645457400,5.68445751953125,-0.0003387297037988901,-0.0004414566792547703,-0.000091583002358675
1772048348655408400,5.694408447265625,0.0003238646313548088,-0.0015080524608492851,0.00123200798407197
1772048348665359600,5.704359619140625,0.0007974579930305481,0.0008387255948036909,0.0006895097903907299
1772048348675309300,5.714309326171875,-0.000033181626349687576,0.0032893663737922907,-0.0015262402594089508
1772048348685260500,5.724260498046875,-0.0007281533908098936,0.002363826846703887,0.0005904803983867168
1772048348695211500,5.73421142578125,-0.0001228167675435543,-0.0024040304124355316,-0.0005363030359148979
1772048348705161500,5.744161376953125,-0.000048690009862184525,0.0012614431325346231,0.0006733862683176994
1772048348715112400,5.754112548828125,0.0006482596509158611,-0.0009138267487287521,-0.0006179804913699627
1772048348725063700,5.764063720703125,0.0003809393383562565,0.001690521603450179,-0.00031072692945599556
1772048348735013400,5.774013427734375,-0.0016486558597534895,0.0011392473243176937,-0.0018889158964157104
1772048348744964400,5.78396435546875,0.0028763916343450546,0.0004727877676486969,0.00041809165850281715
1772048348754915600,5.79391552734375,-0.0005982343573123217,-0.0021411050111055374,0.0008418005891144276
1772048348764865300,5.803865234375,0.0004442185163497925,-0.0020266249775886536,0.0015972773544490337
1772048348774816500,5.81381640625,-0.0006362260319292545,-0.0005083568394184113,0.002632980700582266
1772048348784766500,5.823766357421875,0.00010723015293478966,0.000360631849616766,0.0015447423793375492
1772048348794717400,5.833717529296875,-0.0018936030101031065,-0.0024631177075207233,0.0014121169224381447
1772048348804668400,5.84366845703125,-0.00023607676848769188,-0.0021231118589639664,0.0017200179863721132
1772048348814618600,5.85361865234375,0.0010297237895429134,-0.002438962459564209,-0.0005833501927554607
1772048348824569300,5.8635693359375,-0.00028673908673226833,0.0008406445849686861,0.0017671252135187387
1772048348834520600,5.8735205078125,-0.00036104139871895313,0.0006001610308885574,-0.0006683357059955597
1772048348844470500,5.883470458984375,0.0008507398888468742,-0.001249394379556179,-0.0012861625291407108
1772048348854421500,5.89342138671875,-0.00224411953240633,0.001255308510735631,0.0008238600566983223
1772048348864372500,5.90337255859375,0.0013365265913307667,-0.00015932507812976837,-0.00036345189437270164
1772048348874322400,5.913322509765625,-0.002131441608071327,-0.00000912277027964592,-0.002323271706700325
1772048348884273400,5.9232734375,0.0010372954420745373,0.002208874560892582,-0.001313172746449709
1772048348894224400,5.933224365234375,0.0015057451091706753,-0.0005474970676004887,0.0007835342548787594
1772048348904174600,5.943174560546875,0.0021305931732058525,-0.0001993156038224697,-0.0002563297748565674
1772048348914125600,5.95312548828125,0.0007827673107385635,-0.0013300939463078976,-0.00057218037545681
1772048348924075300,5.9630751953125,-0.0004407661035656929,0.0035401014611124992,-0.0007028919644653797
1772048348934026500,5.973026611328125,0.002796572633087635,-0.0008498532697558403,-0.0004717293195426464
1772048348943977500,5.9829775390625,-0.0008692576084285975,0.0008460097014904022,-0.002904098015278578
1772048348953927400,5.992927490234375,0.0006711147725582123,-0.0009002252481877804,-0.0007261647842824459
1772048348963878400,6.00287841796875,-0.0012194900773465633,0.00007066689431667328,0.0009943791665136814
1772048348973829600,6.01282958984375,-0.002158787101507187,0.002145269187167287,0.0033619292080402374
1772048348983779300,6.022779296875,0.0023934165947139263,0.00236124312505126,0.0004118382930755615
1772048348993730600,6.03273046875,-0.0009704220574349165,0.00048584514297544956,0.0022973562590777874
1772048349003681500,6.042681640625,0.001640445552766323,0.0013412146363407373,0.00041181035339832306
1772048349013631500,6.052631591796875,-0.0010120628867298365,0.00026263436302542686,-0.003079327754676342
1772048349023582500,6.06258251953125,-0.0007708927150815725,0.0035804524086415768,-0.0004254244267940521
1772048349033533700,6.07253369140625,0.0028374241665005684,-0.0005565020255744457,-0.0000057104043662548065
1772048349043483400,6.0824833984375,-0.002972307149320841,0.0019015127327293158,0.0005030371248722076
1772048349053434400,6.092434326171875,-0.0007533614989370108,-0.0009129159152507782,0.0012228894047439098
1772048349063384600,6.102384521484375,0.0006044558249413967,-0.0005528680048882961,-0.0031712441705167294
1772048349073335300,6.112335205078125,0.0012217764742672443,0.00003968551754951477,0.00046370411291718483
1772048349083286500,6.12228662109375,0.00032291747629642487,0.0023795543238520622,0.0011038528755307198
1772048349093236500,6.132236572265625,-0.0008901525288820267,0.0015358647797256708,-0.0010375948622822762
1772048349103187500,6.1421875,0.0008822749368846416,0.003014635294675827,0.0025529838167130947
1772048349113138400,6.152138427734375,-0.00015183072537183762,0.00041139544919133186,0.0013854540884494781
1772048349123088400,6.16208837890625,0.00021088169887661934,-0.0008457093499600887,-0.0000867634080350399
1772048349133039400,6.172039306640625,0.0004609525203704834,-0.000534385908395052,-0.0010295226238667965
1772048349142990600,6.181990478515625,-0.0007702067960053682,0.002200850984081626,0.00041380757465958595
1772048349152940500,6.1919404296875,0.0018916227854788303,0.0011225370690226555,0.0026796250604093075
1772048349162891300,6.201891357421875,-0.0011553012300282717,0.0003995867446064949,0.0010577808134257793
1772048349172842500,6.211842529296875,-0.0005616825073957443,0.0006605766247957945,-0.0023507988080382347
1772048349182792400,6.22179248046875,0.001732916571199894,-0.0027044168673455715,-8.535571396350861e-7
1772048349192743400,6.231743408203125,-0.0008884330745786428,0.0007430452387779951,-0.0008767670951783657
1772048349202693400,6.241693359375,0.0005928352475166321,0.0007579997181892395,0.0011403071694076061
1772048349212644600,6.25164453125,-0.00025058770552277565,0.00027676625177264214,-0.00044773565605282784
1772048349222595300,6.26159521484375,-0.0008748371619731188,-0.00033902330324053764,-0.0005880971439182758
1772048349232545300,6.271545166015625,0.000008267350494861603,-0.00017124414443969727,-0.0020459117367863655
1772048349242496500,6.28149658203125,0.0024985186755657196,0.0004809233359992504,0.001673506572842598
1772048349252447500,6.291447509765625,-0.002622473519295454,-0.00010630395263433456,0.00006522377952933311
1772048349262397400,6.3013974609375,0.002052455209195614,-0.0020205192267894745,-0.0005259700119495392
1772048349272348400,6.311348388671875,0.0011038375087082386,-0.001873512752354145,0.0007896316237747669
1772048349282299400,6.32129931640625,-0.0010873856954276562,0.000028715934604406357,-0.002034975215792656
1772048349292249300,6.331249267578125,-0.0016826021019369364,0.003657272784039378,0.0005304478108882904
1772048349302200600,6.34120068359375,-0.00035479082725942135,-0.003950835671275854,0.00005537737160921097
1772048349312150800,6.35115087890625,0.00004814565181732178,0.0014359403867274523,-0.00012039113789796829
1772048349322101800,6.361101806640625,-0.000666795065626502,0.0019977386109530926,0.0024213027209043503
1772048349332052700,6.371052734375,-0.0009831786155700684,-0.0005727442912757397,0.0005845203995704651
1772048349342003000,6.3810029296875,-0.00024850270710885525,0.00039903982542455196,-0.0003266488201916218
1772048349351953700,6.39095361328125,0.00016854843124747276,-0.0014715646393597126,0.0006731017492711544
1772048349361905000,6.40090478515625,0.0013771569356322289,0.0003110365942120552,-0.0012610526755452156
1772048349371854800,6.410854736328125,-0.00027853017672896385,-0.0001512882299721241,-0.0007364097982645035
1772048349381805600,6.4208056640625,0.003608646336942911,-0.0013177907094359398,-0.0021634879522025585
1772048349391756800,6.4307568359375,0.0006061983294785023,-0.003584673162549734,-0.0009402981959283352
1772048349401706800,6.440706787109375,-0.0013078688643872738,0.000041571445763111115,-0.0007706279866397381
1772048349411657700,6.45065771484375,0.00038883090019226074,0.0005214731208980083,0.00014603184536099434
1772048349421607700,6.460607666015625,-0.000724331708624959,-0.0007263901643455029,-0.0009715710766613483
1772048349431559000,6.470558837890625,-0.0008452392648905516,-0.0002867025323212147,0.00032885046675801277
1772048349441509600,6.480509521484375,0.00008616689592599869,0.0013166603166610003,0.0007861084304749966
1772048349451459800,6.4904599609375,-0.0011873566545546055,0.0005078581161797047,0.0018002402503043413
1772048349461410800,6.500410888671875,-0.00033357716165483,-0.001623909454792738,-0.0006577791646122932
1772048349471361800,6.51036181640625,0.0017945547588169575,-0.0009437385015189648,0.00009802589192986488
1772048349481311700,6.520311767578125,0.00010470068082213402,0.00006805593147873878,0.0018543077167123556
1772048349491262700,6.5302626953125,-0.0024029314517974854,0.0009974988643079996,-0.0012815645895898342
1772048349501213700,6.540213623046875,0.00039354152977466583,-0.003444464411586523,-0.0015233773738145828
1772048349511163600,6.55016357421875,-0.0002530741039663553,-0.004835433326661587,0.0002646693028509617
1772048349521115000,6.560114990234375,0.0009029088541865349,-0.00022935494780540466,0.00019253743812441826
1772048349531064800,6.57006494140625,0.0009955866262316704,-0.002349497750401497,-0.0012295907363295555
1772048349541015800,6.580015869140625,0.001012356486171484,0.00007223710417747498,0.001256486400961876
1772048349550966800,6.589966796875,-0.0008246917277574539,-0.00029448000714182854,-0.0013118661008775234
1772048349560916700,6.599916748046875,-0.0009304401464760303,0.0012168008834123611,0.00043440982699394226
1772048349570867700,6.60986767578125,0.0015942365862429142,0.003851998597383499,-0.0012250058352947235
1772048349580818700,6.619818603515625,-0.0005466104485094547,0.00037999521009624004,0.00016721710562705994
1772048349590769000,6.629768798828125,0.00041558966040611267,-0.0013289554044604301,-0.0027348296716809273
1772048349600719600,6.6397197265625,-0.0004525883123278618,-0.0013070739805698395,0.00048475293442606926
1772048349610669800,6.649669921875,-0.00022089318372309208,-0.00029054516926407814,-0.0017829290591180325
1772048349620620800,6.659620849609375,-0.00044142152182757854,0.00007418124005198479,-0.0008471477776765823
1772048349630571800,6.66957177734375,-0.0010419643949717283,-0.0004816204309463501,0.001715878490358591
1772048349640521700,6.679521728515625,-0.00033301301300525665,0.00071860128082335,0.00024653878062963486
1772048349650473000,6.689472900390625,-0.0009002662263810635,0.0016448486130684614,-0.0014208662323653698
1772048349660423700,6.699423583984375,-0.002746010897681117,0.001212205970659852,-0.0027038385160267353
1772048349670373600,6.70937353515625,-0.0004096196498721838,-0.004709332250058651,-0.00019167829304933548
1772048349680324900,6.719324951171875,-0.002175293629989028,-0.001977916806936264,-0.0011926088482141495
1772048349690275600,6.729275634765625,0.0005011833272874355,0.002996335504576564,-0.0017795697785913944
1772048349700225800,6.739225830078125,-0.0011241184547543526,0.0009324455168098211,-0.0005155149847269058
1772048349710176800,6.7491767578125,-0.0010799099691212177,-0.0005815615877509117,-0.00018581561744213104
1772048349720127000,6.759126953125,-0.0003554790746420622,-0.0014439099468290806,-0.001671917736530304
1772048349730077700,6.76907763671875,-0.00005507469177246094,0.0018315119668841362,-0.0017243819311261177
1772048349740029000,6.77902880859375,0.00019543524831533432,-0.0021316325291991234,0.0010754866525530815
1772048349749979000,6.788978759765625,0.0015113032422959805,-0.00005516549572348595,0.0013066492974758148
1772048349759929600,6.7989296875,0.0004951711744070053,-0.0010821386240422726,0.0008800937794148922
1772048349769879800,6.8088798828125,-0.004835145547986031,-0.0014107730239629745,0.00011976109817624092
1772048349779830800,6.818830810546875,0.0005848007276654243,0.0020126693416386843,-0.0015342840924859047
1772048349789781800,6.82878173828125,0.000684669241309166,-0.000022252090275287628,0.001202113926410675
1772048349799731700,6.838731689453125,0.0006391620263457298,0.0009194929152727127,0.00020196475088596344
1772048349809683000,6.848682861328125,-0.000223435927182436,0.00040843221358954906,0.00022140610963106155
1772048349819633700,6.858633544921875,-0.0000953820999711752,0.0003977026790380478,0.0006924690678715706
1772048349829584000,6.868583984375,0.0017347419634461403,0.00040249619632959366,0.0008879448287189007
1772048349839534800,6.878534912109375,-0.0020782477222383022,0.0033718054182827473,-0.00005985936149954796
1772048349849485800,6.88848583984375,-0.0007754294201731682,0.0011470008175820112,-0.0006585381925106049
1772048349859435800,6.898435791015625,0.00046069221571087837,-0.0028432453982532024,0.0002640099264681339
1772048349869386800,6.90838671875,0.00022393697872757912,0.0043526156805455685,-0.0006366712041199207
1772048349879337000,6.9183369140625,0.0029389122501015663,0.00226401723921299,0.0028601901140064
1772048349889287700,6.92828759765625,-0.0016928573604673147,0.0012123349588364363,0.0002039531245827675
1772048349899239000,6.938239013671875,0.0015147998929023743,0.0002951584756374359,-0.0012615583837032318
1772048349909188900,6.94818896484375,-0.0014900444075465202,-0.00009099999442696571,0.0012186435051262379
1772048349919139800,6.958139892578125,0.000544955488294363,-0.0015951539389789104,-0.0014581819996237755
1772048349929089800,6.96808984375,0.000778514426201582,-0.000656389631330967,0.000247306190431118
1772048349939040800,6.978040771484375,0.0006808079779148102,-0.0007261014543473721,-0.00011711893603205681
1772048349948991700,6.98799169921875,0.000959108117967844,-0.001474982127547264,0.0005510677583515644
1772048349958941700,6.997941650390625,-0.0022112163715064526,0.001990957884117961,0.0018374579958617687
1772048349968893000,7.007892822265625,0.0017667473293840885,0.0022255824878811836,0.0016997724305838346
1772048349978843600,7.01784375,-0.0007821563631296158,-0.0006833309307694435,-0.0016871858388185501
1772048349988793900,7.0277939453125,-0.00046683824621140957,0.0008277466986328363,-0.0017385846003890038
1772048349998744800,7.037744873046875,0.001516230870038271,0.0040822806768119335,0.0001045730896294117
1772048350008695800,7.04769580078125,-0.00209261872805655,-0.002488270401954651,0.0007186979055404663
1772048350018645800,7.057645751953125,-0.0009071137756109238,-0.0035205520689487457,-0.0008463049307465553
1772048350028597000,7.067596923828125,-0.0006384006701409817,0.0004885704256594181,-0.0001669325865805149
1772048350038546700,7.077546630859375,-0.0007226704619824886,-0.0011298572644591331,-0.0002731243148446083
1772048350048497700,7.08749755859375,-0.0009791329503059387,0.001135694095864892,-0.0007666079327464104
1772048350058449000,7.097448974609375,0.000525974202901125,0.0007077385671436787,0.00006500538438558578
1772048350068398600,7.107398681640625,-0.0006274408660829067,-0.003076347056776285,-0.0019925530068576336
1772048350078349800,7.117349853515625,-0.00092649320140481,-0.0008150418289005756,-0.0033020549453794956
1772048350088299800,7.1272998046875,0.0025947382673621178,-0.0011513992212712765,-0.0019238688983023167
1772048350098250800,7.137250732421875,-0.00032422738149762154,-0.0000103730708360672,0.002332582138478756
1772048350108201700,7.14720166015625,0.0008816518820822239,0.0010261291172355413,-0.0006930353119969368
1772048350118151700,7.157151611328125,0.00009410688653588295,-0.00018410710617899895,0.0012427465990185738
1772048350128102700,7.1671025390625,-0.0022065979428589344,0.002747234422713518,0.0012512686662375927
1772048350138053600,7.1770537109375,0.000986382830888033,-0.0024802894331514835,-0.001426386646926403
1772048350148003800,7.18700390625,0.000153345987200737,-0.0022637746296823025,-0.0006146552041172981
1772048350157954800,7.196954833984375,-0.0013476682361215353,0.0006743799895048141,-0.0012948517687618732
1772048350167904800,7.20690478515625,-0.000462433323264122,-0.000340017955750227,-0.0010285358875989914
1772048350177855700,7.216855712890625,-0.0004455558955669403,-0.001166562084108591,-0.0004816628061234951
1772048350187806700,7.226806640625,0.001606143545359373,0.0018587890081107616,0.0016664429567754269
1772048350197756700,7.236756591796875,-0.0009224426466971636,0.0029233708046376705,0.0007796408608555794
1772048350207708000,7.2467080078125,-0.0009027353953570127,-0.0005184984765946865,-0.00023262668401002884
1772048350217659000,7.256658935546875,-0.0005830146837979555,-0.0007240194827318192,0.0015715360641479492
1772048350227608600,7.266608642578125,0.002370697446167469,-0.00046835606917738914,-0.0007083960808813572
1772048350237559800,7.276559814453125,-0.0013262839056551456,0.0034042601473629475,0.0013336092233657837
1772048350247509800,7.286509765625,0.0006987839005887508,0.0017067610751837492,0.0019482667557895184
1772048350257460700,7.296460693359375,0.0017266003414988518,-0.0006092870607972145,-0.0020901430398225784
1772048350267411700,7.30641162109375,0.0009244559332728386,0.0024767841678112745,-0.0014808117412030697
1772048350277362000,7.31636181640625,-0.000441121868789196,-0.0009280582889914513,0.0010925773531198502
1772048350287312600,7.326312744140625,-0.0005617630667984486,0.003482669126242399,0.0006299861706793308
1772048350297263900,7.336263916015625,0.0010652388446033,-0.0005619130097329617,0.0012405673041939735
1772048350307218000,7.346218017578125,0.0015613860450685024,-0.0013267728500068188,0.0015287217684090137
1772048350317168600,7.356168701171875,-0.0005916014779359102,-0.0016053346917033195,0.0011015841737389565
1772048350327118600,7.36611865234375,-0.00007494818419218063,0.0006817879620939493,-0.002398076467216015
1772048350337069800,7.37606982421875,-0.00044792331755161285,-0.0004117637872695923,-0.0010455278679728508
1772048350347020500,7.3860205078125,-0.000036465004086494446,-0.001811521127820015,0.0028299042023718357
1772048350356970800,7.395970703125,-0.00010359706357121468,-0.0026439991779625416,0.00014852220192551613
1772048350366921700,7.405921630859375,0.0016985638067126274,0.001394151709973812,-0.0007755947299301624
1772048350376872000,7.415871826171875,0.0012897355481982231,0.0013439375907182693,0.0016384543851017952
1772048350386822700,7.42582275390625,-0.00023146206513047218,-0.003324050921946764,-0.0002593141980469227
1772048350396774000,7.43577392578125,0.0016988390125334263,0.001941534224897623,-0.0000179363414645195
1772048350406723800,7.445723876953125,0.0001531406305730343,-0.0023709223605692387,0.0002744789235293865
1772048350416674600,7.455674560546875,-0.00006350851617753506,-0.000765116885304451,-0.0014045038260519505
1772048350426625800,7.465625732421875,0.00012637488543987274,-0.0010894900187849998,0.0018458841368556023
1772048350436575700,7.47557568359375,0.001553987618535757,0.002090244321152568,-0.0007553026080131531
1772048350446526700,7.485526611328125,-0.0007978500798344612,-0.0008959579281508923,0.00007160892710089684
1772048350456476700,7.4954765625,-0.000857912003993988,-0.0025451905094087124,-0.0032522613182663918
1772048350466428000,7.505427978515625,-0.0001396574079990387,-0.0001158546656370163,-0.0012194705195724964
1772048350476378600,7.515378662109375,-0.0010669610928744078,0.002044910565018654,-0.002098460216075182
1772048350486328800,7.525328857421875,0.0019565257243812084,0.00040493602864444256,-0.0011932514607906342
1772048350496279800,7.53527978515625,0.0011195479892194271,0.00018184911459684372,-0.0020656432025134563
1772048350506230800,7.545230712890625,0.0002947668544948101,-0.002816870342940092,-0.0014491216279566288
1772048350516180700,7.5551806640625,0.00014853104948997498,-0.0014266720972955227,-0.0010101450607180595
1772048350526131700,7.565131591796875,0.0016361731104552746,0.000028745736926794052,0.003119618631899357
1772048350536081700,7.57508154296875,0.0023101279512047768,-0.0015531373210251331,-0.0007058773189783096
1772048350546032600,7.58503271484375,-0.0019181726966053247,-0.0001802779734134674,-0.002442790661007166
1772048350555984000,7.59498388671875,-0.00042959838174283504,-0.0013643302954733372,0.0016417130827903748
1772048350565933800,7.604933837890625,0.0005299383774399757,0.0013837853912264109,0.0008006864227354527
1772048350575884800,7.614884765625,-0.002015714067965746,-0.001064468640834093,0.001378962304443121
1772048350585835800,7.624835693359375,-0.0005323332734405994,-0.000555005855858326,0.0025558131746947765
1772048350595785700,7.63478564453125,-0.001299360767006874,0.0008335744496434927,-0.0009077265858650208
1772048350605736700,7.64473681640625,-0.0009371708147227764,0.0024932564701884985,0.0027868766337633133
1772048350615686700,7.654686767578125,-0.0012717037461698055,-0.0003728009760379791,0.002406078390777111
1772048350625638000,7.664637939453125,0.0019861413165926933,-0.0015725553967058659,-0.0011063646525144577
1772048350635588600,7.674588623046875,0.0008907741867005825,0.002911667339503765,0.0005603116005659103
1772048350645538800,7.684538818359375,-0.0009563942439854145,0.002922852523624897,0.0012487387284636497
1772048350655489800,7.69448974609375,0.00012326985597610474,-0.0014432934112846851,0.0007887245155870914
1772048350665440800,7.704440673828125,0.000045505817979574203,-0.001698424108326435,-0.0010176976211369038
1772048350675390700,7.714390625,-0.0011137407273054123,0.0014095446094870567,0.0006180163472890854
1772048350685342000,7.724342041015625,0.00016777217388153076,0.003135006409138441,0.0037541547790169716
1772048350695291600,7.734291748046875,-0.0027287842240184546,-0.004274892155081034,-0.0007742722518742085
1772048350705242600,7.74424267578125,0.0002963002771139145,-0.0020892363972961903,-0.0010083639062941074
1772048350715193900,7.75419384765625,-0.0005714597646147013,0.012366095557808876,0.012032956816256046
1772048350725143600,7.7641435546875,-0.0032316914293915033,0.05552421882748604,0.016760598868131638
1772048350735094800,7.7740947265625,-0.001000785268843174,0.0259513221681118,0.005373758263885975
1772048350745044700,7.784044677734375,0.001675957813858986,-0.00913369283080101,-0.0008575059473514557
1772048350754995700,7.79399560546875,-0.0013215707149356604,0.010905345901846886,0.005564836319535971
1772048350764946700,7.80394677734375,-0.00017507979646325111,0.017477229237556458,0.0005189450457692146
1772048350774896600,7.813896728515625,0.0004301988519728184,0.0076274448074400425,0.0010212413035333157
1772048350784847600,7.82384765625,-0.0017269616946578026,-0.004391667898744345,0.001996491104364395
1772048350794798600,7.833798583984375,0.002085568383336067,-0.0075349085964262486,-0.002008826471865177
1772048350804748800,7.843748779296875,-0.0008329900447279215,-0.0005225390195846558,0.0029531754553318024
1772048350814699800,7.85369970703125,-0.0015654966700822115,-0.0043246448040008545,0.00009253062307834625
1772048350824650800,7.863650634765625,0.0002635624259710312,-0.016374915838241577,-0.003549874760210514
1772048350834600700,7.8736005859375,0.0018494054675102234,-0.017838500440120697,-0.007480951491743326
1772048350844551700,7.8835517578125,0.0033128121867775917,-0.01923905685544014,-0.007412774953991175
1772048350854501600,7.893501708984375,-0.00010404805652797222,-0.016290316358208656,-0.0070887040346860886
1772048350864452900,7.903452880859375,0.0016344636678695679,-0.013626355677843094,-0.007137705571949482
1772048350874403800,7.91340380859375,-0.00006254762411117554,-0.009080428630113602,-0.004862050525844097
1772048350884353500,7.923353515625,-0.0013083743397146463,0.0021120384335517883,-0.0009195068851113319
1772048350894304800,7.9333046875,-0.0007402936462312937,0.0018866467289626598,-0.0015922416932880878
