time,seconds_elapsed,z,y,x
1772094079348258600,0.073258544921875,0.19406945068240164,-0.040939040937391105,-0.007817688013613223
1772094079358208800,0.083208740234375,0.1833230157405138,-0.047783486304944375,-0.03172375651896
1772094079368157700,0.09315771484375,0.04325754244625568,-0.038764190249494276,0.018475275628268718
1772094079378106600,0.103106689453125,-0.05151508318185806,-0.043918764567654575,0.07881678547486662
1772094079388055600,0.1130556640625,-0.13401625625789165,-0.032726754982466806,0.02184270623475313
1772094079398005500,0.123005615234375,-0.15320552537441254,0.007883994715474546,-0.0182516960054636
1772094079407954700,0.13295458984375,-0.08812778078615664,0.06171014045183546,-0.08735138958618044
1772094079417903600,0.142903564453125,0.04948562318086624,0.08677006430057808,-0.12198226572349667
1772094079427852500,0.1528525390625,0.2042103209465742,0.05052691239472478,-0.03907411928176879
1772094079437801500,0.162801513671875,0.2752992886483669,-0.009809923560044263,0.03340907925739884
1772094079447751400,0.17275146484375,0.2363572713136673,-0.0355230985695729,0.05945318270474672
1772094079457700600,0.18270068359375,0.1694716005206108,-0.006836974447150714,0.06660510028600693
1772094079467649800,0.19264990234375,0.07529869435131549,0.04347275609951466,0.012929039677977561
1772094079477598700,0.2025986328125,-0.00812193165719509,0.06954992156624794,-0.009176701407134532
1772094079487547600,0.212547607421875,-0.06873743613958358,0.05891219856268726,0.0031247078917920586
1772094079497497600,0.22249755859375,-0.0792196671873331,0.017508656802529002,0.008457739482820033
1772094079507446500,0.232446533203125,-0.06247369956970215,0.028848703406145794,-0.05581263424530625
1772094079517395500,0.2423955078125,-0.004849193596839905,0.030451140483969356,-0.12915610287562013
1772094079527344400,0.252344482421875,0.024915245547890662,0.032527652213792314,-0.08596344235911965
1772094079537294600,0.262294677734375,0.10011807830929756,0.03208190632384503,-0.026522096222639083
1772094079547243500,0.272243408203125,0.1457341665804386,-0.0172009265772067,-0.03475362573415041
1772094079557192400,0.2821923828125,0.1748661530405283,-0.008230312518670688,-0.06741510149464011
1772094079567141600,0.2921416015625,0.1220844109237194,0.0003003666194854304,-0.0665529317073524
1772094079577090600,0.302090576171875,0.019551088166236876,-0.011763891189009883,-0.038340690440684555
1772094079587040800,0.312040771484375,-0.008445756784081458,0.0351879369146307,-0.04038008731380105
1772094079596989700,0.32198974609375,0.02009644708931446,0.03585931967044016,-0.061901744900643825
1772094079606938600,0.331938720703125,0.1192301905363798,-0.006803120126610156,-0.011885521974414587
1772094079616887600,0.341887451171875,0.21750001063048838,-0.03164059458042029,0.0103686876706779
1772094079626837500,0.35183740234375,0.235899006152153,-0.05145762650673277,-0.010534107365459204
1772094079636786700,0.36178662109375,0.16404665286242961,-0.011592060019751079,-0.015857348214834928
1772094079646735600,0.371735595703125,0.08738426894247531,-0.0105815175706055,0.01803893003761768
1772094079656684500,0.3816845703125,0.02506663671731949,0.010909299636690411,0.017246464485675097
1772094079666633700,0.3916337890625,-0.013833295041322708,0.06860367652496788,-0.002480857030302286
1772094079676583400,0.40158349609375,-0.013465630772709845,0.07946109299408272,0.007862403938174247
1772094079686532600,0.41153271484375,0.0029401451051235196,0.02527778611681424,0.043386575653403994
1772094079696481500,0.4214814453125,0.029120880544185636,-0.052792217845050615,0.07476999430209398
1772094079706430700,0.4314306640625,0.05003390471339225,-0.08615729356394149,0.08319616960287093
1772094079716380700,0.441380615234375,0.06579086129367351,-0.022233146307466086,0.012437456768751144
1772094079726329600,0.45132958984375,0.08266542372703552,0.04930036170787643,-0.01968012137338519
1772094079736278500,0.461278564453125,0.12667115419209002,0.0537618848611135,-0.038300212299823756
1772094079746227200,0.471227294921875,0.14933599046468735,-0.006802905497478786,-0.006548252599686384
1772094079756177400,0.481177490234375,0.11347498801052569,-0.08062911386014893,0.04573708430230617
1772094079766126300,0.491126220703125,0.05316986465156078,-0.09308941264837048,0.06219298293218016
1772094079776075300,0.5010751953125,0.016736615267395973,-0.06365326474308967,0.01725479392260313
1772094079786024400,0.5110244140625,0.010816577568650246,0.009812400928209536,-0.0032400048345327375
1772094079795973400,0.520973388671875,0.051124622559547424,0.06416825592736713,-0.009021949236840009
1772094079805923600,0.530923583984375,0.11703531084060668,0.05462761657866649,-0.009782996737211943
1772094079815872500,0.54087255859375,0.19529460856318473,0.011850433536368655,-0.0032763913221657273
1772094079825821400,0.550821533203125,0.18722119222283362,-0.005380748898495221,-0.02632686591148376
1772094079835770400,0.560770263671875,0.2601666014462709,0.02631087375790812,0.03623071254938841
1772094079845720300,0.57072021484375,0.2696884630292654,-0.003383992155162559,-0.09539163430929183
1772094079855669200,0.580669189453125,0.3318950360953808,0.04981607897793874,-0.16294585201367734
1772094079865618400,0.590618408203125,0.30746552823781964,0.11731515069529413,-0.1718478281326592
1772094079875567400,0.6005673828125,0.2029167740046978,0.051448260456765996,-0.15200886293575167
1772094079885516300,0.610516357421875,0.14060323343276976,0.014682404417637735,-0.1757572566613555
1772094079895466200,0.62046630859375,0.05992284604310989,-0.07587985524013638,-0.18794994488880037
1772094079905415400,0.63041552734375,-0.09224866010844707,-0.15077048024721443,-0.17592530670464038
1772094079915364400,0.6403642578125,-0.4395961168795824,-0.15659909506915137,0.013924480456113815
1772094079925313500,0.6503134765625,-0.6020972938656807,-0.1178483716560062,0.227359141343832
1772094079935263500,0.660263427734375,-0.5519038146764039,-0.10542809435091913,0.1818938597202301
1772094079945212400,0.67021240234375,-0.4037275156408548,-0.09232047410248778,0.1402152570284903
1772094079955161300,0.680161376953125,-0.2695692205637693,-0.09839781212164088,0.14014935218542812
1772094079965110300,0.6901103515625,-0.18922785587012766,-0.051748517478397114,0.1438579974450171
1772094079975059200,0.70005908203125,-0.016238018095493315,0.05647321247931104,0.07112652323320508
1772094079985009400,0.710009521484375,0.15004033934175967,0.13238712981925346,0.013358224875479935
1772094079994958300,0.719958251953125,0.29302257686555383,0.13907111022835597,-0.003994184202700853
1772094080004907300,0.7299072265625,0.35493864255249497,0.08873559221988543,0.01987549781501293
1772094080014856400,0.7398564453125,0.31274259185791015,-0.00776277948860079,0.11806757649779319
1772094080024806100,0.74980615234375,0.20834639783799647,-0.0015612123015802354,0.19508944137990475
1772094080034755600,0.759755615234375,0.12728373313248156,0.04684531953884288,0.19754428718611597
1772094080044704500,0.76970458984375,0.14835048655867575,0.010045264402590692,0.11772431601807475
1772094080054653400,0.7796533203125,0.29024200623631474,-0.12165610250905155,-0.27480814413055776
1772094080064603400,0.789603271484375,0.2787713486731052,0.14621841556658036,-0.27770138135403394
1772094080074552300,0.79955224609375,0.08150982395112515,0.24706350210933015,-0.1131961710691452
1772094080084501200,0.809501220703125,-0.15269056158959865,0.06477719987225719,0.09609729836061597
1772094080094450400,0.819450439453125,-0.08332651798427104,-0.21111933315005152,0.1046982457064092
1772094080104399400,0.8293994140625,0.25092940202355385,-0.2819592397279106,0.1042911262102425
1772094080114349300,0.839349365234375,0.3815811502844095,-0.07875302692311816,0.026003917567431926
1772094080124298200,0.84929833984375,0.2309761627972126,0.061705884401826186,-0.13202610535398124
1772094080134247400,0.859247314453125,0.04329904350042343,0.12402242064843885,-0.08327230357900262
1772094080144196400,0.8691962890625,-0.11942483632564543,-0.026250640603806823,-0.055249155143648386
1772094080154146600,0.879146484375,-0.11033142928779124,-0.11668294460582546,-0.03665288348421454
1772094080164095500,0.889095458984375,-0.033708792856335636,-0.09424831862621941,-0.06679302407354117
1772094080174044400,0.89904443359375,0.012684709528088568,-0.07691819444508291,-0.10086801989376544
1772094080183993300,0.908993408203125,0.0568073443710804,-0.057703982683550564,-0.08147153776735067
1772094080193942300,0.9189423828125,0.10583528691232204,-0.04702164422012865,-0.06729629742056131
1772094080203892500,0.928892578125,0.07346212657392025,-0.04363088753698394,-0.0908420081809163
1772094080213841400,0.93884130859375,0.10844400810599326,-0.057782336016232144,-0.09435030856281518
1772094080223790300,0.948790283203125,0.11230185257792472,-0.014415195715660228,-0.08246303302273154
1772094080233739300,0.9587392578125,0.07372925307750701,0.04317871418953873,-0.021062077251076696
1772094080243689200,0.968689208984375,0.14530921916663647,-0.022298112718900663,-0.026079320891201494
1772094080253638100,0.97863818359375,0.2617734521210193,-0.06920456959414295,-0.07316942723765969
1772094080263587600,0.988587646484375,0.24414894810318946,-0.012700281556556,-0.09928557300791144
1772094080273536500,0.99853662109375,0.10611293480992316,-0.010093432659562676,-0.05508548901453614
1772094080283485400,1.0084853515625,-0.0004524199426174164,-0.026024951222306116,0.023860914189368487
1772094080293435400,1.018435302734375,0.016710311782360075,-0.04905404509687796,-0.012058686584234236
1772094080303384300,1.02838427734375,0.05850596498250961,-0.03366238729818724,-0.07737272414639591
1772094080313333200,1.038333251953125,-0.04056581914424896,-0.025928687773598358,-0.050824178308248515
1772094080323282400,1.048282470703125,-0.12017068625688553,-0.02830247683338821,-0.022524112627655267
1772094080333232400,1.058232421875,-0.1213438216894865,-0.03826051961025223,-0.014486790513992308
1772094080343181300,1.068181396484375,-0.09362111750543117,-0.0361895037561655,0.03509337908253073
1772094080353130200,1.078130126953125,-0.07394786426424979,-0.06682712727254256,0.03618687340766191
1772094080363079400,1.088079345703125,-0.05037409645318985,-0.08014503840394317,0.036837154009938235
1772094080373029400,1.098029296875,0.012531564792990684,-0.036906282856548206,-0.02042304869517684
1772094080382978600,1.107978515625,0.01096972230374813,0.015629147215839474,-0.15276947204470634
1772094080392927500,1.117927490234375,-0.04849661214351654,0.04529387057945132,-0.1986085554167628
1772094080402876400,1.12787646484375,0.005872106903791427,0.05045414855261333,-0.13873042529821394
1772094080412825300,1.137825439453125,0.12966682887673378,-0.011212298887968063,-0.05700827377066016
1772094080422775300,1.147775390625,0.2797662049293518,-0.03584500116743147,0.0338226284943521
1772094080432724500,1.157724365234375,0.36633389679193495,-0.01195022124107927,0.002493278120458126
1772094080442673400,1.16767333984375,0.34283260969519613,0.002652478137006983,-0.048904023900628084
1772094080452622300,1.177622314453125,0.29235914452075956,-0.008104368601040914,-0.039946810463070866
1772094080462572300,1.187572265625,0.185588622584939,-0.025685426202788946,0.02053527689799666
1772094080472521200,1.197521240234375,0.09266483969390392,-0.002771400942094624,-0.024428484944254158
1772094080482470400,1.207470458984375,-0.01002162779867649,0.023024910889798775,-0.0390370021417737
1772094080492419600,1.217419677734375,-0.1276777008861303,0.049661463804962114,0.030519641426205633
1772094080502368500,1.227368408203125,-0.101305242267251,0.03875240391357802,0.03390782255977392
1772094080512318500,1.237318359375,-0.029388591569662094,-0.0495940519914031,0.06033639528006315
1772094080522267400,1.247267333984375,0.14163842169940472,-0.12565763890114612,0.0050488078221678735
1772094080532216300,1.25721630859375,0.18942542426884174,-0.01536383821000345,0.01427650876417756
1772094080542165200,1.267165283203125,0.033082769912481304,0.1293149649654515,0.13988909381404518
1772094080552115500,1.277115478515625,0.06545943738222122,0.035648136021615935,-0.055744099053740497
1772094080562064400,1.287064453125,0.11751929496526717,0.03559028662084602,-0.09256795519068836
1772094080572013300,1.297013427734375,0.12279285145401954,0.0295059434721712,-0.03270473038032651
1772094080581962200,1.306962158203125,0.04268880264759063,-0.03825385240744799,-0.013811813861876725
1772094080591912200,1.316912109375,0.021428572475910186,-0.02246577916969545,-0.024106997904926538
1772094080601861400,1.326861328125,-0.03397065866291523,-0.035381219580583274,-0.02103475085273385
1772094080611810600,1.336810546875,-0.008029577198624611,-0.005890382345998659,-0.03467398462668061
1772094080621759500,1.346759521484375,0.007092588609457016,0.016577689245482904,-0.06018529637157917
1772094080631708400,1.35670849609375,0.07498246800899505,-0.005355453485390171,-0.005663286458700895
1772094080641658400,1.366658447265625,0.22356559427976608,0.036941582498792556,-0.06646613020673393
1772094080651607300,1.376607177734375,0.2803723541289568,-0.0035852746082469817,-0.08326558157727122
1772094080661556500,1.386556396484375,0.20763152756690978,-0.030809372487245124,-0.07562135043442249
1772094080671505400,1.39650537109375,0.05794190135896206,-0.01262693319255486,-0.07750935613811015
1772094080681455400,1.406455322265625,-0.07421206815838813,0.03808157828019466,-0.07624094363749027
1772094080691404300,1.416404296875,-0.015231471401453017,0.011556404184480198,-0.08290931548550724
1772094080701353200,1.426353271484375,-0.04018354182839393,-0.030045836202264763,-0.05663651784881949
1772094080711302400,1.436302490234375,-0.09819441677033901,-0.029192936566821297,0.025522856052219867
1772094080721252400,1.44625244140625,-0.13151391804814339,-0.036429376926645635,0.008186959717422723
1772094080731201500,1.456201416015625,-0.1068605383068323,0.026198024500580504,-0.051662090437114234
1772094080741150500,1.466150390625,-0.07696224364936351,0.01612872163527645,-0.041188334956765174
1772094080751099600,1.476099609375,-0.02277823351919651,0.024647945514367893,0.023084961380809545
1772094080761048600,1.486048583984375,0.08032499808073043,-0.021943088736152274,0.026586101369559762
1772094080770998500,1.49599853515625,0.11726444342136383,-0.05532594670690596,0.1005417105488479
1772094080780947700,1.50594775390625,0.24375556487143038,-0.03603890717118047,0.08221811835095286
1772094080790896600,1.515896728515625,0.308386150214076,-0.05057633189386688,-0.030003508597612378
1772094080800845600,1.525845458984375,0.3417085741013288,0.06988034996385686,-0.1169233748987317
1772094080810795500,1.53579541015625,0.34468262147605416,0.1070514943016693,-0.17513707893639802
1772094080820744400,1.545744384765625,0.25631927836835383,0.009776621795352547,-0.10163593552634119
1772094080830693400,1.555693359375,0.07895897042453288,-0.02987511471128091,-0.0043858138687908645
1772094080840642800,1.565642822265625,-0.12289222017526626,-0.06696818427762483,0.0235585702419281
1772094080850592500,1.575592529296875,-0.18440204314887523,-0.04017620790530927,-0.052342181655764576
1772094080860541700,1.585541748046875,-0.09106500328183173,0.00708013098668307,-0.05964066810086369
1772094080870490600,1.59549072265625,0.07081833406686783,-0.03869130310979672,-0.04678790852949023
1772094080880439600,1.605439453125,0.1824678602159023,-0.07308153432507533,-0.03180617410540581
1772094080890388500,1.615388427734375,0.07585340562462806,-0.06216735073400195,-0.02804360670149326
1772094080900338700,1.625338623046875,-0.02567512400448322,0.0023111949852434917,-0.056542702085524796
1772094080910287600,1.63528759765625,0.012273206117749213,0.038136281309230254,-0.0598189472772181
1772094080920236500,1.645236572265625,0.10432020617425442,-0.027299578834581187,-0.03122062930241227
1772094080930185500,1.655185546875,0.24298867215216158,0.0023159990245243535,-0.0734179951712489
1772094080940135400,1.665135498046875,0.2548158880680799,0.01933169152820483,-0.112992319060117
1772094080950084600,1.675084716796875,0.12830197026431558,-0.005078029350074939,-0.0686072338886559
1772094080960033500,1.685033447265625,-0.012034721186757087,-0.01970591340176761,0.017304186022281644
1772094080969982700,1.694982666015625,-0.1349374627560377,-0.05093489497399423,0.09489815170392393
1772094080979932700,1.7049326171875,-0.17033201674222945,-0.04993255409761332,0.0931210590288043
1772094080989881600,1.714881591796875,-0.16218787325322628,-0.009322694882238284,0.035894904723763464
1772094080999830500,1.72483056640625,-0.1009393315643072,0.04556405212322715,-0.01325914841517806
1772094081009779700,1.73477978515625,-0.02249064874947071,0.06309992344295606,-0.030171997032314535
1772094081019729700,1.744729736328125,0.0670201108276844,0.04528967846152372,-0.01591989205703139
1772094081029678600,1.7546787109375,0.14557108497321605,-0.0012933688453631476,0.00011295885518193244
1772094081039627500,1.76462744140625,0.17064999665021896,-0.0517771910170326,0.03725640233531594
1772094081049576400,1.774576416015625,0.16824936524927614,-0.08214560110401362,0.026853520134091376
1772094081059525400,1.784525390625,0.15263912366330623,-0.08983931567808613,-0.017648469415307046
1772094081069475600,1.7944755859375,0.0805184748262167,-0.07335284381343517,-0.06772782070562243
1772094081079424500,1.804424560546875,0.0644271717250347,-0.0948791821419727,-0.0796314628586173
1772094081089373700,1.814373779296875,-0.0358802916765213,-0.08880958903785795,-0.08056129105463623
1772094081099322600,1.824322509765625,-0.002732639834284782,-0.09427928002006374,-0.04427037275061011
1772094081109272600,1.8342724609375,0.03164659962952137,-0.10517470411173999,-0.03778305655792355
1772094081119221800,1.8442216796875,0.11886954053044319,-0.10574848541170358,-0.058941287659853694
1772094081129170700,1.854170654296875,0.1010959834307432,-0.053105000988114624,-0.09757833069860934
1772094081139119600,1.86411962890625,0.06475099685192108,-0.05517990756602958,-0.1128735149860382
1772094081149068500,1.874068603515625,0.021325696623325348,-0.0693557233015541,-0.09798106628060341
1772094081159018500,1.8840185546875,-0.009772621473670005,-0.07153787594649474,-0.056639732719212764
1772094081168967400,1.893967529296875,-0.01348550451695919,-0.07226738209770991,-0.03313829949200153
1772094081178916600,1.90391650390625,0.060866264373064034,-0.07564247085426468,-0.03302081059217453
1772094081188865500,1.913865478515625,0.15011340457797048,-0.05028158216441515,-0.03596417056769132
1772094081198815500,1.9238154296875,0.1968687260121107,-0.0163756364678964,-0.05854308212250471
1772094081208764700,1.9337646484375,0.19202713119983672,-0.004864190236572176,-0.06646759151145816
1772094081218713600,1.943713623046875,0.14152619349658488,-0.016794957858510314,-0.06434636157378554
1772094081228662500,1.95366259765625,0.03488485089838505,-0.03983683358284179,-0.017207155388593673
1772094081238612700,1.96361279296875,-0.0481932452827692,-0.026619167955522424,0.018126316060125828
1772094081248561700,1.973561767578125,-0.02484218031167984,-0.031140284942043944,0.004802139584720135
1772094081258510600,1.983510498046875,0.046696284723281856,-0.019547708899062127,-0.015044716657698154
1772094081268459500,1.99345947265625,0.09579086275994778,0.010904739909293129,-0.018702070121467112
1772094081278408400,2.003408447265625,0.0987134722083807,0.04718680818658322,-0.0500220681451261
1772094081288358700,2.013358642578125,0.07640928594172,0.04279667890227865,-0.0368922451980412
1772094081298307600,2.0233076171875,0.06781564511954784,0.016936594818904995,-0.007969225313514471
1772094081308256500,2.033256591796875,0.03872165258228778,-0.03605330558929126,-0.006414981608837842
1772094081318205700,2.043205810546875,0.028063480445742604,-0.04938224957135971,-0.0058420040264725685
1772094081328155400,2.0531552734375,0.04566285002231597,-0.03957816894692369,-0.005709609818458557
1772094081338104600,2.0631044921875,0.021361352458596227,-0.026652462870348243,-0.028461832113564012
1772094081348053800,2.0730537109375,0.029815877071022987,0.004787859897618181,-0.05370850157290697
1772094081358002700,2.083002685546875,0.03367605963051319,0.005801416287757456,-0.05860840244367718
1772094081367952600,2.09295263671875,0.045131519624590874,0.0019902605017647146,-0.05467807725742459
1772094081377901600,2.102901611328125,0.0691202979773283,-0.01129689929834567,-0.03173646987006068
1772094081387850500,2.1128505859375,0.09922083720862865,-0.04663798323136288,0.0026774025157094
1772094081397799400,2.12279931640625,0.13704466416835784,-0.05698523082179017,0.023345804274082182
1772094081407749600,2.13274951171875,0.11737141092717647,-0.040229627726133914,0.022050942157953977
1772094081417698600,2.142698486328125,0.11238894633948802,-0.018798657797160556,0.00015825930163264275
1772094081427647500,2.1526474609375,0.08751870897710323,-0.003182491077191662,-0.05006766085252166
1772094081437596700,2.1625966796875,0.049026188975572586,0.009786266406532377,-0.06918386473283171
1772094081447545600,2.172545654296875,0.019684943678975105,0.01376252451018663,-0.0465061689786613
1772094081457495800,2.182495849609375,-0.03340308790802955,-0.01577239846129669,-0.04307107996344566
1772094081467444700,2.19244482421875,-0.05077741655707359,-0.00326991134902928,-0.021546499767154455
1772094081477393700,2.2023935546875,-0.032222353690862654,0.0003828846706310287,-0.015291384895145893
1772094081487342600,2.212342529296875,-0.0016775778234004973,-0.02675875680601457,0.012361907314509153
1772094081497292500,2.22229248046875,0.028549802657961844,-0.03327147915130481,0.04124547197148204
1772094081507241500,2.232241455078125,0.026972178077697754,-0.006358808141923509,0.008673428060114383
1772094081517190700,2.242190673828125,-0.004144260197877884,0.05671075212880969,-0.039569209322333335
1772094081527139600,2.2521396484375,0.005263619616627693,0.06863849211002233,-0.023052520415931938
1772094081537089500,2.262089599609375,0.03415419853627682,0.044183141991728916,0.013130991990864276
1772094081547038500,2.27203857421875,0.08513327514529227,0.005876584432797972,0.050698798362910746
1772094081556987600,2.281987548828125,0.13373802383840083,-0.020020349645800888,0.03348462871164083
1772094081566936600,2.2919365234375,0.1939104607284069,0.0005967740164836868,-0.01771393586695194
1772094081576885500,2.301885498046875,0.23951661212742328,0.02926649042679928,-0.09700228437632322
1772094081586835700,2.311835693359375,0.2106365546017885,0.08921166703272611,-0.12354366982132196
1772094081596784600,2.32178466796875,0.15342296751737594,0.06966279822303913,-0.08101692586764693
1772094081606733600,2.331733642578125,0.10517243908941745,0.002956196624203585,-0.020319880581647156
1772094081616682500,2.3416826171875,0.06316343539953231,-0.07054052177248522,0.03904328575208783
1772094081626632700,2.3516328125,-0.014639350727200507,-0.09023549365513026,0.04121507683321833
1772094081636581600,2.36158154296875,-0.08853636158704757,-0.03913148462534882,0.005974252104014158
1772094081646530600,2.371530517578125,-0.06492810698449611,0.0029688346267794257,-0.029963907239586113
1772094081656479500,2.3814794921875,0.05880407114624977,-0.019952789418480825,-0.030810294935852287
1772094081666429400,2.391429443359375,0.12564298018813133,-0.028561225950985678,-0.006872808378934859
1772094081676378400,2.40137841796875,0.1271469550102949,0.0431564201593399,-0.05184826065897941
1772094081686327800,2.411327880859375,0.11532090813815593,0.04177911305730231,-0.07910992320254445
1772094081696276700,2.42127685546875,0.048210196417570114,-0.07214436763939447,-0.025024405010789633
1772094081706225700,2.4312255859375,0.05629004249870777,0.0014630948225036263,0.11255918833985924
1772094081716175600,2.441175537109375,0.05345277324616909,-0.025317944597266613,-0.03930047538354993
1772094081726124500,2.45112451171875,-0.07558452555537223,-0.060621276636049146,-0.11967457330301404
1772094081736073500,2.461073486328125,0.032223522734642025,-0.004682846886874177,0.044472032802551985
1772094081746023200,2.471023193359375,0.13338906427025793,0.033743462310917675,-0.06940978244319558
1772094081755973000,2.48097314453125,0.08916822974979877,-0.010835149838379583,-0.13122370292991398
1772094081765922000,2.490922119140625,-0.04674480004012584,0.005183233015419682,-0.04311477297469973
1772094081775871000,2.50087109375,-0.12028525254726409,-0.019073355685849672,0.0010099076949059962
1772094081785820000,2.51081982421875,-0.07780337064862251,-0.024449628196982664,0.0449332205735147
1772094081795770000,2.52077001953125,0.017114216408133504,-0.0777812866809778,0.027948768024891612
1772094081805719000,2.530718994140625,0.1349514912813902,-0.06117190082271117,0.01231821430325508
1772094081815668200,2.540668212890625,0.20566285784244537,0.0333037671358441,-0.024812661956250665
1772094081825617200,2.5506171875,0.1997322987496853,0.09302735286336392,-0.05421528205126524
1772094081835566000,2.560566162109375,0.14799042107462881,0.11528842150750569,-0.007448270179331302
1772094081845516300,2.570516357421875,0.10716741229891777,0.033134778660931626,0.011150047306716442
1772094081855465200,2.58046533203125,0.09476853397488594,-0.03825034299282124,0.024901947674900293
1772094081865414100,2.5904140625,0.10017945310771464,-0.05259538009869866,0.05528188836947083
1772094081875363000,2.600363037109375,0.09409750284552573,-0.017284965298580937,0.027060587013512848
1772094081885313000,2.61031298828125,0.05616027863919735,0.0051327163960901085,-0.02034706084951758
1772094081895262200,2.62026220703125,0.03440495842695236,0.026915678100509103,-0.03752922792732715
1772094081905211100,2.630211181640625,0.014600187760591505,0.041924668140988795,-0.019352642984688282
1772094081915160000,2.64016015625,-0.01028349360525608,0.014091480186628176,0.002785539065301418
1772094081925110000,2.650110107421875,-0.03451426402032375,0.009334762062656227,0.014251082061976193
1772094081935059000,2.660058837890625,-0.034200375765562056,0.012017263161879963,0.01932940823957324
1772094081945008000,2.670008056640625,0.005001169288158416,-0.011704690081370062,0.009913198988139629
1772094081954957000,2.67995703125,0.08672785086035728,-0.04230376711906865,-0.028798370591551065
1772094081964907300,2.6899072265625,0.16241934392154217,-0.03870058239479549,-0.057405456394702195
1772094081974856200,2.699856201171875,0.1670838286012411,-0.03010713565215701,-0.07248232175633311
1772094081984805000,2.70980517578125,0.06321779593527317,-0.06095176439916249,-0.03907002762854099
1772094081994754000,2.719754150390625,-0.04722235442399978,-0.04343812317755073,-0.006766717655956745
1772094082004704300,2.729704345703125,-0.04341419431269169,-0.03709172242605127,0.0027181729175150392
1772094082014653200,2.739653076171875,0.03471475502848625,-0.017337435271334835,-0.04561199661791324
1772094082024602000,2.74960205078125,0.08899754935801028,0.01980743754748255,-0.08250234211981296
1772094082034551000,2.759551025390625,0.1182721591591835,0.01969132318741176,-0.0891590235300362
1772094082044500200,2.769500244140625,0.10662322241961955,-0.005975185969064477,-0.08167334394976496
1772094082054450000,2.779449951171875,0.09177870450913905,-0.03251015993958572,-0.06590235884413123
1772094082064399000,2.789399169921875,0.1142068094164133,-0.049087097983108834,-0.0478077530965209
1772094082074348300,2.799348388671875,0.14588029705286026,-0.0416408279646188,-0.05971344107612967
1772094082084297200,2.809297119140625,0.15607026715576647,-0.009258418023970443,-0.10078516391590236
1772094082094247200,2.8192470703125,0.052152212041616436,0.03559023638849612,-0.1071197737649083
1772094082104196000,2.829196044921875,-0.06240940216183662,0.02960172058040043,-0.07468538475856185
1772094082114145000,2.83914501953125,-0.06851181069016456,-0.02997316369169857,-0.022672435057163237
1772094082124094000,2.849093994140625,-0.02259703173339367,-0.0755889825347811,-0.02312368595600128
1772094082134043100,2.859043212890625,0.052662499651312825,-0.06185118375718593,-0.017169161465764044
1772094082143993000,2.8689931640625,0.10835106912553309,-0.03351630477482686,-0.02939092965722084
1772094082153942000,2.87894189453125,0.12682839058041573,-0.02008582523060031,-0.040369858180731535
1772094082163891200,2.88889111328125,0.07495616452395916,-0.014999787245650077,-0.04264481737539172
1772094082173840100,2.898840087890625,-0.01849602615535259,0.018841955799481364,-0.04132847407981753
1772094082183790000,2.9087900390625,-0.09394435811042785,0.04736318766679615,-0.015866992826014756
1772094082193739300,2.9187392578125,-0.11334522415101528,0.0446368679754436,0.003332797684520483
1772094082203688200,2.928688232421875,-0.07052665764391422,0.034754726279270835,0.0008148235142230987
1772094082213637000,2.93863720703125,-0.005574000740051269,0.02912526902493555,0.001936667151004076
1772094082223587000,2.948587158203125,0.10285480979681015,0.029913592691300436,0.023796032259613274
1772094082233536000,2.958535888671875,0.21859189752042293,0.03231837511097546,0.02041705734580755
1772094082243485200,2.968485107421875,0.3082861969709396,0.04863944554715417,0.0007496493235230445
1772094082253434000,2.97843408203125,0.3322188612222671,0.0666036024486646,-0.03040025283023715
1772094082263384000,2.988384033203125,0.3133721219331026,0.05614730499319266,-0.05247559877708554
1772094082273333000,2.9983330078125,0.18199615105092523,0.043404732364602384,-0.0690427026964724
1772094082283282000,3.008281982421875,0.06510930877029895,0.008001609196176287,-0.04404357825741172
1772094082293231000,3.018231201171875,-0.0048310734182596205,-0.06598589980858378,-0.014493512515723705
1772094082303180300,3.02818017578125,-0.04484744198620319,-0.06513042462356389,-0.007694207764416932
1772094082313130200,3.038130126953125,-0.08862988508939743,-0.02985475462655304,0.004490881678462028
1772094082323079200,3.0480791015625,-0.08410451661944389,-0.006290523541285074,0.017730302479863166
1772094082333028000,3.058028076171875,-0.058308396583795545,0.04003724239261355,-0.03393763317614794
1772094082342977000,3.06797705078125,-0.046780455875396726,0.07099326137551105,-0.07788476532176136
1772094082352927200,3.07792724609375,-0.03375438556373119,0.05630710779794026,-0.06555544510260224
1772094082362876200,3.087876220703125,0.0071639002799987785,0.010019375334441428,-0.03380918449088931
1772094082372825000,3.0978251953125,0.037361470144987106,-0.05062332197390496,-0.01801291881352663
1772094082382774000,3.10777392578125,0.07989478996992111,-0.06066833064816892,-0.008952975653856993
1772094082392724000,3.117723876953125,0.12549860328137874,-0.016761804507579654,-0.02525426824390888
1772094082402673000,3.1276728515625,0.14276888703405857,0.03458300014128908,-0.0443101202391088
1772094082412622300,3.137622314453125,0.178986447840929,0.08137604150362313,-0.04460778801143169
1772094082422571300,3.1475712890625,0.16212883654236793,0.07323005311740562,-0.030054800393432377
1772094082432520200,3.157520263671875,0.13001286583542823,0.03436980719846906,-0.010353782362490892
1772094082442470100,3.16747021484375,0.05651683699190616,0.015570119638135656,0.022418460296094418
1772094082452419000,3.177419189453125,-0.05591361040174961,0.027005443309771362,0.03988324370756745
1772094082462368000,3.187367919921875,-0.09567045125067233,0.04858909903282765,0.025131518647074698
1772094082472317200,3.197317138671875,-0.07621230206489563,0.05985265775057487,0.01070332645252347
1772094082482267100,3.20726708984375,0.012307692909240721,0.04286303583648987,0.008064648512005805
1772094082492216000,3.217216064453125,0.08031798381805419,0.03674236099910922,-0.002407791794091463
1772094082502165000,3.2271650390625,0.130388128888607,0.03402450089213671,-0.0006450199052691459
1772094082512114200,3.2371142578125,0.1638257035881281,0.030996483424026517,-0.013407324714213608
1772094082522064100,3.247064208984375,0.16870061614811419,0.01785780131705105,-0.045647652453184126
1772094082532013000,3.257012939453125,0.13969313285052776,-0.00525948914749315,-0.05561024354100227
1772094082541962200,3.266962158203125,0.13234861530661582,-0.015605104186548851,-0.04695975796505809
1772094082551911200,3.2769111328125,0.0900035115301609,0.016198656482773365,-0.07052373503446578
1772094082561861000,3.286861083984375,0.04242342970967292,0.03291921109793475,-0.052802492643892765
1772094082571810000,3.29681005859375,-0.02295943530499935,-0.001305414905361249,-0.029402035573124884
1772094082581759200,3.30675927734375,-0.04535656055212021,-0.026189866310299837,-0.010214081630855798
1772094082591708200,3.316708251953125,-0.02571779410243034,-0.01080049065859639,0.004703355385363102
1772094082601657000,3.326656982421875,0.024996494090557098,0.03140873118645977,-0.03666691200956702
1772094082611607000,3.33660693359375,0.04936287358403205,0.0657582604985917,-0.07034253324866295
1772094082621556000,3.346555908203125,0.05484451986551284,0.03329340328874532,-0.062173547579348086
1772094082631505000,3.3565048828125,0.04319792121350765,-0.011205909104732563,-0.04041252827867865
1772094082641454300,3.366454345703125,0.039489129823446274,-0.039803401670698076,-0.005433569356054067
1772094082651404000,3.376404052734375,0.03836684779524803,-0.025166535161528735,-0.01579991893917322
1772094082661353200,3.386353271484375,0.02555588153898716,0.02864934262585593,-0.025518472138047216
1772094082671302100,3.39630224609375,0.0738689538091421,0.05749709846721962,-0.06659297145679592
1772094082681251000,3.4062509765625,0.1008703579813242,0.054751306890416886,-0.09253186096400022
1772094082691201300,3.416201171875,0.11755027462542056,0.036201659984840075,-0.09691007604822516
1772094082701150200,3.426150146484375,0.10017126980125904,-0.008855378764588384,-0.0863803525969386
1772094082711099100,3.43609912109375,0.08970832797586917,-0.03940191733087413,-0.05153992536216974
1772094082721048000,3.446048095703125,0.08492401630878448,-0.03867649369973224,-0.04447977771759033
1772094082730997000,3.4559970703125,0.09656710782945155,-0.01605928226141259,-0.04741729247421026
1772094082740947000,3.465947021484375,0.1461006618052721,-0.0038893036226974797,-0.07993482971936464
1772094082750895600,3.4758955078125,0.17631167567372322,-0.010138178266875911,-0.11423749681562184
1772094082760844800,3.4858447265625,0.1263935062944889,-0.016270804978598608,-0.11015475754663348
1772094082770793700,3.495793701171875,0.012829670956730842,-0.02766517672698246,-0.09610679684132337
1772094082780743700,3.50574365234375,-0.0924959128677845,-0.031445900842093394,-0.06376096290126443
1772094082790692600,3.515692626953125,-0.08808803329765796,-0.03904939583246596,-0.016855857732892037
1772094082800641500,3.5256416015625,0.0034808278530836104,-0.048787530514644455,-0.013115502160787582
1772094082810590500,3.535590576171875,0.0955851110547781,-0.02632908983461093,-0.03794511525183916
1772094082820540700,3.545540771484375,0.1179798982143402,-0.020740247718454338,-0.026829700867086647
1772094082830489600,3.555489501953125,0.07977613202631473,-0.008155998323578387,-0.009097937082499265
1772094082840438500,3.5654384765625,0.01919920598864555,0.001105858333071228,-0.0076264032252132885
1772094082850387500,3.575387451171875,0.01678279249668121,0.02700153203634545,0.013701485355198382
1772094082860337700,3.585337646484375,0.041081367450952526,0.013775582637870683,0.03288856251463294
1772094082870286600,3.59528662109375,0.06724690532088279,0.011985617923090466,0.011273673686385153
1772094082880235800,3.60523583984375,0.08355798865258693,0.006284203969174996,0.007454407659173011
1772094082890184700,3.615184814453125,0.10807985096871853,-0.006022266239003511,0.01951674750521779
1772094082900133600,3.625133544921875,0.18188392284810542,0.0019092448545387013,0.006660188541561364
1772094082910083600,3.63508349609375,0.21995792517662047,0.013629850599315249,-0.01686331038698554
1772094082920032800,3.64503271484375,0.23989947396516798,0.01919994577416219,-0.022582564816623924
1772094082929981700,3.654981689453125,0.20206746369898318,0.005696861076384084,-0.024460049126297234
1772094082939930600,3.6649306640625,0.06630699412226676,0.032047182070335835,-0.040675124737620354
1772094082949880600,3.674880615234375,-0.08469722181558609,0.053288919887389055,-0.07453647780716419
1772094082959829500,3.68482958984375,-0.15091770669817925,0.05068583841663785,-0.047178223021328444
1772094082969778400,3.6947783203125,-0.13184592648148535,0.018881985274126052,0.01247442777827382
1772094082979727600,3.7047275390625,-0.05956336508095264,-0.02182561353605706,0.04294759971424937
1772094082989677600,3.714677490234375,-0.01206336275935173,-0.02725833807531744,0.059591276001185176
1772094082999626800,3.724626708984375,0.01158230124413967,-0.01844078541184426,0.035096301691979165
1772094083009575700,3.73457568359375,0.03618833471238613,0.004995962819256237,-0.03925210619717836
1772094083019524600,3.744524658203125,0.04824760581851005,0.026170079331018496,-0.08709960678219794
1772094083029473500,3.7544736328125,0.0722878220975399,0.03563876997164916,-0.07920739222764968
1772094083039423700,3.764423828125,0.09003039953708648,0.02454326814705273,-0.028609423890709876
1772094083049372700,3.77437255859375,0.10116963318884373,0.028979987935884854,0.019602672223001716
1772094083059321600,3.784321533203125,0.09359247593283652,0.0214550723237684,0.037203795365244145
1772094083069270500,3.7942705078125,0.07324585347473621,-0.00039221133386890865,0.024818507175147532
1772094083079220500,3.804220458984375,0.06549801582694054,-0.019269825822731946,0.014740911405533552
1772094083089169700,3.814169677734375,0.059926937696337695,-0.02489756147743901,0.0275496857047081
1772094083099118600,3.82411865234375,0.06042845747768879,0.0005239930497074965,0.012257570157200097
1772094083109067800,3.83406787109375,0.08062427328824996,0.026272313579497858,-0.009288491218537092
1772094083119017700,3.844017822265625,0.12476561283171177,0.0653662563731661,-0.06062938687726855
1772094083128966700,3.853966552734375,0.114198041588068,0.06389761315928771,-0.0855472627736628
1772094083138915600,3.86391552734375,0.052342181655764576,0.0128776348593703,-0.03072510087043047
1772094083148864500,3.873864501953125,-0.01618950277864933,-0.029835266758082433,0.03529606204777956
1772094083158813700,3.883813720703125,-0.012654314389824867,-0.05670316247739829,0.05649506355151534
1772094083168763600,3.893763671875,0.042991584986448284,-0.04804680884967092,0.03246609931886196
1772094083178712600,3.903712646484375,0.09907003056108951,-0.011343574284552595,0.0048804655179381365
1772094083188661500,3.91366162109375,0.14995909079909323,0.03492687939222669,-0.01897021953836083
1772094083198610400,3.9236103515625,0.14953589695096015,0.06079419008411932,-0.04890168581306934
1772094083208560600,3.933560546875,0.0702484252244234,0.0524904355866136,-0.05566606538146734
1772094083218509600,3.943509521484375,-0.015113982501626013,0.011203284464450552,-0.026063684930652378
1772094083228458800,3.953458740234375,-0.05128185894787311,-0.02515864868259523,-0.007746960864961147
1772094083238407700,3.96340771484375,-0.011170797833800315,-0.03292635094148572,0.011993366263061762
1772094083248357600,3.973357666015625,0.08784136506021022,-0.020473360960173884,0.014886457356065511
1772094083258306600,3.983306640625,0.16633271797299384,-0.01922874261038378,0.000841126999258995
1772094083268255700,3.993255859375,0.20598726749122143,0.012908599678147583,-0.02443652212023735
1772094083278204700,4.00320458984375,0.15047171649634838,0.03711896205942612,-0.08308730240091682
1772094083288153600,4.013153564453125,0.04771159924566745,0.040759926077397535,-0.08890811750888825
1772094083298103600,4.023103515625,-0.015205167916417121,0.011604515359236392,-0.05880728601664304
1772094083308052500,4.033052490234375,-0.028963644155859947,-0.022640601447061634,-0.007079290736466646
1772094083318001400,4.04300146484375,0.023024901756644248,-0.023616239262896122,0.03843830559626221
1772094083327950600,4.05295068359375,0.051423313245177266,-0.0136383113253396,0.04254354895800352
1772094083337900500,4.062900634765625,0.0737514649093151,0.010901050114864483,0.0252348328910768
1772094083347849700,4.072849609375,0.08093114728033542,0.029852592352218925,0.007522942850738764
1772094083357798700,4.082798583984375,0.07569324662685394,0.037969989398191684,-0.015705080262571572
1772094083367747600,4.09274755859375,0.08395838614702224,0.03327487211821135,-0.007705752071738243
1772094083377697800,4.10269775390625,0.1049912373036146,0.03870732266283594,0.007223813773691654
1772094083387646700,4.112646728515625,0.1349643507629633,0.045902010806743054,0.017088497444987295
1772094083397595600,4.122595703125,0.1269645841807127,0.03526509380406933,0.04247136050462723
1772094083407544600,4.132544677734375,0.11756839480400084,0.01568040704561863,0.06034574763029813
1772094083417494500,4.14249462890625,0.12320260129868983,0.012928799932671245,0.04248495063856244
1772094083427443500,4.152443359375,0.1379185243934393,0.0009359656758606434,0.004231938481330871
1772094083437392600,4.162392578125,0.13276596393585205,-0.017171257524727843,-0.02605214062333107
1772094083447341600,4.172341552734375,0.07519815658628941,0.00011304105357266962,-0.04705532729402184
1772094083457290800,4.182290771484375,-0.009180500799417495,0.01618752316740574,0.0070760758660733695
1772094083467240400,4.192240478515625,-0.06580664338469505,-0.0028474321702378802,0.07295096218138933
1772094083477189600,4.202189697265625,-0.017028291690349577,-0.04876394870965741,0.09522592235356568
1772094083487138600,4.212138671875,0.046780455875396726,-0.04836378867723979,0.043879327606409786
1772094083497087700,4.222087646484375,0.031124037060141562,-0.019937438869010657,-0.035951603347063064
1772094083507037700,4.23203759765625,0.022471359527111053,0.006961405686062062,-0.07139291908442974
1772094083516986600,4.241986572265625,0.05237549940347671,0.006995327363617252,-0.08580386788323521
1772094083526935600,4.251935546875,0.05151800579130649,-0.024425902544811834,-0.063851271533221
1772094083536884500,4.261884521484375,0.040869770526885986,-0.04365584388172719,-0.004618599711358547
1772094083546834700,4.271834716796875,0.03691489542126655,-0.05202948984424583,0.014528291568160056
1772094083556783600,4.28178369140625,0.03142506583333015,-0.03720290716596646,-0.00789820590391755
1772094083566732500,4.291732666015625,0.048510640668869016,-0.021578616505046375,-0.03706058750227093
1772094083576681700,4.301681640625,0.0651285979926586,-0.023991614197217858,-0.0633699177570641
1772094083586630700,4.311630615234375,0.07666998270452022,-0.0259925239571603,-0.06356149480640888
1772094083596580600,4.32158056640625,0.0279459915459156,-0.03246721584700281,-0.047004766150563954
1772094083606529800,4.33152978515625,-0.01720949347615242,-0.02906333482080372,-0.022665274664014575
1772094083616478700,4.341478759765625,0.00907353329360485,-0.025316622573148925,-0.03051934916526079
1772094083626427600,4.351427734375,0.04768588028252124,-0.015365180783718823,-0.02166954162493348
1772094083636377600,4.361377685546875,0.09477496371567248,-0.007577495182724669,-0.006468319231271743
1772094083646326500,4.371326416015625,0.09401274717152118,-0.00723571199075086,-0.017515636815875767
1772094083656275500,4.381275390625,0.06630816316604614,-0.03668888866264606,-0.01527531054317951
1772094083666224600,4.391224609375,0.05167758026719093,-0.039105610398575665,-0.011864040794968604
1772094083676174600,4.401174560546875,0.06593290011286736,-0.029919355711806563,-0.04535977542251348
1772094083686123500,4.41112353515625,0.1099935756355524,-0.05171791684415657,-0.04979425073862075
1772094083696072700,4.42107275390625,0.16357260560989378,-0.06139828889053314,-0.06980038919597864
1772094083706021600,4.431021728515625,0.17606968361139297,-0.054377212881017475,-0.07214329906031489
1772094083715970600,4.440970458984375,0.11522446202635764,-0.045323667496093546,-0.06207739372849464
1772094083725920800,4.450920654296875,0.004015080860257148,-0.022893786190263925,-0.08956687367856501
1772094083735869700,4.46086962890625,-0.10435936914086341,0.0006039161433232948,-0.056307578155398365
1772094083745818600,4.470818603515625,-0.16022329518198966,-0.024843584534188265,-0.02875102431848645
1772094083755767000,4.48076708984375,-0.1310685123682022,-0.08035536581953055,0.003947130190581083
1772094083765717000,4.490717041015625,0.01450198808312416,-0.0690423556366004,0.021675971365720033
1772094083775666200,4.500666259765625,0.1262660805225372,-0.04108832691470161,-0.012312222953885793
1772094083785615000,4.510614990234375,0.20746610787212846,-0.01360820844802074,-0.02911839632615447
1772094083795564300,4.520564208984375,0.24774375772476195,-0.0070066547585185615,-0.026282734508812425
1772094083805514000,4.530513916015625,0.20681027431190013,-0.005749503437429666,-0.05399243308082222
1772094083815463200,4.540463134765625,0.11643676042556762,0.014606443971442057,-0.050227673719823354
1772094083825412000,4.550412109375,0.0017950667232275008,0.0018835761237423867,-0.004245967006683349
1772094083835361000,4.560361083984375,-0.04074059118926525,-0.013774705855036153,0.02102145297974348
1772094083845310200,4.570310302734375,-0.0011404022067785262,-0.044442856940417545,0.01804316782131791
1772094083855260200,4.58026025390625,0.07279927875101566,-0.01801443948375527,-0.032055764952301974
1772094083865209000,4.590208984375,0.10759528232216835,0.026566912611899897,-0.07532631301060319
1772094083875158000,4.600157958984375,0.11405366468131542,0.030466107440949415,-0.04734758823886513
1772094083885107000,4.61010693359375,0.08815349974930285,0.04013996298157144,-0.004067395569384098
1772094083895057200,4.62005712890625,0.047260932868719095,-0.0044945303736953065,0.00849924053698778
1772094083905006000,4.630006103515625,0.0031090719312429427,-0.01605426359300036,-0.0009681143797934054
1772094083914955300,4.639955322265625,-0.012105448335409164,-0.0003610381650039926,-0.030808541370183226
1772094083924904200,4.649904296875,0.02685585822165012,-0.0038293718626955524,-0.03486234680563211
1772094083934854100,4.659854248046875,0.09034662587940692,-0.007620758935716003,-0.06459960568249225
1772094083944803300,4.66980322265625,0.10136953967511653,0.0066540008293697606,-0.05010799286291003
1772094083954752300,4.679752197265625,0.07618892118930816,-0.013214418790885247,-0.027625235158950087
1772094083964701200,4.689701171875,0.04816343466639519,-0.0076339198113884775,-0.021006986062973736
1772094083974650000,4.699650146484375,0.07741583263576031,0.0327213983873371,-0.029618747063726185
1772094083984600000,4.70960009765625,0.1302718090325594,0.04953521164336707,-0.06846241859048605
1772094083994549000,4.719549072265625,0.12222352713346481,0.03348438668304588,-0.060639616010338064
1772094084004498000,4.729497802734375,0.06304711554348469,0.011507171915005892,-0.028062749793380498
1772094084014447000,4.739447021484375,-0.0020510873109102247,0.010352407822734676,-0.01908537035062909
1772094084024397000,4.74939697265625,-0.03234218067824841,0.009766616424568927,-0.005972060146927833
1772094084034346000,4.759345947265625,0.0155938749730587,-0.011733993807667866,-0.008803338050097226
1772094084044295200,4.769295166015625,0.0639788434356451,-0.03457074344791472,-0.04622428329735994
1772094084054244000,4.779244140625,0.11666004778742789,-0.010976238809502683,-0.06813903185501695
1772094084064194300,4.7891943359375,0.14665186594724655,0.01296763638900593,-0.05679755362942814
1772094084074143200,4.799143310546875,0.13606325191557406,0.021168067509355022,-0.04671893494650721
1772094084084092200,4.809092041015625,0.0726759446322918,0.011720070313592441,-0.04543225613683462
1772094084094041000,4.819041015625,0.024581483548879624,0.016033006175840272,-0.03149184745922685
1772094084103990000,4.828989990234375,0.010156652355194092,0.0019216979107353836,-0.0476072620883584
1772094084113940200,4.838940185546875,-0.007372574594616889,-0.04249447195215616,-0.019139730886369943
1772094084123889200,4.84888916015625,0.009324877706170081,-0.05228371120048687,0.022086451862752435
1772094084133838000,4.858838134765625,0.015883213308453558,-0.03213365706067998,-0.006144201843440532
1772094084143787300,4.868787353515625,0.020940496698021886,-0.02453582234282512,-0.05087488558217883
1772094084153737000,4.878737060546875,0.06748480572998523,-0.02065002585146576,-0.0504534452997148
1772094084163686100,4.88868603515625,0.11871230414211749,-0.031138732305774464,-0.04002089861258864
1772094084173635000,4.898635009765625,0.13381225811839104,-0.019518797898408956,-0.04026303680539131
1772094084183584300,4.908584228515625,0.1195657061010599,0.008688534297700971,-0.06383519718125462
1772094084193534200,4.9185341796875,0.08333119415938854,0.017517143786372615,-0.06055252224877476
1772094084203483100,4.928483154296875,0.05845628062188625,-0.015249751410237513,-0.04538987829983234
1772094084213432000,4.93843212890625,0.04897007487416267,-0.04549203719978686,-0.04431508867517114
1772094084223381000,4.948381103515625,0.03205401138663292,-0.05288384621783625,-0.047474575619399544
1772094084233330000,4.958329833984375,0.021820786663889882,-0.046278228274569844,-0.05439020022675395
1772094084243280100,4.968280029296875,0.038112580773234365,-0.06505233615236357,-0.059824646365642546
1772094084253229000,4.97822900390625,0.07869885818362235,-0.08609232943579553,-0.028811668464541435
1772094084263178000,4.988177978515625,0.10593348658978939,-0.0695014610483311,-0.02724091201648116
1772094084273127200,4.998127197265625,0.10550795465409755,-0.013453145750472321,-0.05908055000007152
1772094084283077000,5.0080771484375,0.08327683362364768,0.047978237125487065,-0.059235302170366044
1772094084293026300,5.0180263671875,0.03374561773538589,0.041945555665390565,-0.04294789197519421
1772094084302975200,5.027975341796875,-0.011155600264668464,-0.007959649200993589,-0.004118833495676517
1772094084312924200,5.037924072265625,-0.03396189083456993,-0.028646239636605605,0.03709302846714854
1772094084322874000,5.0478740234375,-0.011776947033405304,-0.014702202813362236,0.03415712114572525
1772094084332823000,5.057822998046875,0.058191492205858224,-0.00702275422665989,0.010323094963282346
1772094084342772000,5.06777197265625,0.12666530897319317,0.017256855732237453,-0.001548836877197027
1772094084352721200,5.07772119140625,0.15339315690100191,0.024593621511245146,-0.023889263501018283
1772094084362670000,5.087670166015625,0.13621055143177507,0.020454539811983703,-0.04792758008390665
1772094084372620000,5.0976201171875,0.08200023781657219,-0.005737283276673406,-0.04866539283916354
1772094084382569000,5.10756884765625,0.023218963024020194,-0.003675252163351979,-0.051345864094793796
1772094084392518100,5.11751806640625,-0.017248071920871733,-0.02701087982000317,-0.05304287727102637
1772094084402467000,5.127467041015625,-0.04164250846505165,-0.06715449606338515,-0.052531859008967875
1772094084412417300,5.137417236328125,-0.039402620583772655,-0.06629192898387555,-0.0434824372433126
1772094084422366200,5.1473662109375,-0.0322071561217308,-0.059395442901831116,-0.034427316389232875
1772094084432315100,5.157315185546875,0.013433482068777083,-0.05458122928682714,-0.01977247583195567
1772094084442264000,5.16726416015625,0.07298515671193599,-0.02729602832075907,-0.00949964975118637
1772094084452213000,5.177212890625,0.12022796940207481,0.004877412761037704,-0.04007189814746379
1772094084462163200,5.1871630859375,0.13608429470360278,0.030106710960471534,-0.04284428547024727
1772094084472112000,5.197112060546875,0.11579495539069175,0.012510990079131442,-0.015512041908502578
1772094084482061000,5.20706103515625,0.1186421615153551,-0.01825390851214761,0.016987813549488782
1772094084492010200,5.21701025390625,0.11404723494052886,-0.03610291688467841,0.04123991901353001
1772094084501960000,5.2269599609375,0.1238268706768751,-0.041615976651152596,0.02634001765400171
1772094084511909000,5.2369091796875,0.10110182864964008,-0.0010093460059026256,-0.033395050732046364
1772094084521858300,5.2468583984375,0.03947685486376285,0.02473250482555013,-0.06478811399191618
1772094084531807200,5.25680712890625,-0.006438508614897727,0.029046032059553542,-0.054286301460862156
1772094084541757200,5.266757080078125,-0.007434533914923667,0.0160784596026293,-0.03220569481700659
1772094084551706000,5.2767060546875,-0.004676175117492676,-0.030944739537057463,0.0006036649815738201
1772094084561655000,5.286655029296875,0.02800444373488426,-0.0481529041392263,0.0167637955352664
1772094084571604000,5.29660400390625,0.03650222296714783,-0.041145016404846683,0.019150836802273988
1772094084581553200,5.30655322265625,0.07029927862882614,-0.018289543797820804,-0.005472732322663068
1772094084591503000,5.316503173828125,0.09268062178492545,-0.011062072195741348,-0.05137479792833328
1772094084601452000,5.3264521484375,0.0748889445066452,-0.010203156094753649,-0.047808483748883
1772094084611401000,5.33640087890625,0.0070136781543493265,0.00444398749654647,-0.006180296070128679
1772094084621350100,5.34635009765625,-0.01679682102203369,0.015659887130686546,-0.02550195939466357
1772094084631300000,5.356300048828125,0.018721067082881928,-0.006621662612480577,-0.050597529945522544
1772094084641249300,5.366249267578125,0.10482874021828174,-0.03563797995378263,0.020976444794237614
1772094084651198200,5.3761982421875,0.19414251591861248,-0.01977132277119672,0.02782704134136438
1772094084661147100,5.386147216796875,0.17865736201703547,0.005330287078092806,-0.05672156578376889
1772094084671097000,5.39609716796875,0.16346972975730895,0.029651379824848844,-0.1126359068378806
1772094084681046000,5.4060458984375,0.11149521237015723,0.06740584047595038,-0.12397343954071402
1772094084690995200,5.4159951171875,-0.029143676897883414,0.06209397040395997,-0.09882277780175208
1772094084700944100,5.425944091796875,-0.12371288890838622,0.021908741225267293,-0.05536167560741305
1772094084710893000,5.43589306640625,-0.12131225750744343,-0.03905351488515735,-0.04849485857784748
1772094084720843000,5.445843017578125,-0.07153729599118232,-0.08784383101193234,-0.03141995126679539
1772094084730792000,5.4557919921875,-0.011150924089550972,-0.0798005540815182,-0.027147388514131305
1772094084740741000,5.4657412109375,0.04973287594020366,-0.02111848133014282,-0.04049947590976953
1772094084750691600,5.475691650390625,0.11654957315027713,0.01460890535658691,-0.04214008272364735
1772094084760641500,5.4856416015625,0.15491174477040767,0.03348034069559071,-0.0521931285738945
1772094084770590500,5.495590576171875,0.14629764568209647,0.013082307710661552,-0.054414019493758674
1772094084780539400,5.505539306640625,0.1283060619175434,-0.026667521158873567,-0.03308510800004005
1772094084790488600,5.515488525390625,0.08973989215791225,-0.0427580547917867,-0.016426234143972394
1772094084800438500,5.5254384765625,0.0345294615894556,-0.020616877067112363,0.0269853298202157
1772094084810387700,5.5353876953125,0.010970306825637816,0.027964641447458416,0.017865327036380767
1772094084820336600,5.545336669921875,0.011850596791505814,0.07433137455596588,-0.00795753487572074
1772094084830285600,5.55528564453125,0.05354103605151176,0.08465990374619141,-0.020770400828123092
1772094084840234500,5.565234375,0.12099778473079204,0.03182891566017643,-0.022230974899977444
1772094084850184700,5.575184814453125,0.1563128437399864,-0.03137553216975648,-0.030863340297341346
1772094084860133600,5.585133544921875,0.08962532586753368,-0.04753386805858463,-0.015030688132345675
1772094084870082600,5.59508251953125,0.041457799547910686,-0.04650252941658255,-0.00074658058360219
1772094084880031500,5.605031494140625,0.024553426498174664,-0.05128827955550514,-0.012125760471075773
1772094084889981400,5.6149814453125,0.015995441511273384,-0.01854121015408309,-0.04931070500537753
1772094084899930400,5.624930419921875,-0.02748947995007038,0.03550667715773452,-0.09829115514308213
1772094084909879800,5.6348798828125,-0.03006137626469135,0.07358905915552749,-0.1254287529155612
1772094084919828700,5.644828857421875,-0.007424597042798996,0.023363842254271728,-0.10105170589759946
1772094084929778700,5.65477880859375,0.04009235641360283,-0.061751029584649945,-0.055755935622006654
1772094084939727600,5.6647275390625,0.05980769523084163,-0.1417059613771271,-0.006943535527586937
1772094084949676500,5.674676513671875,0.05087444719076156,-0.12613145782481877,0.01761690523326397
1772094084959625500,5.68462548828125,0.07171791325509548,-0.061618950470467095,0.048165334362536665
1772094084969574700,5.69457470703125,0.10696809033453464,0.002803188886423595,0.014206073876470326
1772094084979524600,5.704524658203125,0.10273848994076251,0.07665696795932017,-0.03484861054122448
1772094084989473500,5.7144736328125,0.07434826175868511,0.12659045363869517,-0.07194266192167997
1772094084999422500,5.72442236328125,0.04935527479946613,0.09193078066515736,-0.06681055973023176
1772094085009371400,5.734371337890625,-0.003469721937179565,0.016204147791932338,-0.020475363404303788
1772094085019321600,5.744321533203125,-0.011692775881290435,-0.045180674262251704,0.02578589090257883
1772094085029270500,5.7542705078125,0.08626607856750487,-0.047336738051287824,0.027600246848165987
1772094085039219700,5.7642197265625,0.18239830211102961,-0.05069087535135913,0.0038189737662672994
1772094085049168600,5.774168701171875,0.2867407201170921,-0.02521165751146618,-0.0369813847862184
1772094085059117600,5.78411767578125,0.3055985653221607,-0.02249447097463999,-0.08969956014752388
1772094085069067500,5.794067626953125,0.2263824052661657,-0.013528078716783784,-0.11456906685754656
1772094085079016700,5.8040166015625,0.09310440015494822,0.006833786976221017,-0.12875950477346776
1772094085088965600,5.813965576171875,-0.06475976468026638,0.012042735529853962,-0.13331366094648836
1772094085098914600,5.82391455078125,-0.1581739614367485,-0.011026041901134886,-0.08467997841984033
1772094085108864500,5.833864501953125,-0.1976274354249239,-0.04396764521067962,-0.04955591193810105
1772094085118813400,5.8438134765625,-0.16321780082285403,-0.08524053491204976,-0.024677491269260644
1772094085128762400,5.853762451171875,-0.07852408613860606,-0.07212520628119819,-0.02936082677990198
1772094085138711800,5.8637119140625,0.013777180939912795,-0.045841599556128494,-0.020587737737596035
1772094085148661500,5.87366162109375,0.11096622005999088,-0.025103461596369742,0.0035217443853616712
1772094085158610700,5.883610595703125,0.23492402364015577,0.004540712169557809,-0.009378507589548826
1772094085168559600,5.8935595703125,0.30309914972186086,0.04534345904195215,-0.06509995642006397
1772094085178508500,5.903508544921875,0.25167700552046296,0.08586968139475211,-0.09537819030582904
1772094085188457500,5.91345751953125,0.12829612504541874,0.10698071235409005,-0.05532806559875607
1772094085198407700,5.92340771484375,0.014577975928783416,0.039382212549983524,0.01515446064248681
1772094085208356600,5.933356689453125,-0.0648152942597866,-0.027203393017686903,0.08190729883611202
1772094085218305500,5.943305419921875,-0.08820610671937465,-0.04142681075460277,0.08837152641415595
1772094085228254500,5.95325439453125,-0.0517009611427784,-0.0008654896889580413,0.04875803955867886
1772094085238204400,5.963204345703125,0.03917933322191238,-0.0008596718695247545,0.025213205581158398
1772094085248153600,5.973153564453125,0.14040683407783508,-0.009741075557935982,-0.004819090719521045
1772094085258102500,5.9831025390625,0.1504179404824972,0.024616901922132818,-0.03983078286796808
1772094085268051700,5.9930517578125,0.0905523775845766,0.05678126008175313,-0.054739890447258945
1772094085278000600,6.003000732421875,0.03904255509972572,0.040971212474210185,-0.027587241236120462
1772094085287950600,6.01295068359375,0.01760287670791149,0.0018192650161450727,-0.025155922435969112
1772094085297899500,6.0228994140625,0.024141338565945625,-0.02139544195786584,-0.03681304248198867
1772094085307848700,6.0328486328125,0.04207388561964035,-0.04289344924106262,-0.02841740844994783
1772094085317797600,6.042797607421875,0.04091828584372997,-0.058872802700637834,-0.022843553840368985
1772094085327747600,6.05274755859375,0.05917524254620075,-0.05630504827159456,-0.019637012884020803
1772094085337696500,6.062696533203125,0.09370762674510479,-0.028936934245447625,-0.02895604537129402
1772094085347645400,6.0726455078125,0.1466109494149685,-0.022457783092907628,-0.01819324381649494
1772094085357594400,6.082594482421875,0.18609306497573852,0.0012285325813805683,-0.04905088502541184
1772094085367543800,6.092543701171875,0.1433767897993326,0.046206332082138396,-0.09057605072110891
1772094085377493500,6.102493408203125,0.07237783846855163,0.03753205463865306,-0.07883110626116395
1772094085387442700,6.112442626953125,0.0005558803170919418,-0.0032000244505936276,-0.057242959309369325
1772094085397391600,6.1223916015625,-0.03582943827211857,-0.05215411173775792,-0.004215425737947225
1772094085407340500,6.132340576171875,-0.0171884506881237,-0.07174653656138107,0.02161474269777536
1772094085417290800,6.142290771484375,0.07309796943664551,-0.0709101679356303,0.020415449910610912
1772094085427239700,6.15223974609375,0.13840426208376883,-0.02774962415702175,-0.038096944812685246
1772094085437188600,6.162188720703125,0.13649521359205244,0.04450255123840179,-0.08519508833512664
1772094085447137500,6.172137451171875,0.0812199010938406,0.08501686395769939,-0.08149462638199328
1772094085457086500,6.18208642578125,0.008514145845174789,0.040080958236753936,-0.02861088519543409
1772094085467036400,6.192036376953125,-0.05275660767555237,-0.03238651757689658,0.03134337889924645
1772094085476985600,6.201985595703125,-0.07667056722640991,-0.06564165294817649,0.07722323267310857
1772094085486934800,6.211934814453125,-0.033440497308969495,-0.044884052236122074,0.07641907668337225
1772094085496883700,6.2218837890625,0.06560322976708412,-0.014481169057381338,0.026328765607625246
1772094085506833700,6.231833740234375,0.10630933416485785,0.03538967688167467,-0.041600569019466634
1772094085516782600,6.241782470703125,0.12288520591259001,0.07361077779699117,-0.056560530003160234
1772094085526731500,6.2517314453125,0.13571195425987242,0.02865726335411891,-0.030587445965409278
1772094085536680700,6.2616806640625,0.11059212605059146,-0.02052492446734104,0.025758710634708405
1772094085546630700,6.271630615234375,0.08679565539956093,-0.06912870047949254,0.08348243919834494
1772094085556579600,6.28157958984375,0.06369067414402961,-0.07191954590757377,0.06899623320624232
1772094085566528500,6.291528564453125,0.0911275471240282,-0.024626788561907597,0.0334654856197536
1772094085576477400,6.3014775390625,0.12100538351535796,-0.004200506730028428,-0.009684358668327332
1772094085586426600,6.311426513671875,0.14686989261209965,0.014363287431909701,-0.028880934308469292
1772094085596376600,6.32137646484375,0.15726619894206523,0.031278389654925555,-0.05389934796988964
1772094085606325500,6.331325439453125,0.13305764035880566,0.012383075683412606,-0.046437779917567965
1772094085616274700,6.341274658203125,0.057608139359951016,-0.05192972839735448,0.013710545444488525
1772094085626223600,6.3512236328125,-0.03877367503046989,-0.07743938704128377,0.06745382606983184
1772094085636173600,6.361173583984375,-0.1321761813491583,-0.06286151157720014,0.10995324362516402
1772094085646122800,6.371122802734375,-0.1276052201718092,-0.026658040944475214,0.08099982860237359
1772094085656071700,6.38107177734375,0.00699088180065155,-0.01258788667366607,0.025915800892561673
1772094085666020600,6.3910205078125,0.1698597230553627,0.0022693742706673217,-0.02210091877952218
1772094085675969500,6.400969482421875,0.2324474043935537,-0.008765382943174336,-0.03817205587550997
1772094085685919500,6.41091943359375,0.21386662256419658,-0.01400563081736909,-0.05846037227511405
1772094085695868400,6.420868408203125,0.12697978174984453,0.0005057347321650013,-0.06711611854806541
1772094085705817600,6.430817626953125,0.021871640068292616,-0.022853728174511343,-0.07314633862301707
1772094085715766800,6.440766845703125,-0.0212099612891674,-0.0451685591327725,-0.0672631258033216
1772094085725716500,6.450716552734375,-0.02739361836016178,-0.08100949147986247,-0.007797229747474193
1772094085735665700,6.460665771484375,-0.05167115052640438,-0.1148667894287966,0.030376871954649685
1772094085745614600,6.470614501953125,-0.06623392888605595,-0.1013479671641253,0.04783551788628101
1772094085755562200,6.480562255859375,0.015296937853097915,-0.06445079006263986,0.0183441965945065
1772094085765511200,6.49051123046875,0.06740823336243629,-0.03337119721571216,-0.018517507334798573
1772094085775461000,6.500461181640625,0.15339491046667098,-0.011712777489703148,-0.025376433318853378
1772094085785410000,6.51041015625,0.1681950047135353,0.03707517543333815,-0.08851648784279822
1772094085795359200,6.520359130859375,0.09688684130311012,0.036312769376230424,-0.10601590417623519
1772094085805308400,6.530308349609375,0.038061727368831635,-0.002911382518231403,-0.0451006860949099
1772094085815258400,6.54025830078125,0.034335984843969346,-0.03543550248451065,0.0162028006516397
1772094085825207300,6.550207275390625,0.07477788534760475,-0.050113463622471315,0.023953853169828652
1772094085835156200,6.56015625,0.11324643995165824,-0.0590628682129085,0.029100130017101763
1772094085845105200,6.570105224609375,0.14699322673082352,-0.04838139283258933,-0.0030054654262959956
1772094085855055400,6.580055419921875,0.08075403714776039,-0.04135402864618227,-0.04054550700858235
1772094085865004300,6.59000439453125,-0.037038229539990426,-0.019161027119436767,-0.028174393474310635
1772094085874953200,6.599953125,-0.07924772423803805,-0.011433737927681067,-0.022418606426566838
1772094085884902100,6.609902099609375,-0.06550853722095488,-0.04459459973629564,-0.038463293907046316
1772094085894851300,6.619851318359375,-0.02213642848432064,-0.057287917262525294,-0.05597381615638732
1772094085904801000,6.629801025390625,0.05693886179625988,-0.02600071868005907,-0.04382423641830682
1772094085914750500,6.63975048828125,0.147350369605422,-0.01969124555559829,-0.05496332393959164
1772094085924699400,6.649699462890625,0.21824235343039033,-0.06146714374250732,-0.033200551073253155
1772094085934648300,6.6596484375,0.24479309122562407,-0.05942955980056431,-0.015646628073602915
1772094085944598300,6.669598388671875,0.1715986756771803,-0.058019514906127,-0.029066520008444785
1772094085954547200,6.679547119140625,0.06891629983782768,0.002220972547432757,-0.08324629235491156
1772094085964496100,6.68949609375,-0.0780389329701662,0.04557028550119139,-0.13065978543683887
1772094085974445300,6.6994453125,-0.14300328031182288,0.03005845593853155,-0.04168240208402276
1772094085984394200,6.709394287109375,-0.0747235248118639,-0.029924878987006374,0.04714285944700241
1772094085994344200,6.71934423828125,-0.03484685697555542,-0.05651733474882785,0.026525603353977203
1772094086004293000,6.729293212890625,-0.012066285368800162,-0.03493763824825873,0.09567162029445171
1772094086014242000,6.739241943359375,0.157415836545825,-0.06608504933412186,-0.03444616722017527
1772094086024191200,6.749191162109375,0.27713702546954155,-0.006658750069723465,-0.003891016089171171
1772094086034141200,6.75914111328125,0.12309388022720813,0.07474276836845092,-0.0197875272706151
1772094086044090400,6.76909033203125,-0.04045183737576007,0.11651308619794436,-0.08625964882671833
1772094086054039300,6.779039306640625,-0.07513327465653419,0.0815434978918638,-0.039381870056688785
1772094086063988200,6.78898828125,-0.11891104158461094,0.034395382314431476,0.0927275296665728
1772094086073937200,6.798937255859375,-0.05187281057834625,0.01746050681186607,0.12339052508622407
1772094086083887400,6.808887451171875,0.001059153664112091,-0.029544985424482726,0.08031257699057459
1772094086093836300,6.818836181640625,0.10472761793136597,-0.06269205959469545,-0.0712717769227922
1772094086103785200,6.82878515625,0.23669395592212675,-0.06224978202017955,-0.21830255918502806
1772094086113734100,6.838734130859375,0.2651186708956957,0.03788181564110564,-0.2215904948145151
1772094086123684000,6.84868408203125,0.2420247955560684,0.057390615018596866,-0.23553075736165047
1772094086133633000,6.858633056640625,0.1953530607521534,0.055230486975796515,-0.18796616537123917
1772094086143582500,6.86858251953125,0.12728139504492283,-0.0061763539723062415,-0.10205474546030163
1772094086153531400,6.878531494140625,0.018396657434105873,-0.015447599511808947,0.01070785649716854
