time,seconds_elapsed,z,y,x
1772094079348258600,0.073258544921875,-0.025486186146736145,0.010041903704404831,-0.033914439380168915
1772094079358208800,0.083208740234375,-0.02117905393242836,-0.003357524983584881,-0.02642296627163887
1772094079368157700,0.09315771484375,-0.005173270590603352,-0.016124848276376724,-0.00430220877751708
1772094079378106600,0.103106689453125,-0.0028310203924775124,-0.021889526396989822,0.01963108591735363
1772094079388055600,0.1130556640625,0.003725364338606596,-0.034057751297950745,0.050234489142894745
1772094079398005500,0.123005615234375,-0.003363970434293151,-0.044582828879356384,0.061735618859529495
1772094079407954700,0.13295458984375,-0.01608853228390217,-0.03565676882863045,0.05168018862605095
1772094079417903600,0.142903564453125,-0.022039365023374557,-0.018322253599762917,0.03027503192424774
1772094079427852500,0.1528525390625,-0.01408340409398079,-0.005720912478864193,0.005885792896151543
1772094079437801500,0.162801513671875,-0.006778620183467865,0.002403326565399766,-0.01674894616007805
1772094079447751400,0.17275146484375,0.000043767038732767105,0.00282291229814291,-0.02674410305917263
1772094079457700600,0.18270068359375,0.0016312776133418083,-0.005566311534494162,-0.024141130968928337
1772094079467649800,0.19264990234375,0.0018996521830558777,-0.012648019939661026,-0.018293537199497223
1772094079477598700,0.2025986328125,0.0005158735439181328,-0.019921911880373955,-0.004607285372912884
1772094079487547600,0.212547607421875,0.0033501246944069862,-0.01657862588763237,0.012686049565672874
1772094079497497600,0.22249755859375,-0.005516337230801582,-0.022514279931783676,0.03028315305709839
1772094079507446500,0.232446533203125,-0.012441428378224373,-0.01892470195889473,0.02738838829100132
1772094079517395500,0.2423955078125,-0.022279411554336548,-0.005893321707844734,0.02209535613656044
1772094079527344400,0.252344482421875,-0.022760087624192238,-0.0007407227531075478,0.022439226508140564
1772094079537294600,0.262294677734375,-0.02651381306350231,0.005711850244551897,0.009485345333814621
1772094079547243500,0.272243408203125,-0.03412649780511856,0.015407290309667587,-0.003474656492471695
1772094079557192400,0.2821923828125,-0.03442557156085968,0.01235690526664257,-0.009341600351035595
1772094079567141600,0.2921416015625,-0.03969888016581535,0.005299944430589676,-0.004167408216744661
1772094079577090600,0.302090576171875,-0.044413741677999496,-0.0033201752230525017,0.014465931802988052
1772094079587040800,0.312040771484375,-0.05048105865716934,-0.01551462709903717,0.024350278079509735
1772094079596989700,0.32198974609375,-0.04917238652706146,-0.0162869431078434,0.015789279714226723
1772094079606938600,0.331938720703125,-0.0453028678894043,-0.009870652109384537,-0.003706707153469324
1772094079616887600,0.341887451171875,-0.046375323086977005,-0.002801823429763317,-0.01817353069782257
1772094079626837500,0.35183740234375,-0.04757947474718094,0.001522987149655819,-0.02543087676167488
1772094079636786700,0.36178662109375,-0.03914843872189522,0.002862290944904089,-0.022200463339686394
1772094079646735600,0.371735595703125,-0.03594251722097397,0.005709802731871605,-0.013826487585902214
1772094079656684500,0.3816845703125,-0.03752177208662033,0.0042120409198105335,-0.004854565020650625
1772094079666633700,0.3916337890625,-0.03556355834007263,-0.004326113499701023,0.0014337608590722084
1772094079676583400,0.40158349609375,-0.03241117298603058,-0.001729531679302454,0.0027570854872465134
1772094079686532600,0.41153271484375,-0.018718179315328598,-0.010299604386091232,0.0058941347524523735
1772094079696481500,0.4214814453125,-0.009096711874008179,-0.012103896588087082,0.010744282975792885
1772094079706430700,0.4314306640625,-0.011874569579958916,-0.006524594034999609,0.007618111092597246
1772094079716380700,0.441380615234375,-0.013786185532808304,-0.0024994919076561928,0.003687285352498293
1772094079726329600,0.45132958984375,-0.021239198744297028,0.007265415508300066,-0.005405643489211798
1772094079736278500,0.461278564453125,-0.02078433148562908,0.014369663782417774,-0.01361004263162613
1772094079746227200,0.471227294921875,-0.014248596504330635,0.018086496740579605,-0.020864242687821388
1772094079756177400,0.481177490234375,-0.0056098345667123795,0.0202961228787899,-0.01563432812690735
1772094079766126300,0.491126220703125,-0.0017150992061942816,0.006069884169846773,-0.0074352179653942585
1772094079776075300,0.5010751953125,-0.0024051242507994175,0.0007353061810135841,-0.00039781536906957626
1772094079786024400,0.5110244140625,-0.00008671404793858528,-0.014007850550115108,0.005583146121352911
1772094079795973400,0.520973388671875,-0.004013012629002333,-0.03364573419094086,0.002526103751733899
1772094079805923600,0.530923583984375,-0.01446091290563345,-0.04314834251999855,-0.007463002111762762
1772094079815872500,0.54087255859375,-0.015786634758114815,-0.054902736097574234,-0.016575274989008904
1772094079825821400,0.550821533203125,-0.0219621229916811,-0.06121252477169037,-0.03656565770506859
1772094079835770400,0.560770263671875,-0.046902626752853394,-0.07377678900957108,-0.05367886647582054
1772094079845720300,0.57072021484375,-0.06561051309108734,-0.05369136855006218,-0.08720366656780243
1772094079855669200,0.580669189453125,-0.0985729917883873,-0.053119588643312454,-0.10592009872198105
1772094079865618400,0.590618408203125,-0.12430775910615921,-0.06295754760503769,-0.10275830328464508
1772094079875567400,0.6005673828125,-0.15114523470401764,-0.0797242745757103,-0.1009145975112915
1772094079885516300,0.610516357421875,-0.17222116887569427,-0.07030502706766129,-0.09630640596151352
1772094079895466200,0.62046630859375,-0.1715676337480545,-0.05344242602586746,-0.08901360630989075
1772094079905415400,0.63041552734375,-0.15246708691120148,-0.06770101189613342,-0.04411526396870613
1772094079915364400,0.6403642578125,-0.1330515742301941,-0.11042077839374542,0.0486743301153183
1772094079925313500,0.6503134765625,-0.10915254801511765,-0.150776207447052,0.1413268744945526
1772094079935263500,0.660263427734375,-0.08247779309749603,-0.13579006493091583,0.18420830368995667
1772094079945212400,0.67021240234375,-0.06277693063020706,-0.11812681704759598,0.19311287999153137
1772094079955161300,0.680161376953125,-0.04091237857937813,-0.11985867470502853,0.2181178331375122
1772094079965110300,0.6901103515625,-0.030698738992214203,-0.08925032615661621,0.2353224754333496
1772094079975059200,0.70005908203125,-0.027394022792577744,-0.0596945621073246,0.21130183339118958
1772094079985009400,0.710009521484375,-0.02062317542731762,0.001153258141130209,0.16115164756774902
1772094079994958300,0.719958251953125,-0.003402908332645893,0.06925241649150848,0.09694362431764603
1772094080004907300,0.7299072265625,0.002583423163741827,0.0846395492553711,0.06824051588773727
1772094080014856400,0.7398564453125,0.02542002871632576,0.045293740928173065,0.07172127068042755
1772094080024806100,0.74980615234375,0.06508803367614746,0.02606665901839733,0.08146905153989792
1772094080034755600,0.759755615234375,0.0644555315375328,-0.01467171497642994,0.06878947466611862
1772094080044704500,0.76970458984375,0.025004694238305092,0.01497129537165165,0.04581654071807861
1772094080054653400,0.7796533203125,0.00970510020852089,0.04320213198661804,0.014499099925160408
1772094080064603400,0.789603271484375,0.0093147661536932,0.015551045536994934,0.01948225125670433
1772094080074552300,0.79955224609375,0.020290719345211983,-0.04735042154788971,0.0488598458468914
1772094080084501200,0.809501220703125,0.02387847751379013,-0.08502936363220215,0.08131887018680573
1772094080094450400,0.819450439453125,0.07005635648965836,-0.05892026424407959,0.05449763685464859
1772094080104399400,0.8293994140625,0.07572167366743088,0.018698982894420624,-0.026534954085946083
1772094080114349300,0.839349365234375,0.05103763937950134,0.02391212061047554,-0.03537611663341522
1772094080124298200,0.84929833984375,0.04128462076187134,0.010969752445816994,-0.009048707783222198
1772094080134247400,0.859247314453125,0.03780679777264595,-0.00006665382534265518,0.009060255251824856
1772094080144196400,0.8691962890625,0.04106467217206955,-0.010132274590432644,0.020721696317195892
1772094080154146600,0.879146484375,0.037194035947322845,-0.008570597507059574,0.018988244235515594
1772094080164095500,0.889095458984375,0.027462242171168327,-0.0016217362135648727,0.012574569322168827
1772094080174044400,0.89904443359375,0.022044841200113297,-0.004547484684735537,0.003477744059637189
1772094080183993300,0.908993408203125,0.017909733578562737,0.0031329502817243338,0.00039261113852262497
1772094080193942300,0.9189423828125,0.010796165093779564,0.00025567086413502693,0.006684062536805868
1772094080203892500,0.928892578125,0.009869769215583801,0.019284531474113464,0.0017629095818847418
1772094080213841400,0.93884130859375,0.00524519057944417,0.03542541712522507,-0.010793095454573631
1772094080223790300,0.948790283203125,0.0038006058894097805,0.017412614077329636,-0.01123875379562378
1772094080233739300,0.9587392578125,0.0019582314416766167,0.011114239692687988,-0.021629076451063156
1772094080243689200,0.968689208984375,0.00516807334497571,0.04246951639652252,-0.0531977079808712
1772094080253638100,0.97863818359375,0.003592014778405428,0.08344491571187973,-0.09036239236593246
1772094080263587600,0.988587646484375,-0.0003284686245024204,0.06600813567638397,-0.08852199465036392
1772094080273536500,0.99853662109375,0.010130031034350395,0.04131743311882019,-0.06160010024905205
1772094080283485400,1.0084853515625,0.012811943888664246,0.05047415941953659,-0.06212936341762543
1772094080293435400,1.018435302734375,0.004017653409391642,0.08133380860090256,-0.06197570264339447
1772094080303384300,1.02838427734375,-0.0013392416294664145,0.07967936992645264,-0.03950728848576546
1772094080313333200,1.038333251953125,0.004108520690351725,0.07218790054321289,-0.011080972850322723
1772094080323282400,1.048282470703125,0.003723236732184887,0.08797796815633774,0.0061037843115627766
1772094080333232400,1.058232421875,0.012674652971327305,0.09099879115819931,0.016260813921689987
1772094080343181300,1.068181396484375,0.031044280156493187,0.08438903093338013,0.023815086111426353
1772094080353130200,1.078130126953125,0.03913283348083496,0.09941457957029343,0.02637944370508194
1772094080363079400,1.088079345703125,0.045453209429979324,0.11173612624406815,0.03392314165830612
1772094080373029400,1.098029296875,0.036681026220321655,0.1117827296257019,0.04775905981659889
1772094080382978600,1.107978515625,0.015191115438938141,0.09492041170597076,0.05874481424689293
1772094080392927500,1.117927490234375,0.005890292581170797,0.0773017406463623,0.062396008521318436
1772094080402876400,1.12787646484375,0.009656707756221294,0.059959642589092255,0.05943373218178749
1772094080412825300,1.137825439453125,0.010813850909471512,0.060741014778614044,0.024953782558441162
1772094080422775300,1.147775390625,0.014204220846295357,0.061999667435884476,-0.010075617581605911
1772094080432724500,1.157724365234375,0.0060682641342282295,0.05475613474845886,-0.030179820954799652
1772094080442673400,1.16767333984375,0.009205691516399384,0.042136214673519135,-0.046540267765522
1772094080452622300,1.177622314453125,0.01706121675670147,0.04408591240644455,-0.06293442100286484
1772094080462572300,1.187572265625,0.01373692974448204,0.04718386381864548,-0.06139354780316353
1772094080472521200,1.197521240234375,0.01337154395878315,0.02752334624528885,-0.04080997779965401
1772094080482470400,1.207470458984375,0.019796360284090042,-0.007137673441320658,-0.012104615569114685
1772094080492419600,1.217419677734375,0.025004703551530838,-0.026610974222421646,0.007815828546881676
1772094080502368500,1.227368408203125,0.031000833958387375,-0.05005265399813652,0.013058585114777088
1772094080512318500,1.237318359375,0.03621769696474075,-0.06500682979822159,-0.0012226160615682602
1772094080522267400,1.247267333984375,0.04738045111298561,-0.04446902871131897,-0.014197437092661858
1772094080532216300,1.25721630859375,0.05676383152604103,-0.07050435990095139,0.006814104504883289
1772094080542165200,1.267165283203125,0.05015752464532852,-0.08040791004896164,0.018879182636737823
1772094080552115500,1.277115478515625,0.03947877883911133,-0.05475075542926788,0.0017388120759278536
1772094080562064400,1.287064453125,0.04110494256019592,-0.029036007821559906,-0.014240162447094917
1772094080572013300,1.297013427734375,0.0394444614648819,-0.018866194412112236,-0.016454581171274185
1772094080581962200,1.306962158203125,0.043312765657901764,-0.014778386801481247,-0.013295023702085018
1772094080591912200,1.316912109375,0.04117691144347191,-0.007279989309608936,-0.008209718391299248
1772094080601861400,1.326861328125,0.036644838750362396,-0.015516839921474457,-0.0008747968822717667
1772094080611810600,1.336810546875,0.03343359753489494,-0.022049840539693832,0.003601976903155446
1772094080621759500,1.346759521484375,0.03301836922764778,-0.024103257805109024,-0.0011692652478814125
1772094080631708400,1.35670849609375,0.0270566176623106,0.017605572938919067,-0.030513571575284004
1772094080641658400,1.366658447265625,0.01246168464422226,0.0484561026096344,-0.06118646264076233
1772094080651607300,1.376607177734375,0.013234002515673637,0.08405909687280655,-0.07413581758737564
1772094080661556500,1.386556396484375,0.00835690088570118,0.09638695418834686,-0.07143362611532211
1772094080671505400,1.39650537109375,0.0035858475603163242,0.0642244890332222,-0.04742416366934776
1772094080681455400,1.406455322265625,0.0005866987630724907,0.06182100623846054,-0.028379131108522415
1772094080691404300,1.416404296875,-0.006760962773114443,0.060704343020915985,-0.015335234813392162
1772094080701353200,1.426353271484375,0.0022559729404747486,0.04724428057670593,0.007777813822031021
1772094080711302400,1.436302490234375,0.008426783606410027,0.05295649543404579,0.028333155438303947
1772094080721252400,1.44625244140625,0.006994045339524746,0.06408330053091049,0.04543589800596237
1772094080731201500,1.456201416015625,0.012725966982543468,0.06159591302275658,0.051058363169431686
1772094080741150500,1.466150390625,0.018599046394228935,0.08111748099327087,0.049370650202035904
1772094080751099600,1.476099609375,0.031245600432157516,0.07832115888595581,0.04522144794464111
1772094080761048600,1.486048583984375,0.041325099766254425,0.0498226098716259,0.03593261539936066
1772094080770998500,1.49599853515625,0.05373995751142502,0.035577625036239624,0.019379472360014915
1772094080780947700,1.50594775390625,0.04434748739004135,0.04170431196689606,-0.0025360090658068657
1772094080790896600,1.515896728515625,0.03277765214443207,0.06404078006744385,-0.037104371935129166
1772094080800845600,1.525845458984375,0.019397486001253128,0.05133845657110214,-0.07203428447246552
1772094080810795500,1.53579541015625,-0.0016364266630262136,0.047746654599905014,-0.08628006279468536
1772094080820744400,1.545744384765625,0.011887133121490479,0.03605910390615463,-0.07570778578519821
1772094080830693400,1.555693359375,0.014435777440667152,-0.005551987327635288,-0.039845921099185944
1772094080840642800,1.565642822265625,0.010383088141679764,-0.031971365213394165,-0.007476361934095621
1772094080850592500,1.575592529296875,0.0030037350952625275,-0.04724246263504028,0.011240067891776562
1772094080860541700,1.585541748046875,-0.000745321623980999,-0.047022655606269836,0.0030133845284581184
1772094080870490600,1.59549072265625,-0.00014717550948262215,-0.02924046292901039,-0.013468120247125626
1772094080880439600,1.605439453125,-0.0011040952522307634,-0.0362347774207592,-0.008978873491287231
1772094080890388500,1.615388427734375,-0.01394985243678093,-0.07411211729049683,0.012143190018832684
1772094080900338700,1.625338623046875,-0.019013043493032455,-0.09709113836288452,0.021047666668891907
1772094080910287600,1.63528759765625,-0.020265262573957443,-0.09781099110841751,0.006425847765058279
1772094080920236500,1.645236572265625,-0.03182828053832054,-0.07134067267179489,-0.014886220917105675
1772094080930185500,1.655185546875,-0.04002362862229347,-0.04116120561957359,-0.046844687312841415
1772094080940135400,1.665135498046875,-0.03808038681745529,-0.021053187549114227,-0.06162460893392563
1772094080950084600,1.675084716796875,-0.034974608570337296,-0.006893957499414682,-0.046670425683259964
1772094080960033500,1.685033447265625,-0.020793642848730087,0.0021088826470077038,-0.01932179182767868
1772094080969982700,1.694982666015625,-0.008261074312031269,0.009432042948901653,0.00890025869011879
1772094080979932700,1.7049326171875,-0.001714054960757494,0.022785091772675514,0.02900867909193039
1772094080989881600,1.714881591796875,0.0019099744968116283,0.031698957085609436,0.04086507111787796
1772094080999830500,1.72483056640625,0.003563264850527048,0.03990042954683304,0.04151328653097153
1772094081009779700,1.73477978515625,0.005778215825557709,0.040543846786022186,0.030380738899111748
1772094081019729700,1.744729736328125,0.014676889404654503,0.040497444570064545,0.011027348227798939
1772094081029678600,1.7546787109375,0.02277343161404133,0.039900366216897964,-0.0051918355748057365
1772094081039627500,1.76462744140625,0.02822938933968544,0.02963109500706196,-0.015324343927204609
1772094081049576400,1.774576416015625,0.027413662523031235,0.03411106392741203,-0.018204551190137863
1772094081059525400,1.784525390625,0.027850816026329994,0.03927423804998398,-0.017903847619891167
1772094081069475600,1.7944755859375,0.021477071568369865,0.03141604736447334,-0.021760903298854828
1772094081079424500,1.804424560546875,0.013261644169688225,0.010061919689178467,-0.008264513686299324
1772094081089373700,1.814373779296875,0.017372766509652138,-0.004825150594115257,0.0018376559019088745
1772094081099322600,1.824322509765625,0.01746346428990364,-0.0025292783975601196,-0.0009893900714814663
1772094081109272600,1.8342724609375,0.013146213255822659,0.007394724525511265,-0.004429927561432123
1772094081119221800,1.8442216796875,0.0054016984067857265,0.009954432025551796,-0.008134307339787483
1772094081129170700,1.854170654296875,-0.002422135788947344,0.001477324403822422,-0.0037475484423339367
1772094081139119600,1.86411962890625,-0.005692737177014351,-0.0061801462434232235,0.005100597627460957
1772094081149068500,1.874068603515625,-0.004828541539609432,-0.009974883869290352,0.012627756223082542
1772094081159018500,1.8840185546875,-0.0016212204936891794,-0.015564532950520515,0.020377395674586296
1772094081168967400,1.893967529296875,0.00041343457996845245,-0.02354283072054386,0.018508389592170715
1772094081178916600,1.90391650390625,-0.004000229295343161,-0.014323168434202671,0.003972998820245266
1772094081188865500,1.913865478515625,-0.01018115971237421,-0.015149015001952648,-0.010301811620593071
1772094081198815500,1.9238154296875,-0.015294312499463558,-0.013919660821557045,-0.021663818508386612
1772094081208764700,1.9337646484375,-0.020427288487553596,-0.01328183338046074,-0.030031736940145493
1772094081218713600,1.943713623046875,-0.01876598782837391,-0.016611726954579353,-0.02290418930351734
1772094081228662500,1.95366259765625,-0.015230642631649971,-0.028644422069191933,-0.008728450164198875
1772094081238612700,1.96361279296875,-0.01240091398358345,-0.04384943097829819,-0.001020359806716442
1772094081248561700,1.973561767578125,-0.010190756991505623,-0.03765225410461426,-0.003152752760797739
1772094081258510600,1.983510498046875,-0.00868869200348854,-0.02520531788468361,-0.012010505422949791
1772094081268459500,1.99345947265625,-0.01455723401159048,-0.018908273428678513,-0.02091851271688938
1772094081278408400,2.003408447265625,-0.01476237177848816,-0.011236953549087048,-0.020595382899045944
1772094081288358700,2.013358642578125,-0.012201476842164993,-0.005483993329107761,-0.02266705594956875
1772094081298307600,2.0233076171875,-0.0073867738246917725,-0.005111152771860361,-0.020930469036102295
1772094081308256500,2.033256591796875,-0.00478619709610939,-0.006634481716901064,-0.020136315375566483
1772094081318205700,2.043205810546875,0.00010262662544846535,-0.007455204613506794,-0.011699901893734932
1772094081328155400,2.0531552734375,-0.002918729791417718,-0.0053393226116895676,-0.007710220757871866
1772094081338104600,2.0631044921875,-0.0022300363052636385,-0.0072107259184122086,-0.003418270032852888
1772094081348053800,2.0730537109375,-0.008435733616352081,-0.004687647335231304,-0.0008661630563437939
1772094081358002700,2.083002685546875,-0.009182285517454147,-0.010399843566119671,-0.0028886226937174797
1772094081367952600,2.09295263671875,-0.012233469635248184,-0.01794511266052723,-0.010833365842700005
1772094081377901600,2.102901611328125,-0.007039929274469614,-0.030762536451220512,-0.01434662938117981
1772094081387850500,2.1128505859375,0.0002816333435475826,-0.03523371368646622,-0.021243417635560036
1772094081397799400,2.12279931640625,0.008769894018769264,-0.04387972876429558,-0.025801140815019608
1772094081407749600,2.13274951171875,0.0039865910075604916,-0.05011072754859924,-0.023571277037262917
1772094081417698600,2.142698486328125,0.001921103335916996,-0.04862364009022713,-0.024954471737146378
1772094081427647500,2.1526474609375,-0.007090501021593809,-0.04949609190225601,-0.02822243608534336
1772094081437596700,2.1625966796875,-0.008292360231280327,-0.053481243550777435,-0.025203151628375053
1772094081447545600,2.172545654296875,-0.007243874482810497,-0.0485735721886158,-0.021370328962802887
1772094081457495800,2.182495849609375,-0.0072519415989518166,-0.045161306858062744,-0.012867376208305359
1772094081467444700,2.19244482421875,-0.005673486273735762,-0.03811192139983177,-0.006575924810022116
1772094081477393700,2.2023935546875,-0.0021217004396021366,-0.028756219893693924,-0.0007649660110473633
1772094081487342600,2.212342529296875,0.006285366136580706,-0.01981998234987259,-0.0003649592399597168
1772094081497292500,2.22229248046875,0.008841713890433311,-0.004965599160641432,0.006029646378010511
1772094081507241500,2.232241455078125,0.009398315101861954,-0.0024925884790718555,0.013517390005290508
1772094081517190700,2.242190673828125,0.011097419075667858,0.003958322573453188,0.015817420557141304
1772094081527139600,2.2521396484375,0.012002094648778439,0.0004421509802341461,0.018122918903827667
1772094081537089500,2.262089599609375,0.021887430921196938,-0.004618978593498468,0.018275471404194832
1772094081547038500,2.27203857421875,0.02569735050201416,-0.014577072113752365,0.01471056416630745
1772094081556987600,2.281987548828125,0.024644996970891953,-0.02494172379374504,0.006462521851062775
1772094081566936600,2.2919365234375,0.02096424251794815,-0.020920883864164352,-0.012077607214450836
1772094081576885500,2.301885498046875,0.008741877973079681,-0.020926661789417267,-0.02877548336982727
1772094081586835700,2.311835693359375,0.0036509791389107704,-0.022585544735193253,-0.02845963090658188
1772094081596784600,2.32178466796875,0.00756072299554944,-0.030730415135622025,-0.027037955820560455
1772094081606733600,2.331733642578125,0.017197372391819954,-0.026142852380871773,-0.027651548385620117
1772094081616682500,2.3416826171875,0.020905910059809685,-0.024890121072530746,-0.01439954899251461
1772094081626632700,2.3516328125,0.023135773837566376,-0.02430209517478943,0.0048854658380150795
1772094081636581600,2.36158154296875,0.019707215949892998,-0.029604535549879074,0.020237520337104797
1772094081646530600,2.371530517578125,0.025345927104353905,-0.005936224479228258,0.014189748093485832
1772094081656479500,2.3814794921875,0.01670229062438011,-0.015775166451931,0.004420099779963493
1772094081666429400,2.391429443359375,0.012163465842604637,-0.013877131044864655,0.005581504665315151
1772094081676378400,2.40137841796875,0.00501791387796402,-0.008729098364710808,-0.005871019791811705
1772094081686327800,2.411327880859375,0.016016235575079918,-0.01379869319498539,-0.00844603031873703
1772094081696276700,2.42127685546875,0.03762473165988922,0.010887909680604935,-0.02899954281747341
1772094081706225700,2.4312255859375,0.014060016721487045,0.01687016896903515,-0.028857329860329628
1772094081716175600,2.441175537109375,0.022008253261446953,-0.013673173263669014,-0.001495149452239275
1772094081726124500,2.45112451171875,0.01958158053457737,-0.015043104067444801,-0.011120079085230827
1772094081736073500,2.461073486328125,0.004713387228548527,0.022923534736037254,-0.025765130296349525
1772094081746023200,2.471023193359375,0.0042478665709495544,0.0418868362903595,-0.020771171897649765
1772094081755973000,2.48097314453125,-0.0020294049754738808,0.036120276898145676,-0.009213531389832497
1772094081765922000,2.490922119140625,-0.00023310258984565735,0.03554370254278183,0.014286467805504799
1772094081775871000,2.50087109375,0.008647069334983826,0.021620532497763634,0.031131794676184654
1772094081785820000,2.51081982421875,0.014580591581761837,0.019520362839102745,0.029405532404780388
1772094081795770000,2.52077001953125,0.017778662964701653,0.016785789281129837,0.020006336271762848
1772094081805719000,2.530718994140625,0.013659019023180008,0.02317391335964203,0.005527795758098364
1772094081815668200,2.540668212890625,0.006884060334414244,0.03081529587507248,-0.002553342841565609
1772094081825617200,2.5506171875,0.004476297181099653,0.02889622189104557,-0.0038503026589751244
1772094081835566000,2.560566162109375,0.003399438224732876,0.014877776615321636,-0.003884744830429554
1772094081845516300,2.570516357421875,0.010931391268968582,0.009668100625276566,-0.007322619669139385
1772094081855465200,2.58046533203125,0.015269722789525986,0.007162988185882568,-0.01262957789003849
1772094081865414100,2.5904140625,0.01733233965933323,0.009318284690380096,-0.01245034672319889
1772094081875363000,2.600363037109375,0.016612868756055832,0.0037706932052969933,-0.014619659632444382
1772094081885313000,2.61031298828125,0.014761971309781075,0.006694044917821884,-0.01616589166224003
1772094081895262200,2.62026220703125,0.014585386030375957,0.006985397078096867,-0.013595996424555779
1772094081905211100,2.630211181640625,0.018741782754659653,0.005029837600886822,-0.004358554724603891
1772094081915160000,2.64016015625,0.02487771399319172,0.0010809646919369698,0.0013016597367823124
1772094081925110000,2.650110107421875,0.02621355652809143,-0.0024216249585151672,0.014228111132979393
1772094081935059000,2.660058837890625,0.03067864663898945,-0.0021885368041694164,0.020836735144257545
1772094081945008000,2.670008056640625,0.02989301271736622,0.0010067238472402096,0.01220463216304779
1772094081954957000,2.67995703125,0.026532121002674103,0.017602475360035896,-0.003423806745558977
1772094081964907300,2.6899072265625,0.019999919459223747,0.02797495573759079,-0.015209892764687538
1772094081974856200,2.699856201171875,0.01863401010632515,0.027818486094474792,-0.01164458692073822
1772094081984805000,2.70980517578125,0.024545960128307343,0.01750859059393406,0.0020821448415517807
1772094081994754000,2.719754150390625,0.024518411606550217,0.005191696807742119,0.011173808015882969
1772094082004704300,2.729704345703125,0.022388415411114693,0.007761114276945591,0.012656922452151775
1772094082014653200,2.739653076171875,0.012295162305235863,0.009809720329940319,0.0037718527019023895
1772094082024602000,2.74960205078125,0.008387241512537003,0.017151789739727974,-0.00597371906042099
1772094082034551000,2.759551025390625,0.0005520288832485676,0.015010790899395943,-0.010856179520487785
1772094082044500200,2.769500244140625,-0.0037460466846823692,0.0047578876838088036,-0.015259448438882828
1772094082054450000,2.779449951171875,-0.005668050143867731,0.0013386551290750504,-0.02086913213133812
1772094082064399000,2.789399169921875,-0.013968324288725853,0.0007125460542738438,-0.027868986129760742
1772094082074348300,2.799348388671875,-0.021711943671107292,0.008873987942934036,-0.03092164546251297
1772094082084297200,2.809297119140625,-0.03103380650281906,0.010782675817608833,-0.02448558434844017
1772094082094247200,2.8192470703125,-0.0343182310461998,-0.0003422284498810768,-0.007712341379374266
1772094082104196000,2.829196044921875,-0.037473276257514954,-0.005024597980082035,0.01282382570207119
1772094082114145000,2.83914501953125,-0.0386410653591156,-0.0007861168123781681,0.016966836526989937
1772094082124094000,2.849093994140625,-0.034264158457517624,0.009341351687908173,0.01626775786280632
1772094082134043100,2.859043212890625,-0.03719831258058548,0.014887160621583462,0.005329991225153208
1772094082143993000,2.8689931640625,-0.03839779645204544,0.02502155303955078,-0.0037945308722555637
1772094082153942000,2.87894189453125,-0.03454851731657982,0.029533028602600098,-0.009248008020222187
1772094082163891200,2.88889111328125,-0.034174077212810516,0.02954421378672123,-0.00041936244815588
1772094082173840100,2.898840087890625,-0.031051915138959885,0.025791717693209648,0.021452346816658974
1772094082183790000,2.9087900390625,-0.02765505388379097,0.02485029026865959,0.037466466426849365
1772094082193739300,2.9187392578125,-0.019352564588189125,0.02985142171382904,0.049515251070261
1772094082203688200,2.928688232421875,-0.016508307307958603,0.02767375484108925,0.052357375621795654
1772094082213637000,2.93863720703125,-0.00865185633301735,0.016522932797670364,0.043907202780246735
1772094082223587000,2.948587158203125,-0.006062197964638472,0.01017742045223713,0.023608054965734482
1772094082233536000,2.958535888671875,-0.0039057829417288303,0.0015505612827837467,-0.0022109048441052437
1772094082243485200,2.968485107421875,-0.007631544955074787,-0.007107642013579607,-0.021728679537773132
1772094082253434000,2.97843408203125,-0.00912699569016695,-0.0064777834340929985,-0.04238799586892128
1772094082263384000,2.988384033203125,-0.016764674335718155,-0.012943937443196774,-0.05184993892908096
1772094082273333000,2.9983330078125,-0.014453232288360596,-0.02738042175769806,-0.04979333654046059
1772094082283282000,3.008281982421875,-0.011726688593626022,-0.03003772348165512,-0.04456422105431557
1772094082293231000,3.018231201171875,-0.009070813655853271,-0.0250222347676754,-0.03570632264018059
1772094082303180300,3.02818017578125,-0.007269717752933502,-0.028421759605407715,-0.020899146795272827
1772094082313130200,3.038130126953125,-0.0021004858426749706,-0.022995324805378914,-0.007319965865463018
1772094082323079200,3.0480791015625,-0.008208179846405983,-0.006816887762397528,0.0035984620917588472
1772094082333028000,3.058028076171875,-0.014953949488699436,-0.0030837273225188255,0.011681818403303623
1772094082342977000,3.06797705078125,-0.024826819077134132,0.0029043899849057198,0.01764783263206482
1772094082352927200,3.07792724609375,-0.025023214519023895,-0.003834781236946583,0.01889249123632908
1772094082362876200,3.087876220703125,-0.021353909745812416,-0.005272621288895607,0.016903376206755638
1772094082372825000,3.0978251953125,-0.017182525247335434,-0.011243243701756,0.008527914993464947
1772094082382774000,3.10777392578125,-0.01932423934340477,-0.016468364745378494,0.0019176830537617207
1772094082392724000,3.117723876953125,-0.024643562734127045,-0.018228797242045403,-0.007870054803788662
1772094082402673000,3.1276728515625,-0.0297967791557312,-0.01297864317893982,-0.01690695993602276
1772094082412622300,3.137622314453125,-0.02858222834765911,-0.008435595780611038,-0.02596021071076393
1772094082422571300,3.1475712890625,-0.027538536116480827,0.0054352120496332645,-0.02794799581170082
1772094082432520200,3.157520263671875,-0.01634915918111801,0.012563671916723251,-0.02547534555196762
1772094082442470100,3.16747021484375,-0.009708568453788757,0.014170357957482338,-0.009478537365794182
1772094082452419000,3.177419189453125,0.000205253716558218,0.014200064353644848,0.010643530637025833
1772094082462368000,3.187367919921875,0.006334519013762474,0.01845153421163559,0.025102896615862846
1772094082472317200,3.197317138671875,0.011504055932164192,0.025121605023741722,0.02760910987854004
1772094082482267100,3.20726708984375,0.014822887256741524,0.027112051844596863,0.025768598541617393
1772094082492216000,3.217216064453125,0.017958512529730797,0.02439308725297451,0.019351311028003693
1772094082502165000,3.2271650390625,0.017960909754037857,0.02686263620853424,0.008593205362558365
1772094082512114200,3.2371142578125,0.01709968037903309,0.027000583708286285,0.0010195537470281124
1772094082522064100,3.247064208984375,0.01542295515537262,0.02168065309524536,-0.004264957271516323
1772094082532013000,3.257012939453125,0.01463314238935709,0.019174132496118546,-0.012103715911507607
1772094082541962200,3.266962158203125,0.009377127513289452,0.025073032826185226,-0.01610538177192211
1772094082551911200,3.2769111328125,0.010367628186941147,0.014521630480885506,-0.009954027831554413
1772094082561861000,3.286861083984375,0.017095837742090225,0.003978442400693893,-0.007911117747426033
1772094082571810000,3.29681005859375,0.023216167464852333,-0.004617934115231037,0.00024864543229341507
1772094082581759200,3.30675927734375,0.03035663440823555,-0.0030242977663874626,0.009445339441299438
1772094082591708200,3.316708251953125,0.03093080222606659,-0.0007473574951291084,0.013872379437088966
1772094082601657000,3.326656982421875,0.029584843665361404,0.003344589378684759,0.011798311024904251
1772094082611607000,3.33660693359375,0.02899334207177162,0.0031232181936502457,0.008902722969651222
1772094082621556000,3.346555908203125,0.030936118215322495,0.007052179891616106,0.003430725308135152
1772094082631505000,3.3565048828125,0.03877557814121246,0.0074135917238891125,0.0023110215552151203
1772094082641454300,3.366454345703125,0.03983631730079651,0.009014951065182686,0.004455398768186569
1772094082651404000,3.376404052734375,0.03986338526010513,0.004244318697601557,0.012622588314116001
1772094082661353200,3.386353271484375,0.033604156225919724,0.007810025010257959,0.014941401779651642
1772094082671302100,3.39630224609375,0.029172837734222412,0.01674608699977398,0.009344274178147316
1772094082681251000,3.4062509765625,0.019270140677690506,0.015886951237916946,0.008321620523929596
1772094082691201300,3.416201171875,0.015622645616531372,0.016910608857870102,0.0026206020265817642
1772094082701150200,3.426150146484375,0.017338253557682037,0.012222913093864918,0.00004053162410855293
1772094082711099100,3.43609912109375,0.019109521061182022,0.007345600053668022,-0.00406739441677928
1772094082721048000,3.446048095703125,0.01658058352768421,-0.004709198605269194,-0.0038074697367846966
1772094082730997000,3.4559970703125,0.013484700582921505,-0.011238081380724907,-0.014972051605582237
1772094082740947000,3.465947021484375,0.005650480277836323,-0.006566364783793688,-0.02527555450797081
1772094082750895600,3.4758955078125,-0.0028714784421026707,-0.012368572875857353,-0.03124520368874073
1772094082760844800,3.4858447265625,-0.006830533500760794,-0.014145700260996819,-0.020419185981154442
1772094082770793700,3.495793701171875,-0.0076447222381830215,-0.02578635700047016,-0.003367017023265362
1772094082780743700,3.50574365234375,-0.005897955037653446,-0.035485852509737015,0.01403860468417406
1772094082790692600,3.515692626953125,-0.004894135519862175,-0.03403797745704651,0.0141501035541296
1772094082800641500,3.5256416015625,0.0003024907782673836,-0.02868129499256611,0.0023323269560933113
1772094082810590500,3.535590576171875,-0.004829186014831066,-0.02119254693388939,-0.003946863580495119
1772094082820540700,3.545540771484375,0.0021877107210457325,-0.013963929377496243,-0.004846213851124048
1772094082830489600,3.555489501953125,0.0022109653800725937,-0.01638982445001602,-0.0027683046646416187
1772094082840438500,3.5654384765625,0.004334570374339819,-0.02401179075241089,0.002909022383391857
1772094082850387500,3.575387451171875,0.008293017745018005,-0.030630730092525482,0.005059345625340939
1772094082860337700,3.585337646484375,0.009692775085568428,-0.037931252270936966,0.002228405559435487
1772094082870286600,3.59528662109375,0.014648297801613808,-0.046234969049692154,0.00014916341751813889
1772094082880235800,3.60523583984375,0.013860002160072327,-0.05693448334932327,-0.0035310587845742702
1772094082890184700,3.615184814453125,0.014376046136021614,-0.06682884693145752,-0.017269156873226166
1772094082900133600,3.625133544921875,0.011832460761070251,-0.06971757858991623,-0.03529928997159004
1772094082910083600,3.63508349609375,0.011160923168063164,-0.07291365414857864,-0.05226292088627815
1772094082920032800,3.64503271484375,0.009486859664320946,-0.063247449696064,-0.0632908046245575
1772094082929981700,3.654981689453125,0.0070076268166303635,-0.05356902629137039,-0.06071263924241066
1772094082939930600,3.6649306640625,-0.005553438328206539,-0.05518290027976036,-0.03897751867771149
1772094082949880600,3.674880615234375,-0.007626369595527649,-0.054820530116558075,-0.012361176311969757
1772094082959829500,3.68482958984375,-0.007434355095028877,-0.047058213502168655,0.004803429823368788
1772094082969778400,3.6947783203125,-0.002965486841276288,-0.030332252383232117,0.016851413995027542
1772094082979727600,3.7047275390625,0.0012420411221683025,-0.020461779087781906,0.02154097706079483
1772094082989677600,3.714677490234375,0.006381124258041382,-0.014423324726521969,0.026009703055024147
1772094082999626800,3.724626708984375,0.005156336352229118,-0.006973396986722946,0.025638191029429436
1772094083009575700,3.73457568359375,-0.00418489333242178,-0.005070651415735483,0.024826372042298317
1772094083019524600,3.744524658203125,-0.007890681736171246,-0.006425401661545038,0.016391342505812645
1772094083029473500,3.7544736328125,-0.007548145949840546,-0.0011992957442998886,0.01268993690609932
1772094083039423700,3.764423828125,-0.006967310793697834,-0.007967453449964523,0.008647524751722813
1772094083049372700,3.77437255859375,-0.004811843857169151,-0.005963199771940708,0.010970289818942547
1772094083059321600,3.784321533203125,-0.0014788978733122349,-0.003680870868265629,0.012140216305851936
1772094083069270500,3.7942705078125,-0.00028048153035342693,-0.0004921462386846542,0.007239269558340311
1772094083079220500,3.804220458984375,0.00611749617382884,-0.005499421153217554,0.01040630042552948
1772094083089169700,3.814169677734375,0.007883265614509583,-0.013061427511274815,0.00987797137349844
1772094083099118600,3.82411865234375,0.007394308689981699,-0.011523985303938389,0.012097982689738274
1772094083109067800,3.83406787109375,0.0020367708057165146,-0.0062768603675067425,0.002555222250521183
1772094083119017700,3.844017822265625,-0.006108773406594992,0.006230675615370274,-0.0063197617419064045
1772094083128966700,3.853966552734375,-0.007488654926419258,0.005426624324172735,0.0003410251811146736
1772094083138915600,3.86391552734375,-0.001686692237854004,0.0009583728387951851,0.011387551203370094
1772094083148864500,3.873864501953125,0.006218000315129757,-0.0036573936231434345,0.017352066934108734
1772094083158813700,3.883813720703125,0.007573282346129417,-0.012447424232959747,0.021759331226348877
1772094083168763600,3.893763671875,0.009417317807674408,-0.00923433993011713,0.017229612916707993
1772094083178712600,3.903712646484375,0.006708350498229265,-0.004474472254514694,0.007535707205533981
1772094083188661500,3.91366162109375,0.002669881097972393,0.0064496309496462345,-0.00133114168420434
1772094083198610400,3.9236103515625,-0.004106532316654921,0.012581558898091316,-0.00046028802171349525
1772094083208560600,3.933560546875,-0.005133894272148609,0.007102883420884609,0.011362127959728241
1772094083218509600,3.943509521484375,-0.006001285742968321,-0.0009065736085176468,0.02158121019601822
1772094083228458800,3.953458740234375,0.0011375411413609982,-0.008862356655299664,0.02966930717229843
1772094083238407700,3.96340771484375,0.0010565808042883873,-0.017246786504983902,0.019713878631591797
1772094083248357600,3.973357666015625,0.003518021199852228,-0.021421192213892937,0.005028766114264727
1772094083258306600,3.983306640625,-0.0009323873091489077,-0.012630097568035126,-0.00897892750799656
1772094083268255700,3.993255859375,-0.011544890701770782,-0.008179605938494205,-0.020576905459165573
1772094083278204700,4.00320458984375,-0.022831633687019348,-0.011159949004650116,-0.0131858354434371
1772094083288153600,4.013153564453125,-0.03059973567724228,-0.019110102206468582,-0.0016411207616329193
1772094083298103600,4.023103515625,-0.02638794668018818,-0.01446102187037468,0.003480404382571578
1772094083308052500,4.033052490234375,-0.023722387850284576,-0.009302211925387383,0.004905994515866041
1772094083318001400,4.04300146484375,-0.016661282628774643,-0.00014360062777996063,0.00401037372648716
1772094083327950600,4.05295068359375,-0.015452956780791283,0.005098607391119003,0.004692068323493004
1772094083337900500,4.062900634765625,-0.014265719801187515,0.010933592915534973,0.006858017295598984
1772094083347849700,4.072849609375,-0.0165275689214468,0.013071129098534584,0.010311811231076717
1772094083357798700,4.082798583984375,-0.015788275748491287,0.012223977595567703,0.007000170648097992
1772094083367747600,4.09274755859375,-0.016451232135295868,0.0067860279232263565,0.0032213679514825344
1772094083377697800,4.10269775390625,-0.016987858340144157,0.00676126079633832,0.0008527524769306183
1772094083387646700,4.112646728515625,-0.008081045001745224,0.008682629093527794,-0.00272577116265893
1772094083397595600,4.122595703125,-0.0028324867598712444,0.0007256367243826389,-0.003255207557231188
1772094083407544600,4.132544677734375,0.0015487228520214558,-0.005360362119972706,-0.004837468732148409
1772094083417494500,4.14249462890625,-0.00076449871994555,-0.0084842499345541,-0.010975787416100502
1772094083427443500,4.152443359375,-0.002383786253631115,0.0014283221680670977,-0.019774984568357468
1772094083437392600,4.162392578125,-0.00698546227067709,0.010384267196059227,-0.02316731959581375
1772094083447341600,4.172341552734375,-0.0005150833167135715,0.0035299004521220922,-0.017393119633197784
1772094083457290800,4.182290771484375,0.009146865457296371,-0.0036678253673017025,0.0004322160966694355
1772094083467240400,4.192240478515625,0.017970943823456764,-0.004253982100635767,0.002496585948392749
1772094083477189600,4.202189697265625,0.02299659512937069,0.0007628803141415119,0.0023972499184310436
1772094083487138600,4.212138671875,0.017427753657102585,0.008627235889434814,0.005164583213627338
1772094083497087700,4.222087646484375,0.007499224040657282,0.006368075963109732,0.01339002326130867
1772094083507037700,4.23203759765625,0.0012225909158587456,0.011022175662219524,0.010654913261532784
1772094083516986600,4.241986572265625,-0.002879476174712181,0.013354038819670677,0.0066718896850943565
1772094083526935600,4.251935546875,-0.0005269881803542376,0.003943268209695816,-0.0011217491701245308
1772094083536884500,4.261884521484375,0.0060345083475112915,0.00047956081107258797,0.0012764274142682552
1772094083546834700,4.271834716796875,0.0030781603418290615,0.0042257471941411495,0.006360461935400963
1772094083556783600,4.28178369140625,0.0025370060466229916,0.007271071895956993,0.00766700878739357
1772094083566732500,4.291732666015625,-0.0024540408048778772,0.011247050017118454,0.0017980728298425674
1772094083576681700,4.301681640625,-0.0026657620910555124,0.01107314508408308,0.0003905920311808586
1772094083586630700,4.311630615234375,-0.005148801486939192,0.01062032114714384,0.0005311751738190651
1772094083596580600,4.32158056640625,-0.00379857886582613,0.007069528102874756,0.011731099337339401
1772094083606529800,4.33152978515625,-0.008656414225697517,0.01057550311088562,0.021554235368967056
1772094083616478700,4.341478759765625,-0.007973846979439259,0.01653752103447914,0.02182108350098133
1772094083626427600,4.351427734375,-0.007364007644355297,0.022791419178247452,0.017496049404144287
1772094083636377600,4.361377685546875,-0.006768524646759033,0.02567216381430626,0.01528242975473404
1772094083646326500,4.371326416015625,-0.004662706982344389,0.020316075533628464,0.012422511354088783
1772094083656275500,4.381275390625,-0.0020370963029563427,0.0044596134684979916,0.01379190944135189
1772094083666224600,4.391224609375,-0.0031652115285396576,-0.008980827406048775,0.010462159290909767
1772094083676174600,4.401174560546875,-0.004882683977484703,-0.01648002304136753,0.004315050318837166
1772094083686123500,4.41112353515625,-0.010496247559785843,-0.01205034926533699,-0.007913552224636078
1772094083696072700,4.42107275390625,-0.01498580351471901,-0.009177861735224724,-0.022043220698833466
1772094083706021600,4.431021728515625,-0.023466991260647774,0.0034528570249676704,-0.02510908804833889
1772094083715970600,4.440970458984375,-0.024814816191792488,0.009299295023083687,-0.016155274584889412
1772094083725920800,4.450920654296875,-0.027577342465519905,0.014978233724832535,0.0029119497630745173
1772094083735869700,4.46086962890625,-0.022884584963321686,0.007438290864229202,0.031506575644016266
1772094083745818600,4.470818603515625,-0.011869233101606369,-0.000035066623240709305,0.044796764850616455
1772094083755767000,4.48076708984375,-0.002865884453058243,0.001266686711460352,0.04697149991989136
1772094083765717000,4.490717041015625,-0.0013937309850007296,0.0012010505888611078,0.038544803857803345
1772094083775666200,4.500666259765625,-0.0019029274117201567,0.0006345962174236774,0.022002577781677246
1772094083785615000,4.510614990234375,-0.0014611715450882912,0.008303580805659294,0.002240879228338599
1772094083795564300,4.520564208984375,-0.005408775061368942,0.009917455725371838,-0.009043732658028603
1772094083805514000,4.530513916015625,-0.00603434257209301,0.004033528733998537,-0.013874776661396027
1772094083815463200,4.540463134765625,-0.0004390410613268614,-0.0024709762074053288,-0.004302576649934053
1772094083825412000,4.550412109375,0.0038622384890913963,-0.017626164481043816,0.012147966772317886
1772094083835361000,4.560361083984375,0.008523569442331791,-0.02102888561785221,0.01938990131020546
1772094083845310200,4.570310302734375,0.00856500118970871,-0.016709402203559875,0.009668391197919846
1772094083855260200,4.58026025390625,0.002376614138484001,-0.009074918925762177,0.001899684313684702
1772094083865209000,4.590208984375,0.003130863420665264,-0.003548204433172941,-0.005862442310899496
1772094083875158000,4.600157958984375,0.002627792302519083,0.00023162038996815681,-0.008275799453258514
1772094083885107000,4.61010693359375,0.010717207565903664,0.004339525941759348,-0.0050969976000487804
1772094083895057200,4.62005712890625,0.016092531383037567,0.0014238969888538122,-0.000021012499928474426
1772094083905006000,4.630006103515625,0.011481376364827156,-0.002806288655847311,0.009738843888044357
1772094083914955300,4.639955322265625,0.01044380757957697,-0.00344731193035841,0.010816891677677631
1772094083924904200,4.649904296875,0.00881761685013771,-0.005108713638037443,0.006810450926423073
1772094083934854100,4.659854248046875,0.005219419952481985,-0.004525481257587671,0.0012532328255474567
1772094083944803300,4.66980322265625,0.011042135767638683,-0.007032172754406929,0.0005284566432237625
1772094083954752300,4.679752197265625,0.010430674068629742,-0.008737660944461823,0.0050441124476492405
1772094083964701200,4.689701171875,0.006246453616768122,-0.006983272265642881,0.00017102668061852455
1772094083974650000,4.699650146484375,0.0018961797468364239,-0.003796533215790987,-0.006091663148254156
1772094083984600000,4.70960009765625,-0.0009093324188143015,-0.0009545725770294666,-0.013188952580094337
1772094083994549000,4.719549072265625,0.0016342527233064175,-0.005094989202916622,-0.011673880741000175
1772094084004498000,4.729497802734375,-0.0007920477073639631,-0.006115941796451807,-0.002311296295374632
1772094084014447000,4.739447021484375,0.004962510894984007,-0.013870002701878548,0.010090777650475502
1772094084024397000,4.74939697265625,0.004283593501895666,-0.01861647143959999,0.016172459349036217
1772094084034346000,4.759345947265625,0.004035653080791235,-0.013628371991217136,0.010244261473417282
1772094084044295200,4.769295166015625,0.0019485685043036938,-0.01533512957394123,0.002499515423551202
1772094084054244000,4.779244140625,-0.0019620172679424286,-0.007883338257670403,-0.010647711344063282
1772094084064194300,4.7891943359375,-0.0023735612630844116,0.00029231980443000793,-0.014714471995830536
1772094084074143200,4.799143310546875,-0.005005563143640757,-0.0002315239980816841,-0.013925909996032715
1772094084084092200,4.809092041015625,-0.0060732983984053135,-0.005924605298787355,-0.009701589122414589
1772094084094041000,4.819041015625,-0.008083186112344265,-0.004533369559794664,-0.0017110398039221764
1772094084103990000,4.828989990234375,0.000030260998755693436,-0.010299810208380222,-0.0025102212093770504
1772094084113940200,4.838940185546875,0.006049271207302809,-0.009251058101654053,0.005316543392837048
1772094084123889200,4.84888916015625,0.008801478892564774,-0.005266127642244101,0.014258683659136295
1772094084133838000,4.858838134765625,0.0037774252705276012,-0.010583395138382912,0.014482921920716763
1772094084143787300,4.868787353515625,0.0037282644771039486,-0.009113493375480175,0.010933969169855118
1772094084153737000,4.878737060546875,0.005005516577512026,-0.012905036099255085,0.0002957060933113098
1772094084163686100,4.88868603515625,-0.0011216613929718733,-0.01228091400116682,-0.006641217973083258
1772094084173635000,4.898635009765625,0.002685860265046358,-0.011352003552019596,-0.013425886631011963
1772094084183584300,4.908584228515625,-0.00045269704423844814,-0.008876185864210129,-0.014629768207669258
1772094084193534200,4.9185341796875,-0.0012657600454986095,-0.010361697524785995,-0.01439674198627472
1772094084203483100,4.928483154296875,-0.0013409252278506756,-0.007722360547631979,-0.01536797545850277
1772094084213432000,4.93843212890625,-0.0033225833903998137,-0.004786758217960596,-0.009665615856647491
1772094084223381000,4.948381103515625,-0.003159842686727643,-0.01412646472454071,-0.0016465135850012302
1772094084233330000,4.958329833984375,-0.004914865829050541,-0.018916426226496696,-0.0027147075161337852
1772094084243280100,4.968280029296875,-0.0015136892907321453,-0.024167463183403015,-0.00812852568924427
1772094084253229000,4.97822900390625,-0.0027826856821775436,-0.02461167797446251,-0.011214863508939743
1772094084263178000,4.988177978515625,-0.010255400091409683,-0.018121249973773956,-0.01703163981437683
1772094084273127200,4.998127197265625,-0.01744886301457882,-0.007675531320273876,-0.013193758204579353
1772094084283077000,5.0080771484375,-0.020203540101647377,-0.0008822977542877197,-0.008801361545920372
1772094084293026300,5.0180263671875,-0.015882030129432678,0.0008223913609981537,-0.0028867479413747787
1772094084302975200,5.027975341796875,-0.0098480936139822,0.001735650934278965,0.004893876612186432
1772094084312924200,5.037924072265625,0.002628815360367298,-0.012317318469285965,0.002319398568943143
1772094084322874000,5.0478740234375,0.006996065843850374,-0.01397552527487278,0.0008999509736895561
1772094084332823000,5.057822998046875,0.006540932226926088,-0.017376648262143135,-0.007712445221841335
1772094084342772000,5.06777197265625,0.007164040580391884,-0.018381498754024506,-0.015599647536873817
1772094084352721200,5.07772119140625,0.002338925376534462,-0.01486026868224144,-0.02204023487865925
1772094084362670000,5.087670166015625,-0.0002598622813820839,-0.008755686692893505,-0.020645717158913612
1772094084372620000,5.0976201171875,-0.0075265634804964066,-0.005658963695168495,-0.02015569433569908
1772094084382569000,5.10756884765625,-0.012581510469317436,0.00073581887409091,-0.014103395864367485
1772094084392518100,5.11751806640625,-0.015464382246136665,0.007374546956270933,-0.0005047628656029701
1772094084402467000,5.127467041015625,-0.01739063672721386,0.011456967331469059,0.011231985874474049
1772094084412417300,5.137417236328125,-0.016205264255404472,0.01050115842372179,0.018234234303236008
1772094084422366200,5.1473662109375,-0.015233900398015976,0.011008735746145248,0.025694452226161957
1772094084432315100,5.157315185546875,-0.009407702833414078,0.008751174435019493,0.023575376719236374
1772094084442264000,5.16726416015625,-0.009701205417513847,0.01674678362905979,0.018848471343517303
1772094084452213000,5.177212890625,-0.01658228226006031,0.01589830033481121,0.011327970772981644
1772094084462163200,5.1871630859375,-0.013053584843873978,0.010836225003004074,0.006095323711633682
1772094084472112000,5.197112060546875,-0.009134477004408836,0.0047929794527590275,0.0018678216729313135
1772094084482061000,5.20706103515625,-0.0004275746177881956,-0.00052275275811553,-0.0027221296913921833
1772094084492010200,5.21701025390625,0.0031663612462580204,-0.006094085518270731,-0.012363305315375328
1772094084501960000,5.2269599609375,0.004178870934993029,-0.00014662975445389748,-0.014844631776213646
1772094084511909000,5.2369091796875,-0.003147751558572054,-0.0014278762973845005,-0.010206736624240875
1772094084521858300,5.2468583984375,-0.0014037531800568104,0.00036184536293148994,-0.0012997714802622795
1772094084531807200,5.25680712890625,0.0010399636812508106,-0.003918120637536049,0.002801762893795967
1772094084541757200,5.266757080078125,0.008180968463420868,-0.0042648050002753735,0.002199550624936819
1772094084551706000,5.2767060546875,0.013715816661715508,-0.00502726761624217,0.0022187253925949335
1772094084561655000,5.286655029296875,0.01588037982583046,-0.00943637266755104,0.002079128520563245
1772094084571604000,5.29660400390625,0.016161343082785606,-0.00925021804869175,0.0030383991543203592
1772094084581553200,5.30655322265625,0.015587182715535164,-0.008185811340808868,0.0025474424473941326
1772094084591503000,5.316503173828125,0.014698751270771027,-0.002196628600358963,-0.0010049482807517052
1772094084601452000,5.3264521484375,0.020031070336699486,-0.0012300037778913975,0.005157306790351868
1772094084611401000,5.33640087890625,0.020136265084147453,-0.007357670925557613,0.0173183660954237
1772094084621350100,5.34635009765625,0.020529229193925858,-0.01300867460668087,0.015792004764080048
1772094084631300000,5.356300048828125,0.02861698344349861,-0.014223342761397362,0.0024809930473566055
1772094084641249300,5.366249267578125,0.031156158074736595,-0.0016936599276959896,-0.009983828291296959
1772094084651198200,5.3761982421875,0.02637179009616375,0.004028141498565674,-0.02167350798845291
1772094084661147100,5.386147216796875,0.015339894220232964,0.011102620512247086,-0.03552047908306122
1772094084671097000,5.39609716796875,0.0053911227732896805,0.02436596155166626,-0.040136002004146576
1772094084681046000,5.4060458984375,-0.001325978897511959,0.023794613778591156,-0.022648535668849945
1772094084690995200,5.4159951171875,-0.005120184272527695,0.019107982516288757,-0.000032971613109111786
1772094084700944100,5.425944091796875,-0.011239894665777683,0.024355147033929825,0.02048616111278534
1772094084710893000,5.43589306640625,-0.0074568744748830795,0.022738609462976456,0.0322357602417469
1772094084720843000,5.445843017578125,-0.006020855158567429,0.02806532010436058,0.033259667456150055
1772094084730792000,5.4557919921875,-0.0063154008239507675,0.02265297807753086,0.029032167047262192
1772094084740741000,5.4657412109375,-0.007245101034641266,0.025048287585377693,0.013900550082325935
1772094084750691600,5.475691650390625,-0.018475119024515152,0.03454085811972618,0.009485028684139252
1772094084760641500,5.4856416015625,-0.018964702263474464,0.029461637139320374,0.0017026977147907019
1772094084770590500,5.495590576171875,-0.021080052480101585,0.030508525669574738,-0.006843918934464455
1772094084780539400,5.505539306640625,-0.016833661124110222,0.025063036009669304,-0.009386835619807243
1772094084790488600,5.515488525390625,-0.008802900090813637,0.017774496227502823,-0.0008532684296369553
1772094084800438500,5.5254384765625,-0.005944219883531332,0.007683103904128075,0.009865610860288143
1772094084810387700,5.5353876953125,-0.005093339830636978,0.0024390732869505882,0.01853233575820923
1772094084820336600,5.545336669921875,-0.007630460895597935,0.003219154430553317,0.013416120782494545
1772094084830285600,5.55528564453125,-0.007145498879253864,0.007499919272959232,0.006571531295776367
1772094084840234500,5.565234375,-0.0055857375264167786,0.020996635779738426,-0.007199262734502554
1772094084850184700,5.575184814453125,-0.004346036352217197,0.02445368468761444,-0.014458771795034409
1772094084860133600,5.585133544921875,0.0029004341922700405,0.015784092247486115,-0.007340212818235159
1772094084870082600,5.59508251953125,0.006136707495898008,0.008464127779006958,-0.004923659842461348
1772094084880031500,5.605031494140625,0.008139446377754211,0.01333983987569809,-0.0006643510423600674
1772094084889981400,5.6149814453125,-0.001854331698268652,0.015897806733846664,0.007035912945866585
1772094084899930400,5.624930419921875,-0.017181064933538437,0.022272739559412003,0.020139863714575768
1772094084909879800,5.6348798828125,-0.021310031414031982,0.026280798017978668,0.02839219942688942
1772094084919828700,5.644828857421875,-0.01956559717655182,0.036684148013591766,0.024330133572220802
1772094084929778700,5.65477880859375,-0.016302958130836487,0.03774009272456169,0.019522594287991524
1772094084939727600,5.6647275390625,-0.00266645778901875,0.0320885144174099,0.017017213627696037
1772094084949676500,5.674676513671875,0.007505486253648996,0.0263933464884758,0.015574045479297638
1772094084959625500,5.68462548828125,0.011422893032431602,0.03338617458939552,0.013393476605415344
1772094084969574700,5.69457470703125,0.006093374919146299,0.04444388672709465,0.012651253491640091
1772094084979524600,5.704524658203125,-0.0038467205595225096,0.051261864602565765,0.017130516469478607
1772094084989473500,5.7144736328125,-0.0035250107757747173,0.05298439413309097,0.019094331189990044
1772094084999422500,5.72442236328125,-0.0012054229155182838,0.03518843650817871,0.02506534568965435
1772094085009371400,5.734371337890625,0.010741784237325191,0.008970148861408234,0.02867898903787136
1772094085019321600,5.744321533203125,0.017114847898483276,-0.011141554452478886,0.021506132557988167
1772094085029270500,5.7542705078125,0.0174860917031765,-0.02737485244870186,0.012225547805428505
1772094085039219700,5.7642197265625,0.018125493079423904,-0.026245055720210075,-0.01640615426003933
1772094085049168600,5.774168701171875,0.0076006813906133175,-0.024324383586645126,-0.04402925819158554
1772094085059117600,5.78411767578125,-0.005251478403806686,-0.016463592648506165,-0.06330834329128265
1772094085069067500,5.794067626953125,-0.01567322574555874,-0.013839846476912498,-0.05867844074964523
1772094085079016700,5.8040166015625,-0.027811458334326744,-0.01147434487938881,-0.0413568876683712
1772094085088965600,5.813965576171875,-0.03315269201993942,-0.010237306356430054,-0.01716712862253189
1772094085098914600,5.82391455078125,-0.037010516971349716,-0.006934392265975475,0.008542218245565891
1772094085108864500,5.833864501953125,-0.03145169839262962,-0.0023156721144914627,0.030193716287612915
1772094085118813400,5.8438134765625,-0.032059185206890106,-0.000051126815378665924,0.03807414695620537
1772094085128762400,5.853762451171875,-0.02966686524450779,-0.0030820700339972973,0.0392502024769783
1772094085138711800,5.8637119140625,-0.02751481533050537,-0.014767405577003956,0.03133223578333855
1772094085148661500,5.87366162109375,-0.02665887586772442,-0.017144810408353806,0.015857139602303505
1772094085158610700,5.883610595703125,-0.032241903245449066,-0.0082285450771451,-0.0094100721180439
1772094085168559600,5.8935595703125,-0.03997545689344406,-0.0006121709011495113,-0.030491122975945473
1772094085178508500,5.903508544921875,-0.047325849533081055,-0.002049603033810854,-0.03235531970858574
1772094085188457500,5.91345751953125,-0.04067540168762207,-0.006352472584694624,-0.023495249450206757
1772094085198407700,5.92340771484375,-0.02606278285384178,-0.014789590612053871,-0.01007441058754921
1772094085208356600,5.933356689453125,-0.009057966992259026,-0.016611993312835693,0.005392163060605526
1772094085218305500,5.943305419921875,-0.002141671720892191,-0.02269647642970085,0.019695181399583817
1772094085228254500,5.95325439453125,0.006490698549896479,-0.01938563585281372,0.013172834180295467
1772094085238204400,5.963204345703125,0.013135861605405807,-0.009757920168340206,-0.0030895695090293884
1772094085248153600,5.973153564453125,0.01146073266863823,-0.0006496426649391651,-0.015389111824333668
1772094085258102500,5.9831025390625,0.010224573314189911,0.0016350029036402702,-0.008830629289150238
1772094085268051700,5.9930517578125,0.010357998311519623,0.0029617897234857082,-0.0015082675963640213
1772094085278000600,6.003000732421875,0.008391544222831726,0.0031846980564296246,0.00665304996073246
1772094085287950600,6.01295068359375,0.00787435844540596,0.0009521697647869587,0.013330926187336445
1772094085297899500,6.0228994140625,0.007295653223991394,0.0026126508601009846,0.012395357713103294
1772094085307848700,6.0328486328125,0.011161497794091702,-0.0019245767034590244,0.008883713744580746
1772094085317797600,6.042797607421875,0.012192321941256523,-0.007193087600171566,0.012433329597115517
1772094085327747600,6.05274755859375,0.013070367276668549,-0.01819966733455658,0.006057455204427242
1772094085337696500,6.062696533203125,0.012745065614581108,-0.019932687282562256,-0.0029536508955061436
1772094085347645400,6.0726455078125,0.00567597197368741,-0.012035615742206573,-0.01032022014260292
1772094085357594400,6.082594482421875,-0.003688312601298094,-0.00687885656952858,-0.015311431139707565
1772094085367543800,6.092543701171875,-0.011399495415389538,-0.0013184426352381706,-0.01534152403473854
1772094085377493500,6.102493408203125,-0.015889672562479973,-0.007236231584101915,-0.0077500310726463795
1772094085387442700,6.112442626953125,-0.013632109388709068,-0.014958599582314491,0.0022224420681595802
1772094085397391600,6.1223916015625,-0.008913693949580193,-0.026977937668561935,0.008408741094172001
1772094085407340500,6.132340576171875,-0.004573274403810501,-0.029515400528907776,0.003028622828423977
1772094085417290800,6.142290771484375,-0.007061095908284187,-0.022974489256739616,-0.009414754807949066
1772094085427239700,6.15223974609375,-0.01754436269402504,-0.009533515200018883,-0.021332932636141777
1772094085437188600,6.162188720703125,-0.028865190222859383,0.003916979767382145,-0.02164440229535103
1772094085447137500,6.172137451171875,-0.030912894755601883,0.0088555458933115,-0.016855772584676743
1772094085457086500,6.18208642578125,-0.02181364968419075,0.00868881493806839,-0.005579477641731501
1772094085467036400,6.192036376953125,-0.010466452687978745,0.0005240957252681255,0.008632747456431389
1772094085476985600,6.201985595703125,-0.0020636047702282667,-0.0024617165327072144,0.01963658630847931
1772094085486934800,6.211934814453125,0.0014658826403319836,0.004542929586023092,0.013939552009105682
1772094085496883700,6.2218837890625,-0.0016760281287133694,0.01917458139359951,0.012014465406537056
1772094085506833700,6.231833740234375,-0.008578408509492874,0.0246545672416687,0.00767830666154623
1772094085516782600,6.241782470703125,-0.014490179717540741,0.028237873688340187,0.0012442627921700478
1772094085526731500,6.2517314453125,-0.011457905173301697,0.02487536519765854,0.0004322649911046028
1772094085536680700,6.2616806640625,-0.0009773180354386568,0.01568574085831642,0.0010353433899581432
1772094085546630700,6.271630615234375,0.004504266660660505,0.0051745097152888775,0.003468940034508705
1772094085556579600,6.28157958984375,0.006824017968028784,-0.0004011872224509716,0.0030270875431597233
1772094085566528500,6.291528564453125,0.0033440650440752506,-0.008041530847549438,-0.004822312854230404
1772094085576477400,6.3014775390625,0.0034716823138296604,-0.008329234085977077,-0.011437484994530678
1772094085586426600,6.311426513671875,0.001495350617915392,-0.006220809184014797,-0.02535436674952507
1772094085596376600,6.32137646484375,-0.0017206491902470589,-0.0025200187228620052,-0.0406571626663208
1772094085606325500,6.331325439453125,0.005454439204186201,0.0004981416277587414,-0.04390302300453186
1772094085616274700,6.341274658203125,0.0159660205245018,0.003490449395030737,-0.02696947008371353
1772094085626223600,6.3512236328125,0.0258876271545887,-0.007095616310834885,-0.00040124310180544853
1772094085636173600,6.361173583984375,0.036673009395599365,-0.017959820106625557,0.018669290468096733
1772094085646122800,6.371122802734375,0.034029554575681686,-0.017329450696706772,0.02064109407365322
1772094085656071700,6.38107177734375,0.032681748270988464,-0.015042119659483433,0.0041469368152320385
1772094085666020600,6.3910205078125,0.024963106960058212,-0.015474882908165455,-0.027699144557118416
1772094085675969500,6.400969482421875,0.015051905065774918,-0.009954028762876987,-0.04028511047363281
1772094085685919500,6.41091943359375,0.005970792379230261,-0.005275120958685875,-0.03990614414215088
1772094085695868400,6.420868408203125,-0.003704832633957267,-0.0004519103094935417,-0.029391761869192123
1772094085705817600,6.430817626953125,-0.006661740131676197,0.005701057147234678,-0.02360204979777336
1772094085715766800,6.440766845703125,-0.008801978081464767,0.009843561798334122,-0.01560894213616848
1772094085725716500,6.450716552734375,0.004738598596304655,0.01380954124033451,-0.0026215040124952793
1772094085735665700,6.460665771484375,0.012867357581853867,0.011034999042749405,0.010518069379031658
1772094085745614600,6.470614501953125,0.016421079635620117,0.016941357403993607,0.010873867198824883
1772094085755562200,6.480562255859375,0.016710897907614708,0.008735188283026218,0.005816697143018246
1772094085765511200,6.49051123046875,0.01661129668354988,0.010309383273124695,-0.003384258598089218
1772094085775461000,6.500461181640625,0.00238728616386652,0.01931742951273918,-0.011270582675933838
1772094085785410000,6.51041015625,-0.003257017582654953,0.010014476254582405,-0.011672986671328545
1772094085795359200,6.520359130859375,-0.005669008940458298,0.0028026981744915247,-0.01371084526181221
1772094085805308400,6.530308349609375,0.001335637178272009,0.00048122089356184006,-0.009070022031664848
1772094085815258400,6.54025830078125,0.005466784816235304,-0.00351706612855196,-0.010207071900367737
1772094085825207300,6.550207275390625,0.009566720575094223,-0.0037940340116620064,-0.01985330693423748
1772094085835156200,6.56015625,0.009482350200414658,0.0018256851471960545,-0.030111415311694145
1772094085845105200,6.570105224609375,0.009572630748152733,0.00948653370141983,-0.03393252193927765
1772094085855055400,6.580055419921875,0.008196942508220673,0.0027919800486415625,-0.015800416469573975
1772094085865004300,6.59000439453125,0.010003098286688328,0.0016324396710842848,0.003239054000005126
1772094085874953200,6.599953125,0.010237774811685085,0.003619161434471607,0.013515783473849297
1772094085884902100,6.609902099609375,0.00939808040857315,0.0021352479234337807,0.009987360797822475
1772094085894851300,6.619851318359375,0.007335791829973459,-0.0018778899684548378,0.009637739509344101
1772094085904801000,6.629801025390625,0.003241979982703924,-0.009770700708031654,-0.003337979782372713
1772094085914750500,6.63975048828125,0.0061835055239498615,-0.01825096644461155,-0.023838480934500694
1772094085924699400,6.649699462890625,0.006705219391733408,-0.022004159167408943,-0.04127979278564453
1772094085934648300,6.6596484375,0.00651005282998085,-0.02396359108388424,-0.05233491584658623
1772094085944598300,6.669598388671875,-0.001107919728383422,-0.014766629785299301,-0.04433051869273186
1772094085954547200,6.679547119140625,-0.013134440407156944,-0.025583941489458084,-0.030234288424253464
1772094085964496100,6.68949609375,-0.01057727262377739,-0.035696763545274734,-0.011785239912569523
1772094085974445300,6.6994453125,-0.004550017882138491,-0.024123316630721092,0.005349147133529186
1772094085984394200,6.709394287109375,0.013491833582520485,-0.027857866138219833,0.01580738089978695
1772094085994344200,6.71934423828125,0.02024025097489357,-0.05509668588638306,0.01985452137887478
1772094086004293000,6.729293212890625,0.019371528178453445,-0.05403142049908638,0.007092653773725033
1772094086014242000,6.739241943359375,0.029853882268071175,-0.03171195089817047,-0.02489866502583027
1772094086024191200,6.749191162109375,0.024439942091703415,-0.01978312060236931,-0.01480022445321083
1772094086034141200,6.75914111328125,0.01626157946884632,-0.03426779434084892,0.012094642966985703
1772094086044090400,6.76909033203125,0.034577470272779465,-0.05434989184141159,0.053503602743148804
1772094086054039300,6.779039306640625,0.04176189750432968,-0.03442183881998062,0.04882063716650009
1772094086063988200,6.78898828125,0.0520600751042366,-0.009151638485491276,0.059677813202142715
1772094086073937200,6.798937255859375,0.06422703713178635,-0.014852277934551239,0.0682898685336113
1772094086083887400,6.808887451171875,0.05210326239466667,-0.007149084471166134,0.04815530776977539
1772094086093836300,6.818836181640625,0.03738604858517647,0.01471688225865364,0.011768415570259094
1772094086103785200,6.82878515625,0.010003427043557167,0.034484729170799255,-0.02436002716422081
1772094086113734100,6.838734130859375,-0.015651550143957138,0.03699334338307381,-0.04788254201412201
1772094086123684000,6.84868408203125,-0.02842327207326889,0.044138602912425995,-0.06244044750928879
1772094086133633000,6.858633056640625,-0.027871623635292053,0.05011649429798126,-0.06763477623462677
1772094086143582500,6.86858251953125,-0.020239269360899925,0.03594155237078667,-0.052677929401397705
1772094086153531400,6.878531494140625,-0.01215418428182602,0.01794198900461197,-0.018970230594277382
