time,seconds_elapsed,z,y,x
1772031900878657800,0.07765771484375,0.15574351941943168,1.0112018263697624,-0.7729184823643416
1772031900888606700,0.087606689453125,0.6175859548985958,0.7591773225858807,-0.8561631672840565
1772031900898556000,0.097555908203125,0.859859172257781,0.4744739535152912,-0.8865852666199207
1772031900908505000,0.107505126953125,0.8849614648103713,0.22455051366388795,-0.92237130414173
1772031900918454000,0.1174541015625,0.767826785248518,0.08004881148785352,-0.8208790148697793
1772031900928403000,0.12740283203125,0.6271124926567078,0.13814648793041706,-0.6239824510026722
1772031900938350800,0.137350830078125,0.5860977607011795,0.33267887994945045,-0.4523088103931397
1772031900948299800,0.1472998046875,0.5942541791498661,0.5451391428470611,-0.3407726449580863
1772031900958249000,0.1572490234375,0.5521271020382642,0.7504848975643515,-0.21387188326120377
1772031900968198000,0.167197998046875,0.4243628919124603,0.9052911361336707,-0.10381547152251004
1772031900978146800,0.177146728515625,0.24428455718159675,1.0112985647425055,-0.11574757258500903
1772031900988096000,0.187095947265625,0.004338321465253829,1.063392616856098,-0.18098713840516284
1772031900998045000,0.197044921875,-0.326267843863368,1.0620262969389558,-0.11390424627326429
1772031901007993900,0.206993896484375,-0.6183610309243202,1.0463032426282763,0.05258832017024979
1772031901017942800,0.21694287109375,-0.7571405560612678,1.050604446953535,0.2189580091527663
1772031901027891000,0.226890869140625,-0.7974497700959443,0.9374421781539917,0.3446179952746257
1772031901037840000,0.23683984375,-0.6965513550639152,0.709741091504693,0.3958754504336044
1772031901047788800,0.246788818359375,-0.41312019788622856,0.4754615032479167,0.26831870904602106
1772031901057737700,0.25673779296875,0.04375029439926147,0.18435878852903842,0.05003422894037794
1772031901067687000,0.26668701171875,0.5154091904938221,-0.06806669727116822,-0.20965579993613062
1772031901077635800,0.2766357421875,0.9611199908614158,-0.23083558528274295,-0.42559784053489563
1772031901087585000,0.2865849609375,1.300530224892497,-0.3787158239811659,-0.5827135981556028
1772031901097534000,0.296533935546875,1.5045663583159445,-0.5447995356291532,-0.6789991125646978
1772031901107483000,0.30648291015625,1.55198335852921,-0.7146876079961657,-0.6821499778110534
1772031901117431800,0.316431884765625,1.5228694922477006,-0.7819456192329526,-0.596514159971103
1772031901127380000,0.3263798828125,1.4107961877286432,-0.7676879612997174,-0.4386975240720436
1772031901137329000,0.336328857421875,1.2536679359525442,-0.6904933701992034,-0.3169545469971374
1772031901147277800,0.34627783203125,1.111474802979827,-0.5989329846158623,-0.2550459704969078
1772031901157226800,0.356226806640625,0.918946151998639,-0.486632301081717,-0.22882022687233983
1772031901167175700,0.36617578125,0.6756634653359651,-0.3941606458723545,-0.17634649125877766
1772031901177124900,0.376124755859375,0.44550972483754153,-0.3192407217055559,-0.14827610614821313
1772031901187074000,0.386073974609375,0.23828443998396395,-0.2905906735435128,-0.11232997356071137
1772031901197023000,0.39602294921875,0.11948971825540065,-0.2711474296659231,-0.07023449716377071
1772031901206972000,0.405971923828125,0.11446458356976509,-0.2880430348873138,-0.031642233981657775
1772031901216919800,0.415919921875,0.2182528748244047,-0.3476645598962903,-0.028868458419386296
1772031901226869000,0.425868896484375,0.30963059731721876,-0.43600510665029285,-0.0359025765735656
1772031901236818000,0.43581787109375,0.37724165977537627,-0.4999792739108205,-0.029618025544518603
1772031901246766800,0.445766845703125,0.4702811780005693,-0.5305392473474144,-0.0686369349071756
1772031901256715800,0.4557158203125,0.4952946232259273,-0.5593740044265986,-0.0977971062821336
1772031901266665500,0.46566552734375,0.4373071291595697,-0.6060434011429547,-0.0887046673586592
1772031901276614400,0.475614501953125,0.46968905732631683,-0.6491220798909664,-0.1006358733720146
1772031901286563300,0.485563232421875,0.587238162907958,-0.6764324038818478,-0.13843677611388266
1772031901296512300,0.49551220703125,0.7132856322437524,-0.6380114878118038,-0.18266725524552166
1772031901306461700,0.505461669921875,0.6828261965721846,-0.6171990014076233,-0.1709293798471801
1772031901316409300,0.515409423828125,0.5026935013055801,-0.5823357778191566,-0.10495155374719761
1772031901326358500,0.525358642578125,0.2905786908447742,-0.44063218192905185,-0.06614530988768674
1772031901336307500,0.535307373046875,0.11486731915175914,-0.2022059953868389,0.019819785572402177
1772031901346256400,0.54525634765625,-0.10880465811192988,0.022066870379447937,0.1698273551557213
1772031901356205600,0.55520556640625,-0.2567699447453022,0.2161687620267272,0.264721269075945
1772031901366154500,0.565154541015625,-0.3406815691411495,0.36465514992475506,0.2228583227932453
1772031901376103400,0.575103515625,-0.46682899172008036,0.3067261080473661,-0.11119542570598423
1772031901386052400,0.58505224609375,-0.6362035616070032,-0.022445056042075157,-0.6158019940912723
1772031901396001500,0.59500146484375,-0.6885311302155256,-0.4021329399257898,-0.9875111541807651
1772031901405950500,0.604950439453125,-0.6458592787027359,-0.7382634216338395,-1.2628840925872324
1772031901415898600,0.614898681640625,-0.5379693973481655,-1.0031453611642123,-1.4912683391951023
1772031901425847600,0.62484765625,-0.37950902018547056,-1.2170426711276172,-1.5455764140963553
1772031901435796500,0.63479638671875,-0.1697942566037178,-1.1355772708401084,-1.3238745678618549
1772031901445745400,0.644745361328125,0.023814006307721135,-0.7697790883600711,-0.8538099552214146
1772031901455694300,0.6546943359375,0.11397767683565616,-0.3179898448616266,-0.24798333863429722
1772031901465643500,0.6646435546875,-0.0835024590730667,0.06129501117914915,0.48289494118429716
1772031901475592400,0.674592529296875,-0.4761205516785383,0.38244653494209047,1.1848171756315975
1772031901485541600,0.684541748046875,-0.9157435565650462,0.7019727955907583,1.52225515974164
1772031901495490600,0.694490478515625,-1.3800924219071864,0.9490320781826972,1.6045910592533648
1772031901505438500,0.7044384765625,-1.7435381960421799,1.2148814014405012,1.5837855871118605
1772031901515387600,0.7143876953125,-1.9680372717797756,1.486418707206845,1.44959923498407
1772031901525336600,0.724336669921875,-2.034350111120939,1.6959969849273562,1.3157605272501707
1772031901535285500,0.734285400390625,-1.7972341303944586,1.7758292310550807,1.1627644799079746
1772031901545234400,0.744234375,-1.3497387846976518,1.6086223605960606,0.9027660746354609
1772031901555183400,0.754183349609375,-0.8981488631635903,1.3261705698445438,0.6548617925867438
1772031901565132300,0.76413232421875,-0.3712865507632494,1.054289565207064,0.4407294317584485
1772031901575081500,0.77408154296875,0.12417290763556957,0.6848784529268741,0.24916487656906244
1772031901585030700,0.78403076171875,0.8846832323908805,0.22990239608585833,0.036807617388200015
1772031901594979600,0.7939794921875,1.1344845071673393,0.056820496113598344,-0.08451684201369061
1772031901604927500,0.803927490234375,1.04181089964509,0.09905132586061954,0.2088919759567827
1772031901614876400,0.81387646484375,0.8142933528691529,0.33099370334148404,0.6249303993772715
1772031901624825600,0.82382568359375,0.693677845454216,0.4248088821142912,0.71770564064309
1772031901634774500,0.8337744140625,0.6761205614537,0.3073442399457097,0.5895757024774327
1772031901644723500,0.843723388671875,0.5481576138854026,0.18786650438904762,0.488761641260609
1772031901654672400,0.85367236328125,0.39792145971059795,0.15677461603283882,0.47431445210464296
1772031901664621300,0.863621337890625,0.36079087571203705,0.12601444384902716,0.48859782900102433
1772031901674570500,0.873570556640625,0.5288233833402395,-0.016584347315132617,0.41980099082440137
1772031901684519400,0.88351953125,0.734237819379568,-0.0413897027477622,0.3331266967821866
1772031901694467600,0.893467529296875,0.9367857600718736,-0.07070376777648925,0.335829051076062
1772031901704416500,0.90341650390625,1.1637409967899321,-0.2296618653282523,0.31233284201323985
1772031901714365400,0.913365478515625,1.2801181359827518,-0.3548772677540779,0.1987302273013629
1772031901724314400,0.923314453125,1.1929711829274892,-0.4631920965224504,0.1427694898222573
1772031901734263300,0.93326318359375,1.0207318712592124,-0.5375923807293176,0.13151276727067307
1772031901744212500,0.94321240234375,0.8387772212624549,-0.5993862813413143,0.10731067496081814
1772031901754161400,0.953161376953125,0.7543734294354916,-0.6044125850707293,-0.01494363090340048
1772031901764110600,0.963110595703125,0.7301993576437235,-0.6157236681580543,-0.15840201630527154
1772031901774059500,0.9730595703125,0.6935732160359621,-0.6270952492609619,-0.24348401792105287
1772031901784008400,0.983008544921875,0.6299421631246804,-0.6071776658698916,-0.30889388054050504
1772031901793956600,0.99295654296875,0.5838169562876224,-0.5253220972210169,-0.3078486458038911
1772031901803905500,1.002905517578125,0.5379729044795036,-0.4344765819087624,-0.28568397760577496
1772031901813854500,1.0128544921875,0.5007295077562331,-0.3921376156121492,-0.2575813341934234
1772031901823803400,1.022803466796875,0.5583171888500452,-0.37189269996285435,-0.24383385427203028
1772031901833752300,1.03275244140625,0.6308218685686587,-0.3467357546135783,-0.19279431618005036
1772031901843701200,1.042701171875,0.6808569423258304,-0.2925347933486104,-0.11310361568117513
1772031901853650700,1.052650634765625,0.6878332110792398,-0.2215770508110523,-0.050042590343346814
1772031901863599600,1.062599609375,0.6582961509495974,-0.22742256196886299,-0.06548599659558385
1772031901873548500,1.072548583984375,0.6182242528021336,-0.28960020120143887,-0.12615900341887026
1772031901883497500,1.08249755859375,0.6134481244415044,-0.3449778050303459,-0.20512149924105033
1772031901893445400,1.0924453125,0.6424257971227169,-0.3798790225416422,-0.2615613072076812
1772031901903394600,1.10239453125,0.6798235076248645,-0.4472647518113255,-0.2901705849679187
1772031901913343500,1.112343505859375,0.7025836209654808,-0.5362181697666645,-0.31754860390014944
1772031901923292400,1.12229248046875,0.6904255656599998,-0.6536904107198119,-0.32713965826183555
1772031901933241300,1.132241455078125,0.6963292367458344,-0.7087468197703362,-0.28061757932798936
1772031901943190500,1.1421904296875,0.633762598195672,-0.6769888687208294,-0.13860143775683828
1772031901953139500,1.152139404296875,0.44779345186054703,-0.5727428968265652,0.09269494257122278
1772031901963088600,1.162088623046875,0.17513386406600473,-0.46751989659368987,0.24913535821363328
1772031901973037600,1.17203759765625,-0.09637421560585498,-0.38189474627822634,0.27448325955774633
1772031901982986500,1.181986572265625,-0.4006482543259859,-0.3774906661003828,0.1547409365144558
1772031901992934400,1.191934326171875,-0.6551362256139517,-0.5408537206128239,-0.10657456097230314
1772031902002883300,1.20188330078125,-0.8490957861810922,-0.6850593624517322,-0.3825733761921525
1772031902012832500,1.21183251953125,-1.014872623836994,-0.6515943152233958,-0.5649674039868637
1772031902022781400,1.221781494140625,-1.1590852799385785,-0.6374187826156615,-0.6820918178830295
1772031902032730600,1.231730712890625,-1.307863636520505,-0.6271200914412737,-0.717850529006496
1772031902042679600,1.241679443359375,-1.6214181292831897,-0.5606494311898946,-0.6221854845833032
1772031902052628500,1.25162841796875,-2.252439904338121,-0.4391255767583847,-0.43638248859532175
1772031902062577400,1.261577392578125,-3.1222119833230972,-0.18253683379888533,-0.14790230439975857
1772031902072526300,1.2715263671875,-3.9058997700482605,0.2529758131593466,0.2866548684645444
1772031902082474500,1.281474609375,-4.478444221693277,0.8343260870724916,0.7450758781276643
1772031902092423400,1.29142333984375,-4.667870815005898,1.532096754798293,1.012122156085074
1772031902102372400,1.301372314453125,-4.405196030130982,2.157204045112431,0.9757438517585396
1772031902112321300,1.3113212890625,-3.762024967598915,2.515249713769555,0.6805944919973611
1772031902122270500,1.3212705078125,-2.9040578926980496,2.495408410485089,0.21040073655191807
1772031902132219600,1.3312197265625,-2.01644445207417,2.194975557363033,-0.2732780484864488
1772031902142168600,1.34116845703125,-1.1493383774280548,1.8261498437553643,-0.6172787886455655
1772031902152117500,1.351117431640625,-0.3385375428497791,1.4933356469884513,-0.8511192548327148
1772031902162066400,1.36106640625,0.351935953605175,1.1777525710076093,-1.0383213039636612
1772031902172015400,1.371015380859375,0.9607359599798917,0.8575795368880033,-1.1845775947220623
1772031902181963500,1.380963623046875,1.4361585925221443,0.5679156228005886,-1.2786150379434227
1772031902191912400,1.390912353515625,1.7298165446817875,0.3718248954236507,-1.3328978322729468
1772031902201861400,1.400861328125,1.8287287543326616,0.27875673562586306,-1.3659925848841665
1772031902211810300,1.410810302734375,1.722642707529664,0.3270923119887709,-1.318388391535729
1772031902221759500,1.420759521484375,1.411813255816698,0.5167717110186815,-1.187112300831452
1772031902231708400,1.43070849609375,0.9314303705185651,0.8765729911714791,-0.9832833804178982
1772031902241657600,1.44065771484375,0.4278098174959421,1.2856348535776136,-0.8086150880370289
1772031902251606500,1.4506064453125,0.03883738791644573,1.6578586851909756,-0.6914938524786383
1772031902261555000,1.460554931640625,-0.2837041289001703,2.0215765542656183,-0.5618006835842505
1772031902271504000,1.47050390625,-0.6710001497000455,2.300813182362914,-0.43552868477758017
1772031902281452800,1.480452880859375,-0.9032967474460601,2.5119775602310894,-0.3869104190157726
1772031902291401000,1.49040087890625,-0.8421125031650066,2.5726331044629216,-0.49402913333475584
1772031902301350000,1.500349853515625,-0.5533125124305487,2.5067668398454783,-0.6478453379534185
1772031902311298800,1.510298828125,-0.21199089182019232,2.3400091744586824,-0.7945476189136504
1772031902321247700,1.520247802734375,0.11392974604070186,2.1923703433007002,-0.8487608551383018
1772031902331196700,1.53019677734375,0.5135135860055685,2.0966867403075096,-0.8597059544574469
1772031902341145900,1.540145751953125,1.0195219109475613,1.8754063343554734,-0.9169546859204769
1772031902351094800,1.5500947265625,1.5429980880409477,1.546475993284583,-0.9761140002451837
1772031902361044000,1.5600439453125,1.8531120849609375,1.3606886332571506,-1.013611079468578
1772031902370993000,1.569992919921875,1.8114193076133727,1.4612351661115883,-1.1921090131402015
1772031902380941800,1.57994189453125,1.5530553716748952,1.1466799718737601,-1.2329898895829916
1772031902390890000,1.589889892578125,1.2406021181523799,0.7690916906177997,-1.0256855481438338
1772031902400839000,1.5998388671875,1.055171900999546,0.9173127055779099,-0.7764953910030424
1772031902410787800,1.609787841796875,0.9558107785373926,1.0679501340299844,-0.7567576942235231
1772031902420736800,1.61973681640625,0.8181979590922593,0.9500257653951645,-0.7542473919030278
1772031902430685700,1.629685791015625,0.9101759855657815,0.9648606386944651,-0.8237095621205865
1772031902440634600,1.639634521484375,1.0572826095432042,1.038899688373506,-0.877337107411772
1772031902450583800,1.649583740234375,1.0937930158168077,0.9549158755242824,-0.8292813709035516
1772031902460533000,1.659532958984375,1.119686166486144,0.6782134420797229,-0.8533579736702144
1772031902470482000,1.66948193359375,1.0671095915526152,0.3709741238132119,-0.8740781056158244
1772031902480430800,1.679430908203125,1.0215133770257234,0.12263035436868668,-0.8231699022859335
1772031902490378800,1.689378662109375,1.0119365703850984,-0.1491778772935271,-0.703386023389548
1772031902500328000,1.699327880859375,0.9613286651760339,-0.481828115670383,-0.5928241463467478
1772031902510276900,1.70927685546875,0.8701549408227205,-0.757507635807991,-0.3205725548312068
1772031902520225800,1.719225830078125,0.7033937683045863,-0.941052185344696,0.026701544442772864
1772031902530174700,1.7291748046875,0.6050017831355333,-1.0552546108469367,0.308109232968837
1772031902540124000,1.7391240234375,0.5221487278819084,-1.190576689006388,0.5702035876072943
1772031902550072800,1.74907275390625,0.3917535847306251,-1.315522919102013,0.8331224103711545
1772031902560021800,1.759021728515625,0.26160510981678964,-1.3931319362223147,1.1430538903310894
1772031902569971000,1.768970947265625,0.17567396229207516,-1.4429805474966764,1.4703750426396727
1772031902579920000,1.778919921875,0.1891308252364397,-1.4407155251741408,1.6583943995028734
1772031902589867800,1.78886767578125,0.3486860118985176,-1.5070599286973476,1.6695270572833716
1772031902599816700,1.798816650390625,0.5819792194664478,-1.592299294565618,1.5531458264373241
1772031902609766000,1.808765869140625,0.6685322982817888,-1.6546896997660399,1.4544053200915454
1772031902619714800,1.81871484375,0.6938859352469444,-1.6895803958833218,1.3250364512480794
1772031902629664000,1.8286640625,0.7229577159523963,-1.7208040939256548,1.1620252058479934
1772031902639613000,1.838613037109375,0.7478069105267524,-1.7795193177446722,1.0281780225466937
1772031902649561900,1.848561767578125,0.7175222469002008,-1.9586153634399175,0.8899256630890071
1772031902659510800,1.8585107421875,0.6767769795358181,-2.2085388032913205,0.6855003842175006
1772031902669459700,1.868459716796875,0.5677104556173086,-2.6982529960364103,0.25555055901817975
1772031902679409000,1.878408935546875,0.5901005666017533,-3.433817680105567,-0.1832243776716292
1772031902689356800,1.888356689453125,0.8325538167029619,-3.8310780455589293,-0.41489414875619113
1772031902699305700,1.8983056640625,0.8603039934158325,-3.450391506026685,-0.3737332863282412
1772031902709254700,1.908254638671875,0.215630125105381,-2.586127084547281,-0.08624255156144499
1772031902719203800,1.918203857421875,-0.9516033899754285,-1.598308179591596,0.31510340270511805
1772031902729153000,1.928153076171875,-2.3181863419681785,-0.4737471005454659,0.6457555260673165
1772031902739102000,1.93810205078125,-3.7180262513965365,0.7652969745099544,1.0121687717057763
1772031902749051000,1.94805078125,-4.93491782361567,1.896343616183102,1.315777624515444
1772031902758999800,1.957999755859375,-5.623582224822044,2.75501503996104,1.3346245099350809
1772031902768948700,1.96794873046875,-5.607846895551681,3.302111162094772,1.0131630434401333
1772031902778897700,1.977897705078125,-5.119768779575825,3.454533720397949,0.5139936246074736
1772031902788846800,1.987846923828125,-4.372978937137127,3.2689594185993074,0.006712210989743471
1772031902798794800,1.997794677734375,-3.3301515539258717,3.023124709366262,-0.4199525281243026
1772031902808744000,2.007743896484375,-2.083220817273855,2.776513170541823,-0.676729487132281
1772031902818692900,2.01769287109375,-0.9435282200694084,2.3662851869657633,-0.7792835604168474
1772031902828641800,2.027641845703125,-0.1082248123973608,1.8321312562525272,-0.79535981207937
1772031902838591000,2.037591064453125,0.47563013781309127,1.268289751023054,-0.767346454385668
1772031902848540000,2.047539794921875,0.8278565987974404,0.7628104183912277,-0.6835691969592124
1772031902858488800,2.05748876953125,1.0345277568995952,0.40576574347019195,-0.6233180688098072
1772031902868437800,2.067437744140625,1.202788812586665,0.2534311557114124,-0.5775831033993511
1772031902878386700,2.07738671875,1.3057219483166933,0.3936550344377756,-0.5084253229558467
1772031902888336000,2.0873359375,1.2022259180068968,0.66237552921772,-0.43480837114639576
1772031902898283800,2.09728369140625,0.9711685066670179,0.9597951719984411,-0.3406260395616293
1772031902908233000,2.10723291015625,0.6895417685627937,1.1382587650090454,-0.2757982511464506
1772031902918182000,2.117181884765625,0.47201194731593127,1.2032973466306924,-0.24365597695447502
1772031902928130800,2.127130859375,0.32020518282353877,1.2622051704123616,-0.2420072598993778
1772031902938079700,2.137079833984375,0.2585217568486929,1.2554013356164098,-0.26019042071327564
1772031902948029000,2.14702880859375,0.25271453187465664,1.1581883310988546,-0.26343407880961894
1772031902957977900,2.156977783203125,0.29375732088088985,1.0510159503638743,-0.2646437468603253
1772031902967926800,2.1669267578125,0.5107815306931733,1.0522305868506432,-0.25209260058403016
1772031902977876000,2.1768759765625,0.9145143070310354,1.075992570710182,-0.24238544556200503
1772031902987825000,2.186824951171875,1.2732803989171981,0.9551289337530732,-0.34965865632295606
1772031902997773800,2.19677392578125,1.463874866965413,0.7153241523340343,-0.47208059210535136
1772031903007722000,2.206721923828125,1.59648242546916,0.4466422359988093,-0.4867697733236476
1772031903017671000,2.2166708984375,1.6729782206505537,0.22862463123500346,-0.5297335935203358
1772031903027619800,2.226619873046875,1.6946435244917868,0.047270285218954086,-0.6210166599996387
1772031903037568800,2.23656884765625,1.745298775973916,-0.03445288922190666,-0.7232935237780213
1772031903047517700,2.246517578125,1.787505932584405,-0.07597469391673803,-0.8777861663535237
1772031903057466600,2.256466552734375,1.809637684893608,-0.19037907173186538,-0.9894878610812127
1772031903067416000,2.266416015625,1.8403665851563213,-0.3405181952729821,-1.0318142601571976
1772031903077365000,2.276364990234375,1.892964202877879,-0.5176891181245445,-1.030289461742714
1772031903087314000,2.28631396484375,1.8055764268040655,-0.6945347545444965,-1.0157079056173561
1772031903097262800,2.296262939453125,1.6080279018342494,-0.8317420619286596,-0.9211890355546027
1772031903107211800,2.306211669921875,1.4138146587669849,-0.8363707446426153,-0.679956047963351
1772031903117160000,2.316159912109375,1.168046000507474,-0.8406609891824424,-0.3281844180744141
1772031903127108900,2.32610888671875,0.6282616626918316,-0.939530382604897,-0.004148223986942321
1772031903137057800,2.336057861328125,0.028663784426450727,-1.0172131956137715,0.18058506041029468
1772031903147006700,2.3460068359375,-0.22606384083628653,-0.9748604930527508,0.11191528267944231
1772031903156956000,2.355955810546875,-0.2081014831662178,-0.7000245841324328,0.0615816095681861
1772031903166904800,2.36590478515625,-0.17020166836082934,-0.37052404195815325,-0.065873863402009
1772031903176854000,2.37585400390625,-0.15876958924233914,-0.0986675872400403,-0.2373442365244031
1772031903186803000,2.385802978515625,-0.13259586806595325,-0.1450523217961192,-0.5793710827946662
1772031903196752000,2.395751953125,0.0541927779585123,-0.150304543235898,-0.8170953316126018
1772031903206700800,2.40570068359375,0.2082061125844717,0.01639203961342573,-0.9636938599374145
1772031903216649700,2.415649658203125,0.2989975596219301,0.09381284068524837,-1.0634824870966375
1772031903226598000,2.425597900390625,0.35236908432543274,0.14937544569224118,-0.9757135296855122
1772031903236546800,2.435546875,0.24005437226593493,0.1330329443089664,-0.7339915895335376
1772031903246495700,2.445495849609375,0.14937866056263446,0.10626681019738315,-0.5935154165465384
1772031903256445000,2.45544482421875,0.16109131018817424,0.07774857172146439,-0.5542910751391202
1772031903266394000,2.46539404296875,0.21650223176479338,-0.017296148846298456,-0.5048932033069431
1772031903276343000,2.475343017578125,0.2809580450624227,-0.09972118794620037,-0.3891048968527466
1772031903286292000,2.4852919921875,0.2950707415670156,-0.267520179079473,-0.20030721256081013
1772031903296241200,2.4952412109375,0.25443711788356305,-0.5142115051418542,-0.03330733591597527
1772031903306190000,2.505190185546875,0.2659282337129116,-0.6736686382569372,0.1866939717446454
1772031903316139000,2.515138916015625,0.442774746915698,-0.6650071928955614,0.3535798483546823
1772031903326088200,2.525088134765625,0.6883733093053102,-0.6004946809746324,0.37846805976517495
1772031903336036000,2.5350361328125,0.8699170404136181,-0.4858190850026905,0.36696518043279647
1772031903345985300,2.5449853515625,0.7812941695868969,-0.3539931783959269,0.5077756634080782
1772031903355934200,2.554934326171875,0.719424281129241,-0.23332287205383181,0.6201879540905356
1772031903365883100,2.564883056640625,0.6839344500750303,-0.15967735173702238,0.6555442218929529
1772031903375832000,2.57483203125,0.6262438931286335,-0.11268895219936967,0.6913875425599515
1772031903385781000,2.584781005859375,0.5588830060392618,-0.12072861240059136,0.610346870490536
1772031903395730000,2.59472998046875,0.5064560687094927,-0.24456951160281895,0.48490153176635503
1772031903405679000,2.60467919921875,0.6106295598894357,-0.4038599098488688,0.273951509034913
1772031903415628300,2.614628173828125,0.9055863196879624,-0.5853925350412726,-0.07407785645262338
1772031903425577200,2.6245771484375,0.9981371776133775,-0.8082038038223981,-0.4836570846632123
1772031903435526100,2.634526123046875,0.7839706953197717,-1.027683590093255,-0.8211721525974571
1772031903445475000,2.64447509765625,0.7057230880349874,-1.0472568900913,-1.1276913398958741
1772031903455423200,2.65442333984375,0.7760112607479095,-0.8350317511238158,-1.3142489536434412
1772031903465372200,2.6643720703125,0.7613315780103206,-0.5174358740158379,-1.2728414229780436
1772031903475321000,2.674321044921875,0.3123515467137098,-0.15472265193909407,-0.9796902512967586
1772031903485270000,2.68427001953125,-0.6984668332964181,0.2083304696165025,-0.4347195603517815
1772031903495219000,2.694218994140625,-1.8536176963955162,0.7035561192594468,-0.03140000445730984
1772031903505168100,2.704168212890625,-2.731799291807413,1.2813872791357337,0.14155973044000567
1772031903515117000,2.714116943359375,-3.2939088586777445,1.7823419739499686,0.1566733476154506
1772031903525066200,2.724066162109375,-3.5994618312925097,2.084110459589958,-0.04180164454951882
1772031903535015200,2.73401513671875,-3.6673920427024362,2.294405361147225,-0.4960509945511818
1772031903544964000,2.743964111328125,-3.4790351244479414,2.405672317719459,-0.8887592496581375
1772031903554912000,2.753912109375,-3.1655484362244604,2.1294760802313686,-0.9269012026563286
1772031903564861200,2.763861083984375,-3.012788316529989,1.6623378764316439,-0.6578215191751718
1772031903574810000,2.77381005859375,-2.830722607374191,1.268308455723524,-0.34103988105952737
1772031903584759000,2.783759033203125,-2.5376953543335197,1.0243214201837778,-0.04739098898917436
1772031903594708200,2.793708251953125,-2.154279389837384,0.8211363506317139,0.18196371008604764
1772031903604657200,2.8036572265625,-1.8025456808060407,0.5677914118990302,0.3847532044492662
1772031903614606000,2.813606201171875,-1.5194430249303579,0.4498278802976012,0.6213375625170767
1772031903624555000,2.823554931640625,-1.389949799054861,0.40710517538040875,0.817429458937794
1772031903634504200,2.833504150390625,-1.3911381320565939,0.33597441436350345,0.9554261631339788
1772031903644453000,2.843453125,-1.3753122018933295,0.3592895312383771,0.8998429537303745
1772031903654402000,2.853402099609375,-1.33584820651114,0.5028659352630377,0.6968743034079671
1772031903664351000,2.86335107421875,-1.2368003877818583,0.675322396813333,0.43276860894709823
1772031903674299000,2.873298828125,-0.959306803959608,0.8421963820561766,0.15426701712608337
1772031903684248000,2.883248046875,-0.5762281085938215,0.9107584616288542,-0.09693184948861598
1772031903694197200,2.893197265625,-0.2011906808644533,0.8798433911442756,-0.24797332869693636
1772031903704146200,2.903146240234375,0.17362988924384115,0.8101610753700137,-0.2762456295877695
1772031903714095000,2.91309521484375,0.48102001415789125,0.6819096662491559,-0.22182459583133457
1772031903724044000,2.9230439453125,0.7383002465128898,0.4954381233498454,-0.15836948400884865
1772031903733993000,2.932992919921875,0.9712100077211856,0.2775000135630369,-0.1259080608651042
1772031903743942100,2.942942138671875,1.201347381606698,0.06589724427759647,-0.10167466010153293
1772031903753891000,2.95289111328125,1.3976239869445561,-0.13478168767243623,-0.08005670253336429
1772031903763840300,2.96284033203125,1.457562030556798,-0.33757571208029985,-0.035817747834324835
1772031903773789200,2.9727890625,1.461429811900854,-0.49536242776513095,0.04464534354284405
1772031903783737000,2.982737060546875,1.4681886385113,-0.5687184636160731,0.12452537433505058
1772031903793686300,2.992686279296875,1.4228747480571269,-0.633548078662157,0.16626038338914512
1772031903803635200,3.00263525390625,1.3751923749059438,-0.6825634539827704,0.14085910788998007
1772031903813584100,3.012584228515625,1.3483353476405142,-0.6653808485135436,0.08081716551184653
1772031903823533000,3.022532958984375,1.3170640110641718,-0.6403089510992169,0.028931641582399605
1772031903833482000,3.03248193359375,1.2249100435018538,-0.5804656000331044,0.007720803510397672
1772031903843431000,3.042430908203125,1.0860095223337412,-0.5060179695531726,-0.003677519468963146
1772031903853380000,3.052380126953125,0.9506173015475272,-0.4836161681309342,-0.0034951486393809315
1772031903863329300,3.062329345703125,0.851054519033432,-0.4482575622409582,0.07804799305945634
1772031903873278200,3.0722783203125,0.6866659208655357,-0.4821706454977393,0.20691826473101974
1772031903883227100,3.08222705078125,0.4970329913258552,-0.47895314475595946,0.36346031411699947
1772031903893176000,3.092176025390625,0.3808183492183685,-0.44124505313038825,0.48226753000095485
1772031903903124000,3.1021240234375,0.4268430182904005,-0.35641777519434686,0.5291442858576775
1772031903913073200,3.1120732421875,0.5049649533689021,-0.34507805053442714,0.45768093188554043
1772031903923022000,3.12202197265625,0.6307791984707116,-0.3030649551913142,0.40794622931443153
1772031903932971000,3.131970947265625,0.7622066072791814,-0.2986304798752069,0.3162799722038209
1772031903942920000,3.141919921875,0.9310516003340482,-0.27111265061348677,0.2957604043316096
1772031903952869000,3.151869140625,1.0589461588412523,-0.2528343588620424,0.2971509088419378
1772031903962818000,3.161818115234375,1.152874150338769,-0.24728403125852344,0.27157434984110296
1772031903972767200,3.171767333984375,1.202436345887184,-0.2279126835733652,0.31738603374958035
1772031903982716200,3.181716064453125,1.229409693008661,-0.13465747677087783,0.41627741980813443
1772031903992665000,3.1916650390625,1.26479138751328,0.03242050661146641,0.4948631730061024
1772031904002614000,3.201614013671875,1.3197896366357802,0.15474164890050887,0.5133714741211384
1772031904012562000,3.21156201171875,1.3456196589410305,0.2382935000732541,0.5259015045441687
1772031904022511000,3.221510986328125,1.3348790692180394,0.3241270324423909,0.5272530652835965
1772031904032460000,3.2314599609375,1.3808137219190597,0.4789464227542281,0.547108324028179
1772031904042409200,3.2414091796875,1.484878492027521,0.6709165630698204,0.5753585592176765
1772031904052358100,3.251358154296875,1.5615221712470053,0.8537690386891365,0.5824161495789885
1772031904062307000,3.26130712890625,1.6248615477353334,0.9350427157968282,0.5566504977468401
1772031904072256000,3.271256103515625,1.4240677572339773,0.8074737359821796,0.5429179596662521
1772031904082205200,3.281205078125,0.9852467163801193,0.5442378100931644,0.546493845391646
1772031904092154000,3.291154052734375,0.611390022867918,0.025007015484571456,0.1702696920957416
1772031904102103000,3.30110302734375,0.561120555832982,-0.8817059701457619,-0.5551530257306992
1772031904112052200,3.31105224609375,0.8922849395662545,-1.8220260418236254,-1.2997219772495328
1772031904122001200,3.321001220703125,1.5446604682952165,-2.506571901795268,-1.5802869313411414
1772031904131950000,3.3309501953125,2.2245184627115724,-2.6217607079863545,-1.0474231865689159
1772031904141898200,3.340898193359375,2.302299037006497,-2.28670223942399,0.0035025282282382247
1772031904151847200,3.35084716796875,1.563354062849283,-1.9651237224206328,0.8770128438934683
1772031904161796000,3.360796142578125,-0.2193728187650442,-1.7215277320250868,1.533740576482564
1772031904171745000,3.3707451171875,-2.4762270324140787,-1.0981383515447378,2.395911678944528
1772031904181694000,3.38069384765625,-4.435642606320977,0.5175884342290461,3.3465818797230718
1772031904191643000,3.390642822265625,-5.915880579066276,2.3866209957689044,4.143952739363908
1772031904201592300,3.40059228515625,-6.586983604618907,3.8724323847323654,4.607558677384257
1772031904211541200,3.410541259765625,-6.379725586539506,4.588534535701573,4.5538776483401655
1772031904221490200,3.420490234375,-5.583369456899166,4.3524516974151135,3.9414018760621548
1772031904231439000,3.430439208984375,-4.3886844557911155,3.647119946785271,3.347859352312982
1772031904241388000,3.440387939453125,-3.0653865187734364,2.2135861498087643,2.6095588135391474
1772031904251336200,3.450336181640625,-1.6895646137923002,0.9098793407067656,1.7765607602000235
1772031904261285000,3.46028515625,-0.47596214624643324,-0.0121495797380805,1.0586009986653924
1772031904271233800,3.47023388671875,0.5319792170226574,-0.7502069574058056,0.6297903335638344
1772031904281182700,3.4801826171875,1.1948445755839348,-1.3192425241470336,0.36641189393159
1772031904291131600,3.490131591796875,1.5432447562783955,-1.6918715755604206,0.2654441034577787
1772031904301080600,3.50008056640625,1.6913246092021463,-1.9608194493554532,0.25682025016043336
1772031904311029800,3.51002978515625,1.6990134101390837,-2.161750456370413,0.2658025980392471
1772031904320978700,3.519978759765625,1.587103187227249,-2.3197274339303373,0.34811139034833755
1772031904330927600,3.529927734375,1.3976701641738414,-2.413472031684965,0.5494339174315334
1772031904340876800,3.539876708984375,1.1490472855269909,-2.457250237004459,0.7948300891168415
1772031904350825700,3.54982568359375,0.9111457073807716,-2.43092307883203,1.0021152143988759
1772031904360774700,3.559774658203125,0.6605524054437876,-2.2999406373120843,1.164210513997823
1772031904370723800,3.569723876953125,0.42720951351523395,-2.0750069695495066,1.2840420314282177
1772031904380671700,3.579671630859375,0.32989129505753517,-1.7629923997052013,1.2723764358147978
1772031904390620700,3.58962060546875,0.40773382867276664,-1.3831241908185183,1.1091601693619042
1772031904400569600,3.599569580078125,0.6046265200823545,-1.0395616594135761,0.7889796825882047
1772031904410518500,3.6095185546875,0.7575801165223122,-0.7326615099735557,0.4091990789197385
1772031904420467700,3.6194677734375,0.8044336376339196,-0.4504898513376713,0.10185483897402882
1772031904430417000,3.6294169921875,0.8436848670482635,-0.13994842278584838,-0.1626099711228162
1772031904440365800,3.63936572265625,0.9432143318146466,0.11484759153798221,-0.36822040465828026
1772031904450314800,3.649314697265625,1.0747820258766412,0.26195903782099483,-0.49932095613256094
1772031904460263700,3.659263671875,1.2013181555122137,0.3116277624838054,-0.5761760496130213
1772031904470212600,3.669212646484375,1.311953536182642,0.3167150026202202,-0.696036975800991
1772031904480161800,3.679161865234375,1.397540400314331,0.29490736769884823,-0.8247126747485249
1772031904490109700,3.689109619140625,1.4645727861016988,0.227530698518455,-0.957299774986133
1772031904500058600,3.69905859375,1.5859271291851997,0.1797781827405095,-1.1367550824478267
1772031904510007600,3.709007568359375,1.7312305031329391,0.13892960113212466,-1.3461787541285157
1772031904519956700,3.718956787109375,1.8689824387878178,0.08057239697054028,-1.5426728016093372
1772031904529906000,3.728906005859375,1.9338865803748368,0.043953854147344824,-1.7020840497560799
1772031904539854800,3.738854736328125,1.910053284844756,0.08216244264096022,-1.7480780314289033
1772031904549803800,3.7488037109375,1.796957651540637,0.21028438016325235,-1.6518761036500333
1772031904559752700,3.758752685546875,1.5770967569977044,0.3804923321343958,-1.4676364114560185
1772031904569701600,3.76870166015625,1.3156786941856145,0.5600621328212321,-1.1821401384420693
1772031904579650600,3.778650634765625,1.0545429554462433,0.7920746529288589,-0.9120700556840747
1772031904589599500,3.788599609375,0.9487427398473024,0.9872839212961494,-0.6900108473792672
1772031904599549000,3.798548828125,0.8817436718076467,1.0573960067898034,-0.5072399490961804
1772031904609496800,3.808496826171875,0.6923667628556489,1.0370042300157247,-0.3583986102806404
1772031904619445800,3.81844580078125,0.5029910229474306,1.0244975074030458,-0.25207378628570587
1772031904629394700,3.828394775390625,0.26831834371984004,0.9782026430875063,-0.24927827381566164
1772031904639343600,3.838343505859375,0.01727788253724575,0.8348534719474613,-0.3155908208958804
1772031904649292800,3.848292724609375,-0.19877543641626833,0.5933351646088063,-0.29966610653325915
1772031904659241700,3.85824169921875,-0.3863374049007892,0.262799872559309,-0.24967001307960598
1772031904669190700,3.868190673828125,-0.4372030842632055,-0.12266381824687123,-0.2295572359099984
1772031904679139600,3.8781396484375,-0.14857669652998445,-0.25840280664414167,-0.12597118922919034
1772031904689088800,3.8880888671875,0.11069850903451442,-0.18221914615184068,0.03249225667342544
1772031904699037700,3.89803759765625,0.07097381688952445,-0.3172296741440892,0.03964158043880015
1772031904708987000,3.90798681640625,-0.1466536195129156,-0.6691711807072163,-0.15472027731891722
1772031904718935800,3.917935791015625,-0.41214755346179005,-1.001209716926515,-0.43686734950281675
1772031904728884700,3.927884765625,-0.6240028362035751,-1.1838906353712082,-0.7513963863860815
1772031904738832600,3.93783251953125,-0.8191425464659928,-1.092030097797513,-0.8531564597487449
1772031904748781600,3.947781494140625,-1.0089332969158886,-0.8291621284380555,-0.7667464426659047
1772031904758730800,3.957730712890625,-1.323038993820548,-0.532897500911355,-0.5097476210681722
1772031904768679700,3.9676796875,-1.8396517148852347,-0.3490013614580035,-0.17399897828456012
1772031904778628900,3.97762890625,-2.3765093515992164,-0.2920028784289956,0.1504281696155667
1772031904788577800,3.987577880859375,-2.676764802327752,-0.22445509046539663,0.547795575639978
1772031904798526700,3.997526611328125,-2.7367706504791975,-0.11932459082156419,0.9267708542749286
1772031904808475600,4.0074755859375,-2.5641736114144322,0.09846943431943654,1.198756049939245
1772031904818424600,4.017424560546875,-2.200250282895565,0.4673179442808032,1.3504140536107123
1772031904828373800,4.027373779296875,-1.7610107243686914,0.8683815014094114,1.4082719299480317
1772031904838322700,4.03732275390625,-1.4873744004964828,1.1406063510484994,1.3660337936773896
1772031904848271600,4.047271728515625,-1.4473071785241365,1.355905052242428,1.2881607187934219
1772031904858219500,4.057219482421875,-1.488867853924632,1.5681158704236149,1.315185357710719
1772031904868168700,4.067168701171875,-1.51089731490314,1.654920585912466,1.4019279677487908
1772031904878118000,4.077117919921875,-1.4312252277731894,1.5517057106316088,1.506044614174962
1772031904888066800,4.08706689453125,-1.241713294264674,1.246261312957853,1.584211411308497
1772031904898015700,4.097015625,-0.7783610387444496,0.9113805390499532,1.6499956967309117
1772031904907964700,4.106964599609375,-0.02521159814596176,0.5713559725128113,1.6346975898340343
1772031904917913600,4.11691357421875,0.9112403999269008,0.21736425542160867,1.5640231942825018
1772031904927862500,4.126862548828125,1.7584475958824157,-0.21619272742420434,1.4396500878997147
1772031904937811700,4.136811767578125,2.4162714531451464,-0.631405221414566,1.3392733586542307
1772031904947761000,4.146760986328125,2.875211152920127,-0.9291849296793341,1.2494237225115299
1772031904957709800,4.156709716796875,3.1245237673968074,-1.1089027605347335,1.1486434539664536
1772031904967658800,4.16665869140625,3.254894360628724,-1.1013516145028173,1.1437924337387084
1772031904977607700,4.176607666015625,3.159472915703058,-1.0703875903099775,1.1229003792922942
1772031904987555800,4.186555908203125,2.787434669789672,-1.084767705579102,1.1225202939335257
1772031904997504800,4.1965048828125,2.2277800948560236,-1.06513726856634,1.1934895077131689
1772031905007453700,4.20645361328125,1.6922884857982397,-0.9530579726979136,1.2551128740638493
1772031905017402600,4.216402587890625,1.2611410483121872,-0.781877814693749,1.3067235265746713
1772031905027351600,4.2263515625,0.9896645328223704,-0.6540256340235472,1.302493926180899
1772031905037300700,4.23630078125,0.8660410757631063,-0.60517114835307,1.2552525747954846
1772031905047250000,4.24625,0.7800503070056438,-0.6326233650326728,1.1773409214667976
1772031905057198800,4.25619873046875,0.607646744686365,-0.675729954700917,1.112564497912675
1772031905067147800,4.266147705078125,0.3690501700133085,-0.7095365088433027,1.1585425513640046
1772031905077096700,4.2760966796875,0.1558434726625681,-0.7532549467995763,1.2940106138654053
1772031905087045600,4.286045654296875,0.05099544322192669,-0.8795543450698255,1.3936727651007472
1772031905096994600,4.29599462890625,-0.01047170965373516,-1.1095265915215016,1.3915344378978014
1772031905106942700,4.305942626953125,-0.026059154886007307,-1.2659949180841445,1.3331710962563752
1772031905116891600,4.3158916015625,0.02575929515659809,-1.347828567162156,1.220661446146667
1772031905126840800,4.3258408203125,0.047186698588728905,-1.4645955824553967,1.0807912762288003
1772031905136789800,4.335789794921875,0.12308160526752471,-1.5128870274156332,0.9290895064808428
1772031905146738700,4.34573876953125,0.11794891855418681,-1.4410158232949672,0.7148075080487877
1772031905156687600,4.3556875,-0.13016834865808485,-1.2725218356348573,0.49643769231382756
1772031905166636800,4.36563671875,-0.42853170202970503,-1.0278053167767822,0.3607378668831661
1772031905176585700,4.375585693359375,-0.7344049926400185,-0.8854206067547201,0.2740591523941606
1772031905186534700,4.38553466796875,-1.1620792010575531,-1.1344978050403296,0.05901943549655843
1772031905196483600,4.395483642578125,-1.4919664044618606,-1.6930530404299498,-0.28776093001030384
1772031905206432800,4.405432861328125,-1.433738087376952,-2.2456492212846872,-0.6726102883104235
1772031905216381700,4.415381591796875,-0.8108230464100837,-2.2883451843254266,-0.5904695095119997
1772031905226331000,4.425330810546875,-0.045560558691620824,-1.3136853284113108,0.16856789314653722
1772031905236278800,4.43527880859375,-0.35948739189803597,-0.0908507760092616,0.7988223005581647
1772031905246227700,4.445227783203125,-1.895308720177412,0.7145524373091757,1.2090392512835562
1772031905256176600,4.4551767578125,-3.8339702598690986,1.2866869929790496,1.4973992431655525
1772031905266126000,4.4651259765625,-5.808306339532137,1.8529248918257653,1.5439637182027102
1772031905276075000,4.475074951171875,-7.256797174882888,2.4289573317170143,1.451025030003488
1772031905286024400,4.4850244140625,-7.657897264629602,2.8635768292278048,1.2575246113806962
1772031905295973400,4.494973388671875,-6.823783359003067,3.0487784983217714,1.0213951574735343
1772031905305922300,4.50492236328125,-4.921968910193443,2.819047951671481,0.7674022762261331
1772031905315871200,4.514871337890625,-2.7123762139350176,2.2466832405075428,0.5239718151232228
1772031905325820200,4.524820068359375,-0.670758742159605,1.5072759095355868,0.5201969727596267
1772031905335769000,4.53476904296875,0.9988912108510732,0.7315281220294535,0.6307094211701303
1772031905345718300,4.54471826171875,2.249415003558993,0.018732465259730813,0.7285717564418912
1772031905355667200,4.554667236328125,3.053887219637632,-0.573329902934283,0.8571353733170777
1772031905365615000,4.564614990234375,3.361481342691183,-0.9763974933616817,1.027385922320932
1772031905375564000,4.57456396484375,3.2325778994023797,-1.076074696035683,1.2113732471890746
1772031905385513200,4.58451318359375,2.7144103501111267,-0.8091461992390453,1.4612886498644948
1772031905395462400,4.59446240234375,2.0678286023527384,-0.26282792961001394,1.6703689149349927
1772031905405411300,4.604411376953125,1.347422324448824,0.16432751563042403,1.7270171232216058
1772031905415360300,4.6143603515625,0.6745645641833543,0.39719709095880384,1.653531177380681
1772031905425309200,4.62430908203125,0.04033785560727119,0.4598104912601411,1.4879384641200304
1772031905435258000,4.634258056640625,-0.42716158272027965,0.4643997187465429,1.3508414852425454
1772031905445207000,4.64420703125,-0.5461953739017248,0.4219723435141146,1.2468792987257242
1772031905455156200,4.65415625,-0.29734160910844804,0.3707200029216707,1.18862891593948
1772031905465105400,4.66410546875,0.3079302231401205,0.32156580365225673,1.1190730030238627
1772031905475054300,4.674054443359375,1.1172294209837912,0.10957871122434734,1.0020441219240426
1772031905485002200,4.684002197265625,1.818643998169899,-0.2069412072151899,0.8447935589425265
1772031905494951200,4.693951171875,2.2926842364430424,-0.5188010248892009,0.7067655828252434
1772031905504900000,4.703900146484375,2.5317303084492684,-0.795387869130075,0.5908667286686599
1772031905514849300,4.713849365234375,2.6421459088891743,-0.933357246927917,0.47435003487467764
1772031905524798200,4.723798095703125,2.6217291438043118,-0.9455665940292179,0.41699108450282363
1772031905534747100,4.7337470703125,2.487446345564723,-0.9173391551934182,0.3680968878764659
1772031905544696300,4.7436962890625,2.2514503087788817,-0.9196814805358647,0.31057350419051943
1772031905554645200,4.753645263671875,1.9978011264026163,-0.9253053117670118,0.2963160654529929
1772031905564594200,4.76359423828125,1.7212182276844978,-0.8590459561787546,0.38217542638313023
1772031905574543400,4.77354345703125,1.5036363839894533,-0.6759874365933239,0.5164160294488072
1772031905584492300,4.7834921875,1.2476567128390073,-0.4861648297004401,0.5647095567682757
1772031905594441200,4.793441162109375,0.9578414075821637,-0.2971158375285566,0.48660022544302045
1772031905604390100,4.80339013671875,0.5828630165636539,-0.12678469756916164,0.41620084744058544
1772031905614338000,4.813338134765625,0.16563421431481837,-0.022619389695674178,0.302237966315262
1772031905624287200,4.823287353515625,-0.23590894302427767,-0.05876739239767193,0.12116251030582934
1772031905634236200,4.833236083984375,-0.5574760618507861,-0.2189826504036784,-0.08420096273124217
1772031905644185300,4.843185302734375,-0.7590718163847923,-0.40274566499665376,-0.24517986205350606
1772031905654134300,4.85313427734375,-0.8932242662429809,-0.5239509549982846,-0.3461660284342244
1772031905664083200,4.863083251953125,-0.9700970780432223,-0.5738040963172912,-0.4519146234437823
1772031905674032000,4.8730322265625,-0.9812620306581258,-0.6271959331564605,-0.551918025864847
1772031905683981000,4.88298095703125,-1.0058715712577104,-0.6715319184891879,-0.5926173717282712
1772031905693930200,4.89293017578125,-1.0499439372181891,-0.7246174658581614,-0.5910107767818495
1772031905703879200,4.902879150390625,-1.1860112807869911,-0.7868687548488378,-0.6088452702885493
1772031905713828400,4.912828369140625,-1.382221250629425,-0.9025064738512039,-0.6963938994798808
1772031905723777300,4.92277734375,-1.5953227340400218,-1.0600400915578008,-0.8690599851928651
1772031905733726200,4.932726318359375,-1.7437614834040402,-1.2257780585080384,-1.0786487112421541
1772031905743674400,4.94267431640625,-1.7095511707663535,-1.2642891370795666,-1.2427809234961866
1772031905753623300,4.952623291015625,-1.5207938550174236,-1.1594586432956158,-1.3205379707850515
1772031905763572200,4.962572265625,-1.3398188637077808,-0.9962772289603948,-1.3368515383347868
1772031905773521200,4.972521240234375,-1.2853577902019022,-0.7681966414742172,-1.289338384270668
1772031905783470000,4.982469970703125,-1.372036541223526,-0.42195831498876213,-1.126902454540506
1772031905793419000,4.9924189453125,-1.7190478979080914,0.0963338835954666,-0.8270309616282582
1772031905803368400,5.002368408203125,-2.3418577249348163,0.6002583880007266,-0.4875557360695675
1772031905813317400,5.0123173828125,-3.146502374970913,1.0254869568318128,-0.1579833525017835
1772031905823266300,5.022266357421875,-3.895048121166229,1.4550062085941433,0.1298919794021174
1772031905833215200,5.03221533203125,-4.3998651904970405,1.9250676063641905,0.3617436098596081
1772031905843164200,5.0421640625,-4.570392437550425,2.2972347393542525,0.4747407877579331
1772031905853113000,5.052113037109375,-4.283963267600536,2.507761696101725,0.42553383538797496
1772031905863062000,5.06206201171875,-3.5877146948754786,2.4979940430641174,0.15360351171605288
1772031905873011200,5.07201123046875,-2.5834686789929866,2.302927251907438,-0.1309719566585496
1772031905882959000,5.081958984375,-1.4425065002441406,2.1124064336173234,-0.3147305508047342
1772031905892908000,5.091907958984375,-0.3426549150407314,1.9719326717831194,-0.39798177506309
1772031905902857200,5.101857177734375,0.5980500643014908,1.7468793231636284,-0.4398788793437183
1772031905912806400,5.111806396484375,1.28620125528872,1.4856448002249,-0.48590983202606436
1772031905922755300,5.12175537109375,1.6860814478516577,1.2673320119068026,-0.5682749576322734
1772031905932704300,5.131704345703125,1.8579028263688087,1.1142144570767878,-0.6644358227483927
1772031905942653200,5.141653076171875,1.8574410540759563,1.0436550662070512,-0.7091716210536658
1772031905952602000,5.15160205078125,1.7636814048826694,1.098009172207117,-0.6886809139497577
1772031905962551000,5.161551025390625,1.6091741492599247,1.2319751595824957,-0.6394289533942937
1772031905972500200,5.171500244140625,1.3266583533614873,1.324277303443849,-0.576430316635035
1772031905982449400,5.181449462890625,1.0266735362678765,1.3724182340174913,-0.47397141082063315
1772031905992398300,5.1913984375,0.8142442530304193,1.4335831890761852,-0.35395759562589224
1772031906002346200,5.20134619140625,0.6881523600310087,1.496497325889766,-0.2222803037095815
1772031906012295200,5.211295166015625,0.651705666643381,1.5185907920151949,-0.10527261152826249
1772031906022244000,5.221244140625,0.6557961508274078,1.5354878585413096,0.016732231353223322
1772031906032193300,5.231193359375,0.6638052697598934,1.5347858477517962,0.19417192467618732
1772031906042142200,5.24114208984375,0.7023024659365416,1.4971815087616442,0.3374708999989554
1772031906052091100,5.251091064453125,0.776581169590354,1.387702312389016,0.45956879145875573
1772031906062040300,5.261040283203125,0.8564286132872104,1.2392732076361774,0.5494866705320776
1772031906071989200,5.2709892578125,0.9239116654515266,1.0894430039137601,0.6024604646222665
1772031906081938200,5.280938232421875,0.9990876102060079,0.9441820078030229,0.6027023470867425
1772031906091887400,5.290887451171875,1.051581767553091,0.8087246128261089,0.5968261485297233
1772031906101836300,5.300836181640625,1.1417711570441722,0.6907853388831019,0.5627879410559311
1772031906111785200,5.31078515625,1.3233008596271276,0.5777540029868483,0.48028274939190596
1772031906121734100,5.320734130859375,1.5800024153113363,0.4242041942194104,0.3952228682763874
1772031906131683000,5.33068310546875,1.8337942210286855,0.29327801293134687,0.2911142590261996
1772031906141631200,5.34063134765625,2.013995889878273,0.19859072749912737,0.2007944846211001
1772031906151580200,5.350580078125,2.098390913876891,0.08341507305055856,0.12986337436214088
1772031906161529300,5.360529296875,2.1390806516617533,-0.05883621985018253,0.0803342773657292
1772031906171478300,5.370478271484375,2.1520278115183116,-0.21612930679917333,0.07555866046175361
1772031906181427200,5.38042724609375,2.1472084285378457,-0.3295765300199389,0.10230864715613425
1772031906191376100,5.390376220703125,2.0027689779430626,-0.3606041209682822,0.14608268775716424
1772031906201325000,5.400324951171875,1.7718290555030107,-0.3240541133366525,0.16601762414183466
1772031906211274200,5.410274169921875,1.429220902213454,-0.28086437542960047,0.22952285871636122
1772031906221223200,5.42022314453125,1.029436571240425,-0.26423545832037926,0.355677185960114
1772031906231172400,5.43017236328125,0.7135831538856029,-0.30131138952225445,0.47211708819083864
1772031906241121300,5.440121337890625,0.5106763167530298,-0.34944428291991353,0.5061711873535066
1772031906251070200,5.4500703125,0.41402620681524277,-0.4341287913843989,0.48779718014262613
1772031906261019100,5.46001904296875,0.440749378567934,-0.5558031602025032,0.4875736735850572
1772031906270967600,5.469967529296875,0.5269008908450603,-0.6331668242596089,0.5110276144087315
1772031906280916500,5.47991650390625,0.6012129122465849,-0.6502421699620783,0.522752319798246
1772031906290865400,5.489865478515625,0.521188942939043,-0.6943399626247584,0.5308914217859506
1772031906300814300,5.499814453125,0.3942021469265222,-0.7550402227811515,0.5211056485697627
1772031906310763300,5.50976318359375,0.2587561501264572,-0.8210989412307739,0.46290604612268504
1772031906320712400,5.51971240234375,0.16119301699697972,-0.8753089625850319,0.41600145241096614
1772031906330661600,5.52966162109375,0.10902502286434174,-0.8625713538259268,0.3715028238624334
1772031906340610600,5.539610595703125,0.025143209084868428,-0.7874170363813638,0.367328570385091
1772031906350559500,5.5495595703125,-0.1243190381079912,-0.7001017410218715,0.37312322813849896
1772031906360508400,5.55950830078125,-0.31897651781141756,-0.6558025805681944,0.35223468082342296
1772031906370457300,5.569457275390625,-0.5005623344957828,-0.6368018197610974,0.34420254634153097
1772031906380406300,5.57940625,-0.5945569614887237,-0.5857990700155496,0.35726745082624256
1772031906390355500,5.58935546875,-0.6247457635253667,-0.5014069686263799,0.38874563508629795
1772031906400303400,5.599303466796875,-0.7453390591084956,-0.5055262405134737,0.32215058127027
1772031906410252500,5.60925244140625,-1.0081272412300109,-0.8186603159070015,0.038335941200330854
1772031906420201500,5.619201416015625,-1.1729027928888798,-1.623108128196746,-0.5371428103309125
1772031906430150400,5.629150390625,-0.9484773669093847,-2.3954279870808124,-1.1108549905810505
1772031906440099600,5.639099609375,-0.39035365480482576,-2.394838642885536,-1.162191721521318
1772031906450048500,5.649048583984375,0.012486556607484817,-1.4658435366898774,-0.6128077076461166
1772031906459997400,5.65899755859375,-0.2881616928309202,-0.1283121993973851,0.07462741206020582
1772031906469946400,5.6689462890625,-1.0605535940378903,0.8437431731067597,0.6150840550802648
1772031906479895300,5.678895263671875,-2.177874200436473,1.527552827758342,1.0468936097368597
1772031906489844500,5.688844482421875,-3.3342046287089584,2.0758882824286817,1.4314020456448195
1772031906499793400,5.69879345703125,-4.232236002972722,2.5393261704057455,1.698533517667651
1772031906509742600,5.70874267578125,-4.571917455160618,2.830310519441962,1.7105366746723651
1772031906519691500,5.71869140625,-4.371452750483155,2.8626410096824166,1.396145438824594
1772031906529640400,5.728640380859375,-3.7484658133238553,2.759613473667204,0.9822256880585104
1772031906539588400,5.73858837890625,-2.8174031070739027,2.6127123091340065,0.6792541833043098
1772031906549537500,5.74853759765625,-1.744972612759471,2.3354914047732946,0.4341569580329582
1772031906559486500,5.758486572265625,-0.5918348430484532,1.8326074954621492,0.23671222223117946
1772031906569435400,5.768435302734375,0.4285813863903284,1.1101171047605574,0.09586148031074553
1772031906579384600,5.778384521484375,1.1588859579741955,0.381769512463361,-0.0186601306758821
1772031906589333500,5.78833349609375,1.6613497421771286,-0.1550571445904672,-0.0689461104542017
1772031906599282400,5.798282470703125,1.9593466003239153,-0.40547874322235583,0.04431260445713996
1772031906609231400,5.8082314453125,2.0697680459827184,-0.32835692509710784,0.2127995047893375
1772031906619180500,5.8181806640625,2.0724071623146534,-0.052302288036793466,0.3241046014148742
1772031906629129500,5.82812939453125,1.989418497982621,0.26567265151664615,0.3000944514805451
1772031906639078400,5.838078369140625,1.8283792102426288,0.516132097940892,0.1625612366102636
1772031906649027300,5.84802734375,1.6653291672021149,0.6904442703604697,-0.03769395350236446
1772031906658976500,5.8579765625,1.5427853220731018,0.7812488691404461,-0.30461096079060807
1772031906668924700,5.867924560546875,1.385365978395939,0.7474988674908876,-0.5800302773557603
1772031906678873600,5.87787353515625,1.244018648597598,0.573809210883826,-0.7593037254445254
1772031906688822500,5.887822509765625,1.2265326762676239,0.3670202716208994,-0.8137560311220586
1772031906698771500,5.897771484375,1.3633429471582172,0.12287877617180347,-0.7937266579195856
1772031906708720400,5.907720458984375,1.6175211218446492,-0.15617518883496523,-0.8069165404908358
1772031906718669300,5.91766943359375,1.875668200162053,-0.3798704008437693,-0.8696022753760219
1772031906728618500,5.927618408203125,2.1338883437156677,-0.5446310471944511,-0.9788174139849841
1772031906738567400,5.9375673828125,2.230371864914894,-0.7027978482380509,-1.120405274540931
1772031906748516600,5.9475166015625,2.158343570536375,-0.8071784062974154,-1.239922173064202
1772031906758465500,5.957465576171875,1.8925234733730554,-0.829131441038847,-1.240507571736723
1772031906768414500,5.96741455078125,1.5609288815289735,-0.7581488563209772,-1.1048384337052701
1772031906778363400,5.97736328125,1.2696399965882301,-0.686020024177432,-0.9719827456593513
1772031906788312300,5.987312255859375,1.0446119285404682,-0.6446605704374611,-0.9642143036149442
1772031906798260500,5.997260498046875,0.7962251967370509,-0.6234159762263297,-0.9891065336134284
1772031906808209400,6.00720947265625,0.5355518148124218,-0.5335426669470965,-0.9404499816678464
1772031906818158300,6.017158447265625,0.3223398567646742,-0.38515360194370146,-0.8518375591699033
1772031906828107300,6.027107177734375,0.14379706103801726,-0.2736547363117337,-0.779242863080278
1772031906838056400,6.037056396484375,0.030861586731672285,-0.1874289897546172,-0.7458696588538587
1772031906848005600,6.047005615234375,-0.03542611816823482,-0.12698504244685171,-0.7469991012752055
1772031906857954600,6.05695458984375,-0.0968657985150814,-0.09916998380422591,-0.7200462124198674
1772031906867903500,6.066903564453125,-0.16713585104942322,-0.10583309495523571,-0.626387247122079
1772031906877852400,6.076852294921875,-0.18400281469821927,-0.1548546077556908,-0.48494021980892865
1772031906887801300,6.08680126953125,-0.18035948975980282,-0.221800484303385,-0.33978326859455554
1772031906897750300,6.096750244140625,-0.22549159390628337,-0.28189503365159035,-0.17356743673318997
1772031906907699500,6.106699462890625,-0.2261252156347036,-0.37297801098152994,-0.019290994191635397
1772031906917648600,6.116648681640625,-0.11390344255566597,-0.4784307283170521,0.005923069906048476
1772031906927597600,6.12659765625,0.03385083167552948,-0.5692703984104096,-0.07969197914050892
1772031906937545500,6.13654541015625,0.19954992792010307,-0.6721452280819415,-0.20996703957607968
1772031906947494400,6.146494384765625,0.3674287062913179,-0.7498620894908905,-0.28667141774054616
1772031906957443600,6.156443603515625,0.4671826274633407,-0.765537359137088,-0.332705731423758
1772031906967392500,6.166392578125,0.3976835593014955,-0.7319928169317543,-0.28479910279633475
1772031906977341400,6.176341552734375,0.18345511768758296,-0.6197529236741364,-0.18267262554038316
1772031906987290400,6.186290283203125,-0.086347911632061,-0.4497686974562704,-0.13583079486656932
1772031906997239300,6.1962392578125,-0.40009295853078364,-0.33813217691928144,-0.14933502235030754
1772031907007188500,6.2061884765625,-0.6414513991326093,-0.22315642895698545,-0.09877653664038516
1772031907017137400,6.216137451171875,-0.7234943070471286,-0.06386266971006989,-0.032639821051107715
1772031907027086600,6.226086669921875,-0.7370821028947829,0.025350568225234744,-0.03071057002157904
1772031907037035500,6.236035400390625,-0.8180015597373247,-0.060397623948007816,-0.08204529166785068
1772031907046984400,6.245984375,-1.012724505892396,-0.38224911267384887,-0.3511089647291228
1772031907056933400,6.255933349609375,-1.2480541877239941,-0.9441026589564978,-0.838629264159128
1772031907066881500,6.265881591796875,-1.2271698051273823,-1.4249994851261376,-1.266515580957383
1772031907076830500,6.27583056640625,-0.9689216045230626,-1.667487222018838,-1.495745923000574
1772031907086779400,6.285779296875,-0.5611328307926654,-1.7666827786557375,-1.3984557615935802
1772031907096728600,6.295728515625,-0.2699029825627804,-1.563255278649926,-0.8826613711744546
1772031907106677500,6.305677490234375,-0.5009586403369903,-1.1900975271873175,-0.3709708358775824
1772031907116626400,6.31562646484375,-1.3064923481673,-0.7120758180625736,0.03180266697406769
1772031907126575400,6.325575439453125,-2.306429853200912,-0.04797288053035736,0.4813472002856433
1772031907136524500,6.335524658203125,-3.1723797435492274,0.8934541294761001,0.8452130264636128
1772031907146473500,6.345473388671875,-3.68329337618947,1.9050925936974583,1.0863898999534547
1772031907156422400,6.35542236328125,-3.693170042559504,2.7476673075467346,1.0741186665970832
1772031907166371300,6.365371337890625,-3.199807848700881,3.2325816987946627,0.7620804966814816
1772031907176320500,6.375320556640625,-2.534638889372349,3.2097073114246126,0.23348054683357475
1772031907186269400,6.38526953125,-1.7950240531295536,2.7923551750570534,-0.3141539564931765
1772031907196218400,6.39521826171875,-0.9920897141426801,2.328494531623274,-0.7417510445538907
1772031907206166500,6.40516650390625,-0.15075930126607417,1.922506669835001,-1.0350823220424354
1772031907216115500,6.415115478515625,0.5830617540061473,1.5185814396649597,-1.1282905478980392
1772031907226064400,6.425064453125,1.1020593243807553,1.096755957275629,-1.17602136330083
1772031907236013300,6.435013427734375,1.3972066383153199,0.6135872406512498,-1.2083702659808098
1772031907245962500,6.44496240234375,1.513892405065894,0.20294950723052024,-1.2076454588375984
1772031907255911400,6.454911376953125,1.524407369339466,-0.02481032386869192,-1.1469462215945123
1772031907265859300,6.464859375,1.467522868078947,-0.0257850141197443,-1.0598257912199944
1772031907275808300,6.474808349609375,1.370464177340269,0.17769377768188713,-0.9331645008347927
1772031907285757200,6.484757080078125,1.265997840693593,0.4649047456592321,-0.7964325558774172
1772031907295706400,6.494706298828125,1.146784601292014,0.7211442367896437,-0.6500460628680884
1772031907305655300,6.5046552734375,0.9855343011498451,0.9666665190726518,-0.5624097553933038
1772031907315604500,6.5146044921875,0.8305085746109485,1.1571999045833945,-0.5341051231354474
1772031907325553400,6.524553466796875,0.6556359918296337,1.2500406853660941,-0.5024005097083747
1772031907335502300,6.53450244140625,0.5115642055034637,1.2733696846358478,-0.4050831680335104
1772031907345450500,6.544450439453125,0.47426937085390086,1.2367375516787171,-0.2541730966525152
1772031907355399400,6.5543994140625,0.4932692548781633,1.1276890018083154,-0.12858458659797906
1772031907365348400,6.564348388671875,0.5086398424893618,0.9661329967178404,-0.11408975890800356
1772031907375297300,6.57429736328125,0.5433382309049367,0.7847431409969925,-0.12271989581566303
1772031907385246200,6.58424609375,0.6739215901046991,0.635567894051969,-0.1728138236206025
1772031907395195100,6.594195068359375,0.8124632148325442,0.5184738387614488,-0.25837341615287585
1772031907405144600,6.60414453125,0.9607546646803616,0.39861587171554563,-0.3383038071591407
1772031907415093500,6.614093505859375,1.1140788479983805,0.23123715182095764,-0.42753677270822227
1772031907425042400,6.62404248046875,1.266361413308978,0.040423341933637856,-0.5280757067780941
1772031907434991400,6.633991455078125,1.3360299928188324,-0.13124459958747028,-0.6150486915059388
1772031907444940300,6.643940185546875,1.381605749079585,-0.246121124958992,-0.6695014355748892
1772031907454889200,6.65388916015625,1.3779367051780222,-0.2763346230454743,-0.6936417512275278
1772031907464838100,6.663838134765625,1.2936124083280562,-0.27160321060940623,-0.6642527212664484
1772031907474786300,6.673786376953125,1.189752805402875,-0.26412016137763855,-0.5918012330397964
1772031907484735200,6.6837353515625,1.1211544854730366,-0.28743980829715726,-0.49745852326154705
1772031907494684200,6.69368408203125,1.0764227788209915,-0.29149215242788196,-0.41425643537454304
1772031907504633300,6.70363330078125,0.9546130931854248,-0.29813422079086305,-0.33848650678228587
1772031907514582300,6.713582275390625,0.7807014643907546,-0.27587533497065303,-0.2614245108191855
1772031907524531500,6.723531494140625,0.5242272877216339,-0.26695947645679113,-0.17066607100218534
1772031907534480400,6.73348046875,0.23494155929684638,-0.23602716257646678,-0.06968635719513985
1772031907544429300,6.74342919921875,0.04768529576063156,-0.16975947755128143,-0.0244763609402813
1772031907554378200,6.753378173828125,-0.02309972055852413,-0.1379658706665039,-0.04855911031994037
1772031907564327200,6.7633271484375,0.034219664987921714,-0.10225421355515718,-0.05632816428570076
1772031907574276400,6.7732763671875,0.14988544104099272,-0.12732406514286995,-0.11180263435151427
1772031907584225500,6.7832255859375,0.13872984077632428,-0.30491701279878614,-0.1585398356070742
1772031907594174500,6.793174560546875,0.10372691645622253,-0.48236543741747734,-0.10770777538646943
1772031907604123400,6.803123291015625,0.12464929297566413,-0.6001553660176694,-0.06521666900175624
1772031907614071300,6.8130712890625,0.12252747851610182,-0.685083912371099,-0.07300406234180554
1772031907624020200,6.823020263671875,0.08988193097710609,-0.7695180993363261,-0.08387091792612336
1772031907633969400,6.832969482421875,0.04022913453578949,-0.7849206895209848,-0.08864041561656631
1772031907643918300,6.84291845703125,-0.007246902388334274,-0.7239578329056501,-0.04916514992169104
1772031907653867300,6.8528671875,-0.10306406863331793,-0.6656923986807465,-0.013424047520151361
1772031907663816400,6.86281640625,-0.2733200975298881,-0.6746820530831813,-0.008242123970761895
1772031907673765400,6.872765380859375,-0.5291688357770442,-0.8497809919662773,-0.17039751972649245
1772031907683714300,6.88271435546875,-0.7118798570990562,-1.2018930327907205,-0.5029899635015055
1772031907693663200,6.892663330078125,-0.9067372432887554,-1.6405523072116075,-0.8504489543557167
1772031907703612400,6.9026123046875,-1.010726610073447,-2.0221176754049957,-1.1698222894649952
1772031907713561300,6.912561279296875,-0.8393652502834796,-2.0508095168821514,-1.2795435509651898
1772031907723510300,6.92251025390625,-0.5646189193427562,-1.60784509261325,-1.0089308857630939
1772031907733459200,6.932459228515625,-0.5731979471176862,-0.804930042848736,-0.5076828705580905
1772031907743407400,6.942407470703125,-1.067242278021574,0.11927578324377536,0.013736867195833474
1772031907753356500,6.9523564453125,-1.9148615619093179,0.9867147431060671,0.5243652348875999
1772031907763305500,6.962305419921875,-2.844596818947792,1.8296465998299418,0.9416504434987902
1772031907773254400,6.97225439453125,-3.7463235405981536,2.5411422799170014,1.252271220897138
1772031907783203300,6.982203369140625,-4.391110221633315,3.0508874532997607,1.4169297220475972
1772031907793152300,6.99215234375,-4.462541134640574,3.3244518809795376,1.3209485974125563
1772031907803101200,7.00210107421875,-4.007465124556422,3.284279152806103,1.0710051376864314
1772031907813050400,7.01205029296875,-3.0829128231137988,3.029228579199314,0.7791732319101691
1772031907822999300,7.021999267578125,-1.841361441412568,2.5603610673889516,0.5162373849462717
1772031907832948500,7.031948486328125,-0.6567401536792516,1.9573675553359091,0.29924243776109066
1772031907842897400,7.0418974609375,0.33151217425763607,1.3192859248973428,0.13024976159753276
1772031907852846300,7.051846435546875,1.0510691418558358,0.6321500484324991,0.07004735882752575
1772031907862795300,7.061795166015625,1.5694389357209204,0.11132950041443108,0.06686474673603661
1772031907872744400,7.071744384765625,1.9429729731500147,-0.20038930135369298,0.05552081169188022
1772031907882692400,7.0816923828125,2.152017874646187,-0.33629794722944495,0.04847553282286972
1772031907892641300,7.091641357421875,2.1665981886625287,-0.2677174552172422,0.030840397813171147
1772031907902590200,7.101590087890625,2.016930774286389,-0.00744447078704834,0.07545962053406984
1772031907912539100,7.1115390625,1.7684557796776295,0.3883922916039824,0.18450415181647986
1772031907922488600,7.121488525390625,1.4911831451296806,0.7719011950805783,0.2692257043557241
1772031907932437500,7.1314375,1.1855606144100428,1.0148176787793635,0.254217374185659
1772031907942386400,7.141386474609375,0.8437479954123497,1.0392629687279462,0.1799288797901943
1772031907952335400,7.15133544921875,0.5494499917834997,0.9921833837755024,0.15439904600791632
1772031907962284300,7.1612841796875,0.42124505215287206,0.9688140524953603,0.249144966292195
1772031907972233200,7.171233154296875,0.4245148676037788,0.9069340810351073,0.2996339578293264
1772031907982182100,7.18118212890625,0.483126046526432,0.7559399480998515,0.2749906976232305
1772031907992131300,7.19113134765625,0.5552952106803656,0.6164737558729946,0.22893126776507122
1772031908002080500,7.20108056640625,0.6299427476465702,0.5304042227908968,0.14214490991681814
1772031908012029400,7.211029541015625,0.6659422817885875,0.44649990491867064,0.028833825497422364
1772031908021977300,7.220977294921875,0.6936351753562688,0.36397710453271864,-0.08912245437931268
1772031908031926300,7.23092626953125,0.715649438765645,0.2898891011454165,-0.19679593477053567
1772031908041875500,7.24087548828125,0.8012444862037896,0.1841797787003219,-0.24452976411432026
1772031908051824400,7.250824462890625,0.9270914645314217,0.037776919078081846,-0.2703876060082577
1772031908061773300,7.260773193359375,1.0355021548897028,-0.08329320023655891,-0.3303917188603431
1772031908071722200,7.27072216796875,1.0918372055739163,-0.17024550750255585,-0.3537687219902873
1772031908081671200,7.280671142578125,1.009634138661623,-0.2618877261504531,-0.3022107312484644
1772031908091620400,7.290620361328125,0.8861457061588763,-0.3659007660716772,-0.19072087090685963
1772031908101569500,7.300569580078125,0.7816478053301572,-0.5009913735628128,-0.09060989819178357
1772031908111518500,7.3105185546875,0.7081810025811195,-0.6184487092077732,-0.03829639692452037
1772031908121467400,7.32046728515625,0.7250701780617237,-0.6515136512026191,0.01673482973568607
1772031908131416300,7.330416259765625,0.8139268576443195,-0.652154433324188,0.033352266469667664
1772031908141365200,7.340365234375,0.9054781831383705,-0.7078454870164393,0.03974590389637742
1772031908151314200,7.350314208984375,0.9473252742648124,-0.7352981420874595,0.0866824225497432
1772031908161262300,7.360262451171875,0.9261369402855634,-0.7768855593644082,0.14227051819101907
1772031908171211300,7.370211181640625,0.7901683809161186,-0.8637596868276596,0.23249372775331137
1772031908181160400,7.380160400390625,0.6633218701571226,-0.8686538886100054,0.38329756228085604
1772031908191109400,7.390109375,0.5314291819244623,-0.8042936446413397,0.4595471276162192
1772031908201058300,7.400058349609375,0.4259884472876787,-0.653506432455033,0.45623946437295526
1772031908211007200,7.41000732421875,0.35201661762595177,-0.4370261202611029,0.2740093219030648
1772031908220956400,7.419956298828125,0.1885813746601343,-0.3423623618349433,0.03459125651298091
1772031908230905300,7.4299052734375,0.1676543219655752,-0.35912396541312336,-0.14753967249928973
1772031908240854300,7.439854248046875,0.4189467120826244,-0.5046088334076106,-0.3777450427202508
1772031908250803200,7.44980322265625,0.8225000402003526,-0.7053165530607104,-0.5194431221850216
1772031908260752400,7.45975244140625,1.0865069504618645,-0.7609956240542233,-0.5579197139650582
1772031908270705200,7.469705078125,1.1817980470061302,-0.9545756837844848,-0.5866206885967403
1772031908280654000,7.479654052734375,1.0934861418247221,-1.2073086280986667,-0.6006266367912292
1772031908290603300,7.489603271484375,0.9722738375604152,-1.2822158389143645,-0.5466523604216054
1772031908300551200,7.49955126953125,0.7512415611505509,-1.2675056149080395,-0.44379977911449964
1772031908310500000,7.5095,0.4917091659545898,-1.1821971293263136,-0.3286496244333684
1772031908320449000,7.519448974609375,0.26805121721625325,-1.0409108820654451,-0.2354048294270411
1772031908330398200,7.529398193359375,-0.010714870759844779,-0.8761912983775139,-0.14769878118429333
1772031908340347100,7.53934716796875,-0.23981179568171498,-0.6411462787061929,-0.17402685267217458
1772031908350296000,7.549296142578125,-0.5314221676617861,-0.4841311319157481,-0.16129103401135653
