time,seconds_elapsed,z,y,x
1772031900878657800,0.07765771484375,-0.40213093161582947,-0.11943662911653519,0.5701311230659485
1772031900888606700,0.087606689453125,-0.4027497172355652,-0.030814772471785545,0.4055125415325165
1772031900898556000,0.097555908203125,-0.39563989639282227,0.10043352842330933,0.18885719776153564
1772031900908505000,0.107505126953125,-0.37685427069664,0.190577432513237,-0.02919606678187847
1772031900918454000,0.1174541015625,-0.3543838560581207,0.1988750547170639,-0.21948504447937012
1772031900928403000,0.12740283203125,-0.33057066798210144,0.1903403252363205,-0.37491869926452637
1772031900938350800,0.137350830078125,-0.3072078227996826,0.22320373356342316,-0.4920823276042938
1772031900948299800,0.1472998046875,-0.27685660123825073,0.27620816230773926,-0.5781653523445129
1772031900958249000,0.1572490234375,-0.23644764721393585,0.368018239736557,-0.6601086854934692
1772031900968198000,0.167197998046875,-0.20600078999996185,0.49696409702301025,-0.7305681705474854
1772031900978146800,0.177146728515625,-0.19029000401496887,0.6247729063034058,-0.774084210395813
1772031900988096000,0.187095947265625,-0.19218507409095764,0.6895826458930969,-0.761695146560669
1772031900998045000,0.197044921875,-0.2172880321741104,0.6599326133728027,-0.6704819202423096
1772031901007993900,0.206993896484375,-0.2536216974258423,0.5367399454116821,-0.517463207244873
1772031901017942800,0.21694287109375,-0.27493417263031006,0.34973278641700745,-0.33224937319755554
1772031901027891000,0.226890869140625,-0.2873842716217041,0.12409350275993347,-0.13794100284576416
1772031901037840000,0.23683984375,-0.28904953598976135,-0.08323358744382858,0.03656395524740219
1772031901047788800,0.246788818359375,-0.28097832202911377,-0.21739140152931213,0.17105473577976227
1772031901057737700,0.25673779296875,-0.2613700032234192,-0.2829091548919678,0.2551405727863312
1772031901067687000,0.26668701171875,-0.23313100636005402,-0.2823304831981659,0.2932329475879669
1772031901077635800,0.2766357421875,-0.20798809826374054,-0.2286723107099533,0.2718365788459778
1772031901087585000,0.2865849609375,-0.17796771228313446,-0.1544918715953827,0.20504657924175262
1772031901097534000,0.296533935546875,-0.1441972404718399,-0.06601899862289429,0.11355448514223099
1772031901107483000,0.30648291015625,-0.11045855283737183,0.008449895307421684,0.013816803693771362
1772031901117431800,0.316431884765625,-0.06817074865102768,0.0579034648835659,-0.08702006191015244
1772031901127380000,0.3263798828125,-0.021150123327970505,0.07351183146238327,-0.17521603405475616
1772031901137329000,0.336328857421875,0.025401398539543152,0.09411298483610153,-0.24820980429649353
1772031901147277800,0.34627783203125,0.06044184789061546,0.13337603211402893,-0.2989955544471741
1772031901157226800,0.356226806640625,0.08286406099796295,0.15160402655601501,-0.3003082275390625
1772031901167175700,0.36617578125,0.08857320994138718,0.12280642241239548,-0.24516747891902924
1772031901177124900,0.376124755859375,0.08906802535057068,0.07322289049625397,-0.15014325082302094
1772031901187074000,0.386073974609375,0.08434684574604034,0.01823342964053154,-0.02400244027376175
1772031901197023000,0.39602294921875,0.08449305593967438,-0.027886927127838135,0.10302235186100006
1772031901206972000,0.405971923828125,0.09409142285585403,-0.03344971686601639,0.2054482400417328
1772031901216919800,0.415919921875,0.11240731179714203,-0.030291210860013962,0.2828250527381897
1772031901226869000,0.425868896484375,0.11637059599161148,-0.02559499442577362,0.3376001715660095
1772031901236818000,0.43581787109375,0.11546138674020767,0.010955559089779854,0.3831855058670044
1772031901246766800,0.445766845703125,0.11099674552679062,0.08143255114555359,0.4258613586425781
1772031901256715800,0.4557158203125,0.11244577169418335,0.10762793570756912,0.49073782563209534
1772031901266665500,0.46566552734375,0.10793859511613846,0.10726268589496613,0.5451281666755676
1772031901276614400,0.475614501953125,0.0987221971154213,0.16188305616378784,0.5652861595153809
1772031901286563300,0.485563232421875,0.08886279165744781,0.27700790762901306,0.555313766002655
1772031901296512300,0.49551220703125,0.0896843746304512,0.40220949053764343,0.5250160694122314
1772031901306461700,0.505461669921875,0.1164911538362503,0.5398261547088623,0.5065610408782959
1772031901316409300,0.515409423828125,0.1589733511209488,0.6754817366600037,0.526055634021759
1772031901326358500,0.525358642578125,0.2099984884262085,0.7876535058021545,0.5844117999076843
1772031901336307500,0.535307373046875,0.26484978199005127,0.8088656067848206,0.6943688988685608
1772031901346256400,0.54525634765625,0.3207146227359772,0.7226389050483704,0.8080337643623352
1772031901356205600,0.55520556640625,0.3488956689834595,0.5608885884284973,0.8956440091133118
1772031901366154500,0.565154541015625,0.3219194710254669,0.32907769083976746,0.9412710070610046
1772031901376103400,0.575103515625,0.21767374873161316,0.027618497610092163,0.9562097787857056
1772031901386052400,0.58505224609375,0.0650150403380394,-0.26348522305488586,0.9386037588119507
1772031901396001500,0.59500146484375,-0.09144727140665054,-0.4688474237918854,0.8762988448143005
1772031901405950500,0.604950439453125,-0.22471362352371216,-0.57384192943573,0.7795168161392212
1772031901415898600,0.614898681640625,-0.3221304714679718,-0.6040376424789429,0.6735235452651978
1772031901425847600,0.62484765625,-0.3618887960910797,-0.557456374168396,0.571245014667511
1772031901435796500,0.63479638671875,-0.3078388571739197,-0.4064372777938843,0.4244433045387268
1772031901445745400,0.644745361328125,-0.1662580966949463,-0.1103433221578598,0.19097045063972473
1772031901455694300,0.6546943359375,0.02389133907854557,0.2154955118894577,-0.11018485575914383
1772031901465643500,0.6646435546875,0.2028585523366928,0.41666796803474426,-0.4251345694065094
1772031901475592400,0.674592529296875,0.3266129791736603,0.46054595708847046,-0.7366479635238647
1772031901485541600,0.684541748046875,0.38007625937461853,0.3672502934932709,-1.0018234252929688
1772031901495490600,0.694490478515625,0.36208343505859375,0.12339368462562561,-1.1649601459503174
1772031901505438500,0.7044384765625,0.30402690172195435,-0.18930752575397491,-1.188942313194275
1772031901515387600,0.7143876953125,0.24668370187282562,-0.523494303226471,-1.0720795392990112
1772031901525336600,0.724336669921875,0.1758071333169937,-0.8235461115837097,-0.8364297151565552
1772031901535285500,0.734285400390625,0.08970794081687927,-0.9788554906845093,-0.5551956295967102
1772031901545234400,0.744234375,0.011190610006451607,-1.005926489830017,-0.2935449779033661
1772031901555183400,0.754183349609375,-0.04834941774606705,-0.9173483848571777,-0.07875862717628479
1772031901565132300,0.76413232421875,-0.07690630108118057,-0.7342706918716431,0.09277272969484329
1772031901575081500,0.77408154296875,-0.044418927282094955,-0.36104917526245117,0.19922487437725067
1772031901585030700,0.78403076171875,0.03948873281478882,0.10412894934415817,0.19522258639335632
1772031901594979600,0.7939794921875,0.11764079332351685,0.34417855739593506,0.16812679171562195
1772031901604927500,0.803927490234375,0.153412863612175,0.43467649817466736,0.08873505145311356
1772031901614876400,0.81387646484375,0.1654793918132782,0.38788875937461853,-0.054506268352270126
1772031901624825600,0.82382568359375,0.1489471048116684,0.297943651676178,-0.25358662009239197
1772031901634774500,0.8337744140625,0.11714363098144531,0.1673925518989563,-0.45099422335624695
1772031901644723500,0.843723388671875,0.06952358037233353,0.001651782775297761,-0.5896157026290894
1772031901654672400,0.85367236328125,0.02525225281715393,-0.14616085588932037,-0.6709043979644775
1772031901664621300,0.863621337890625,-0.007312720641493797,-0.22718076407909393,-0.7226454019546509
1772031901674570500,0.873570556640625,-0.03222686052322388,-0.2648213505744934,-0.7446231245994568
1772031901684519400,0.88351953125,-0.05504824221134186,-0.2603606879711151,-0.7304895520210266
1772031901694467600,0.893467529296875,-0.07113293558359146,-0.21287599205970764,-0.7146439552307129
1772031901704416500,0.90341650390625,-0.06887607276439667,-0.12755334377288818,-0.7132710814476013
1772031901714365400,0.913365478515625,-0.05534720793366432,-0.03819950297474861,-0.6816593408584595
1772031901724314400,0.923314453125,-0.03199062496423721,0.010571714490652084,-0.6126800179481506
1772031901734263300,0.93326318359375,-0.008326842449605465,0.0073500885628163815,-0.5171343088150024
1772031901744212500,0.94321240234375,0.011211114935576916,0.02339077554643154,-0.4185532331466675
1772031901754161400,0.953161376953125,0.021511955186724663,0.06665835529565811,-0.339572936296463
1772031901764110600,0.963110595703125,0.018898852169513702,0.10383158922195435,-0.27783501148223877
1772031901774059500,0.9730595703125,0.0050022113136947155,0.12657152116298676,-0.22495023906230927
1772031901784008400,0.983008544921875,-0.03341038152575493,0.1265213042497635,-0.1706116646528244
1772031901793956600,0.99295654296875,-0.08534281700849533,0.10941768437623978,-0.12085715681314468
1772031901803905500,1.002905517578125,-0.14718008041381836,0.08006724715232849,-0.06428123265504837
1772031901813854500,1.0128544921875,-0.20672065019607544,0.07204501330852509,-0.01890602707862854
1772031901823803400,1.022803466796875,-0.25702399015426636,0.07949814945459366,0.008060518652200699
1772031901833752300,1.03275244140625,-0.2955623269081116,0.07549382001161575,0.025552161037921906
1772031901843701200,1.042701171875,-0.3191223740577698,0.04884520173072815,0.02925511822104454
1772031901853650700,1.052650634765625,-0.3497103750705719,-0.000182262621819973,0.029570437967777252
1772031901863599600,1.062599609375,-0.39200669527053833,-0.05682982876896858,0.04459891840815544
1772031901873548500,1.072548583984375,-0.43807539343833923,-0.11047308146953583,0.07098019123077393
1772031901883497500,1.08249755859375,-0.4852677583694458,-0.14557240903377533,0.10965349525213242
1772031901893445400,1.0924453125,-0.524691641330719,-0.15913322567939758,0.15357035398483276
1772031901903394600,1.10239453125,-0.5554955005645752,-0.15565867722034454,0.19324006140232086
1772031901913343500,1.112343505859375,-0.5818616151809692,-0.13677605986595154,0.22952456772327423
1772031901923292400,1.12229248046875,-0.5896399617195129,-0.07932917028665543,0.24531130492687225
1772031901933241300,1.132241455078125,-0.5750905275344849,0.0013528899289667606,0.24716566503047943
1772031901943190500,1.1421904296875,-0.5403569936752319,0.07363588362932205,0.24399347603321075
1772031901953139500,1.152139404296875,-0.5054624080657959,0.12061431258916855,0.24278786778450012
1772031901963088600,1.162088623046875,-0.4703049957752228,0.14415359497070312,0.24561971426010132
1772031901973037600,1.17203759765625,-0.45896607637405396,0.1131991446018219,0.2476184219121933
1772031901982986500,1.181986572265625,-0.4801444709300995,0.036480359733104706,0.2580203711986542
1772031901992934400,1.191934326171875,-0.548811674118042,-0.04748324677348137,0.2666029632091522
1772031902002883300,1.20188330078125,-0.6594691276550293,-0.09260331094264984,0.24818922579288483
1772031902012832500,1.21183251953125,-0.7626618146896362,-0.08368784189224243,0.1911696195602417
1772031902022781400,1.221781494140625,-0.7956867218017578,0.04918718338012695,0.07487517595291138
1772031902032730600,1.231730712890625,-0.7403725981712341,0.32308104634284973,-0.09436790645122528
1772031902042679600,1.241679443359375,-0.6220561861991882,0.6369284987449646,-0.27689772844314575
1772031902052628500,1.25162841796875,-0.4914390742778778,0.84079509973526,-0.41038763523101807
1772031902062577400,1.261577392578125,-0.3804638087749481,0.8754156231880188,-0.47917595505714417
1772031902072526300,1.2715263671875,-0.3245507478713989,0.6883756518363953,-0.44829875230789185
1772031902082474500,1.281474609375,-0.3193802535533905,0.33374881744384766,-0.320236474275589
1772031902092423400,1.29142333984375,-0.3615780472755432,-0.06898584961891174,-0.11053811013698578
1772031902102372400,1.301372314453125,-0.43667635321617126,-0.4225900173187256,0.14897938072681427
1772031902112321300,1.3113212890625,-0.5366069674491882,-0.6785964965820312,0.41404619812965393
1772031902122270500,1.3212705078125,-0.6395165324211121,-0.8614395260810852,0.6700324416160583
1772031902132219600,1.3312197265625,-0.7379725575447083,-0.9620375037193298,0.8889821171760559
1772031902142168600,1.34116845703125,-0.8067452311515808,-0.9905710816383362,1.0434553623199463
1772031902152117500,1.351117431640625,-0.8338929414749146,-0.9577382802963257,1.1138824224472046
1772031902162066400,1.36106640625,-0.8190751671791077,-0.8822061419487,1.0908410549163818
1772031902172015400,1.371015380859375,-0.7725313901901245,-0.7451835870742798,0.9808502197265625
1772031902181963500,1.380963623046875,-0.7035685181617737,-0.5644950270652771,0.7853536009788513
1772031902191912400,1.390912353515625,-0.6231935024261475,-0.345358669757843,0.5203788876533508
1772031902201861400,1.400861328125,-0.5489474534988403,-0.1292029619216919,0.2161300778388977
1772031902211810300,1.410810302734375,-0.47902432084083557,0.05415168032050133,-0.09111402928829193
1772031902221759500,1.420759521484375,-0.43056267499923706,0.1532629430294037,-0.3443714380264282
1772031902231708400,1.43070849609375,-0.4157898426055908,0.1870717704296112,-0.4950541853904724
1772031902241657600,1.44065771484375,-0.4269675612449646,0.21100874245166779,-0.5701845288276672
1772031902251606500,1.4506064453125,-0.45198795199394226,0.20987583696842194,-0.5629844069480896
1772031902261555000,1.460554931640625,-0.4896121621131897,0.16002632677555084,-0.45446306467056274
1772031902271504000,1.47050390625,-0.5501181483268738,0.07337665557861328,-0.2599963843822479
1772031902281452800,1.480452880859375,-0.6081013679504395,-0.02413824573159218,-0.009587095119059086
1772031902291401000,1.49040087890625,-0.6598916053771973,-0.08450784534215927,0.24178974330425262
1772031902301350000,1.500349853515625,-0.7280246019363403,-0.1250796765089035,0.45593518018722534
1772031902311298800,1.510298828125,-0.8133240342140198,-0.1817626655101776,0.6338039636611938
1772031902321247700,1.520247802734375,-0.8804617524147034,-0.19698047637939453,0.7749511003494263
1772031902331196700,1.53019677734375,-0.9136481881141663,-0.13084779679775238,0.8904843330383301
1772031902341145900,1.540145751953125,-0.9094289541244507,0.02433423325419426,1.0087896585464478
1772031902351094800,1.5500947265625,-0.8821491599082947,0.2621111273765564,1.133782982826233
1772031902361044000,1.5600439453125,-0.9085119962692261,0.505181074142456,1.2375003099441528
1772031902370993000,1.569992919921875,-0.9458348751068115,0.6812219023704529,1.2528761625289917
1772031902380941800,1.57994189453125,-0.9121925830841064,0.7743966579437256,1.2074525356292725
1772031902390890000,1.589889892578125,-0.8535106182098389,0.8259453177452087,1.153747797012329
1772031902400839000,1.5998388671875,-0.813744068145752,0.8233647346496582,1.1124907732009888
1772031902410787800,1.609787841796875,-0.7779855132102966,0.7616686224937439,1.0180240869522095
1772031902420736800,1.61973681640625,-0.7584346532821655,0.6752633452415466,0.8789247870445251
1772031902430685700,1.629685791015625,-0.7724665999412537,0.5654364824295044,0.6848629117012024
1772031902440634600,1.639634521484375,-0.802901029586792,0.4512443244457245,0.44205495715141296
1772031902450583800,1.649583740234375,-0.8317910432815552,0.3402317762374878,0.16037613153457642
1772031902460533000,1.659532958984375,-0.8608550429344177,0.18167777359485626,-0.07197625190019608
1772031902470482000,1.66948193359375,-0.873226523399353,0.010760901495814323,-0.24409742653369904
1772031902480430800,1.679430908203125,-0.853320837020874,-0.1335894912481308,-0.40089941024780273
1772031902490378800,1.689378662109375,-0.8140855431556702,-0.28930556774139404,-0.5476475954055786
1772031902500328000,1.699327880859375,-0.7747230529785156,-0.3951148986816406,-0.6878665089607239
1772031902510276900,1.70927685546875,-0.7359404563903809,-0.4837782084941864,-0.7938070893287659
1772031902520225800,1.719225830078125,-0.6936737895011902,-0.5606715083122253,-0.8714591860771179
1772031902530174700,1.7291748046875,-0.6330253481864929,-0.6305640339851379,-0.9402031302452087
1772031902540124000,1.7391240234375,-0.5759810209274292,-0.7277956008911133,-1.0032036304473877
1772031902550072800,1.74907275390625,-0.5415402054786682,-0.8779667615890503,-1.0768495798110962
1772031902560021800,1.759021728515625,-0.5130183100700378,-1.0653789043426514,-1.1497764587402344
1772031902569971000,1.768970947265625,-0.4898885190486908,-1.2221605777740479,-1.2100070714950562
1772031902579920000,1.778919921875,-0.4733472168445587,-1.3031114339828491,-1.2024636268615723
1772031902589867800,1.78886767578125,-0.4365979731082916,-1.2894715070724487,-1.120574712753296
1772031902599816700,1.798816650390625,-0.38983556628227234,-1.200390100479126,-0.9690194725990295
1772031902609766000,1.808765869140625,-0.34788331389427185,-1.023303508758545,-0.7671286463737488
1772031902619714800,1.81871484375,-0.316292405128479,-0.7696988582611084,-0.5232822895050049
1772031902629664000,1.8286640625,-0.28590893745422363,-0.4903484582901001,-0.2549310326576233
1772031902639613000,1.838613037109375,-0.24760764837265015,-0.2554829716682434,0.008284431882202625
1772031902649561900,1.848561767578125,-0.19476628303527832,-0.06340913474559784,0.2326544225215912
1772031902659510800,1.8585107421875,-0.14073719084262848,0.050553373992443085,0.3982416093349457
1772031902669459700,1.868459716796875,-0.07867489010095596,0.13130253553390503,0.4725733697414398
1772031902679409000,1.878408935546875,0.027275297790765762,0.3434312641620636,0.3705807328224182
1772031902689356800,1.888356689453125,0.19183121621608734,0.7554616928100586,0.055270735174417496
1772031902699305700,1.8983056640625,0.38052108883857727,1.1971532106399536,-0.408602774143219
1772031902709254700,1.908254638671875,0.5449707508087158,1.5742155313491821,-0.9154068827629089
1772031902719203800,1.918203857421875,0.6484230756759644,1.8154489994049072,-1.3378002643585205
1772031902729153000,1.928153076171875,0.6918517351150513,1.8069926500320435,-1.5402894020080566
1772031902739102000,1.93810205078125,0.7044479846954346,1.4841090440750122,-1.474629521369934
1772031902749051000,1.94805078125,0.6950175166130066,0.9199985265731812,-1.1608052253723145
1772031902758999800,1.957999755859375,0.64458829164505,0.27944815158843994,-0.6999396085739136
1772031902768948700,1.96794873046875,0.5210365056991577,-0.26983335614204407,-0.16794739663600922
1772031902778897700,1.977897705078125,0.30652251839637756,-0.6737760305404663,0.3931654691696167
1772031902788846800,1.987846923828125,0.07458250224590302,-0.8981185555458069,0.8908540606498718
1772031902798794800,1.997794677734375,-0.11441894620656967,-0.9188098907470703,1.264871597290039
1772031902808744000,2.007743896484375,-0.22665919363498688,-0.8065014481544495,1.523384928703308
1772031902818692900,2.01769287109375,-0.2662217319011688,-0.6272574663162231,1.6592702865600586
1772031902828641800,2.027641845703125,-0.2588982880115509,-0.4052366614341736,1.6672046184539795
1772031902838591000,2.037591064453125,-0.19702601432800293,-0.22060099244117737,1.5528682470321655
1772031902848540000,2.047539794921875,-0.08914775401353836,-0.07851734012365341,1.3135640621185303
1772031902858488800,2.05748876953125,0.0279009360820055,0.03461966663599014,0.9872539043426514
1772031902868437800,2.067437744140625,0.12140718102455139,0.12393543124198914,0.6071379780769348
1772031902878386700,2.07738671875,0.1659715175628662,0.15765084326267242,0.20645806193351746
1772031902888336000,2.0873359375,0.16649961471557617,0.13877196609973907,-0.18385429680347443
1772031902898283800,2.09728369140625,0.1360393762588501,0.05893879756331444,-0.5289463996887207
1772031902908233000,2.10723291015625,0.10718827694654465,-0.0846756249666214,-0.7909539937973022
1772031902918182000,2.117181884765625,0.077375128865242,-0.25324007868766785,-0.9419941306114197
1772031902928130800,2.127130859375,0.06475414335727692,-0.4296737015247345,-0.9859669208526611
1772031902938079700,2.137079833984375,0.06335527449846268,-0.6013553738594055,-0.9535490274429321
1772031902948029000,2.14702880859375,0.07023901492357254,-0.7637714743614197,-0.8452521562576294
1772031902957977900,2.156977783203125,0.06966227293014526,-0.8779171705245972,-0.70157790184021
1772031902967926800,2.1669267578125,0.06109142675995827,-0.9151361584663391,-0.5602157711982727
1772031902977876000,2.1768759765625,0.03500405699014664,-0.8794984221458435,-0.46110740303993225
1772031902987825000,2.186824951171875,0.0098038949072361,-0.8340089917182922,-0.41882094740867615
1772031902997773800,2.19677392578125,0.003924755845218897,-0.7992899417877197,-0.4431222081184387
1772031903007722000,2.206721923828125,0.003633139654994011,-0.7508206963539124,-0.5128978490829468
1772031903017671000,2.2166708984375,-0.0066089266911149025,-0.6991677284240723,-0.6095396280288696
1772031903027619800,2.226619873046875,-0.048181936144828796,-0.6508100628852844,-0.7230142951011658
1772031903037568800,2.23656884765625,-0.12431684136390686,-0.6357292532920837,-0.8475142121315002
1772031903047517700,2.246517578125,-0.2306874841451645,-0.6338312029838562,-0.9646887183189392
1772031903057466600,2.256466552734375,-0.33364978432655334,-0.6261254549026489,-1.0645123720169067
1772031903067416000,2.266416015625,-0.41328150033950806,-0.5579272508621216,-1.1736154556274414
1772031903077365000,2.276364990234375,-0.4641932547092438,-0.4004495441913605,-1.2705742120742798
1772031903087314000,2.28631396484375,-0.5007227659225464,-0.2204425036907196,-1.3486239910125732
1772031903097262800,2.296262939453125,-0.5424401760101318,-0.08322097361087799,-1.4001102447509766
1772031903107211800,2.306211669921875,-0.5845189094543457,-0.017492033541202545,-1.4225207567214966
1772031903117160000,2.316159912109375,-0.6036946773529053,0.008591409772634506,-1.3861721754074097
1772031903127108900,2.32610888671875,-0.5690557360649109,-0.05024607479572296,-1.2561516761779785
1772031903137057800,2.336057861328125,-0.48956674337387085,-0.09864334017038345,-1.0414838790893555
1772031903147006700,2.3460068359375,-0.36845096945762634,-0.07931464910507202,-0.7849491834640503
1772031903156956000,2.355955810546875,-0.24884840846061707,-0.0443197563290596,-0.5297872424125671
1772031903166904800,2.36590478515625,-0.1466059386730194,-0.030574915930628777,-0.30277806520462036
1772031903176854000,2.37585400390625,-0.09667123109102249,-0.0822163000702858,-0.11080553382635117
1772031903186803000,2.385802978515625,-0.11654587090015411,-0.07070319354534149,0.02510542795062065
1772031903196752000,2.395751953125,-0.18946470320224762,-0.008352327160537243,0.08240321278572083
1772031903206700800,2.40570068359375,-0.2819403111934662,0.035955484956502914,0.09430594742298126
1772031903216649700,2.415649658203125,-0.3760852813720703,0.028869468718767166,0.07416405528783798
1772031903226598000,2.425597900390625,-0.4642393887042999,0.0037444087211042643,0.062442682683467865
1772031903236546800,2.435546875,-0.5423396825790405,-0.03363843634724617,0.06224239245057106
1772031903246495700,2.445495849609375,-0.6075810194015503,-0.05362732335925102,0.05996539071202278
1772031903256445000,2.45544482421875,-0.6552379727363586,-0.054318878799676895,0.05834176763892174
1772031903266394000,2.46539404296875,-0.6850438117980957,-0.06721071153879166,0.061031028628349304
1772031903276343000,2.475343017578125,-0.6848647594451904,-0.08301492035388947,0.05405791476368904
1772031903286292000,2.4852919921875,-0.6468563675880432,-0.06329847127199173,0.030915044248104095
1772031903296241200,2.4952412109375,-0.5854006409645081,-0.1101967915892601,-0.0009864470921456814
1772031903306190000,2.505190185546875,-0.5250036120414734,-0.16947104036808014,-0.03534388914704323
1772031903316139000,2.515138916015625,-0.47324731945991516,-0.15568982064723969,-0.0923309475183487
1772031903326088200,2.525088134765625,-0.4339217245578766,-0.08397941291332245,-0.13968035578727722
1772031903336036000,2.5350361328125,-0.41662633419036865,-0.06165357679128647,-0.11951924115419388
1772031903345985300,2.5449853515625,-0.40943819284439087,-0.07521039992570877,-0.042001545429229736
1772031903355934200,2.554934326171875,-0.3881392180919647,-0.07095596939325333,0.06853970885276794
1772031903365883100,2.564883056640625,-0.36120718717575073,-0.0681774914264679,0.1967748999595642
1772031903375832000,2.57483203125,-0.3415519595146179,-0.0943097323179245,0.33512604236602783
1772031903385781000,2.584781005859375,-0.321519136428833,-0.1848287135362625,0.4801061451435089
1772031903395730000,2.59472998046875,-0.28482586145401,-0.3046879172325134,0.6025394797325134
1772031903405679000,2.60467919921875,-0.23824691772460938,-0.342635840177536,0.6790204048156738
1772031903415628300,2.614628173828125,-0.19300085306167603,-0.23649483919143677,0.7136927843093872
1772031903425577200,2.6245771484375,-0.16475988924503326,-0.11317157000303268,0.7508934140205383
1772031903435526100,2.634526123046875,-0.1550443172454834,0.03182461857795715,0.778192400932312
1772031903445475000,2.64447509765625,-0.16295737028121948,0.3365592360496521,0.7574679255485535
1772031903455423200,2.65442333984375,-0.1416986584663391,0.7975131273269653,0.672961950302124
1772031903465372200,2.6643720703125,-0.06479829549789429,1.28998601436615,0.5402670502662659
1772031903475321000,2.674321044921875,0.04767836630344391,1.6910784244537354,0.43466609716415405
1772031903485270000,2.68427001953125,0.12984727323055267,1.9314460754394531,0.4160356819629669
1772031903495219000,2.694218994140625,0.12532559037208557,2.0123322010040283,0.5222530364990234
1772031903505168100,2.704168212890625,0.06358553469181061,1.9359859228134155,0.7025096416473389
1772031903515117000,2.714116943359375,-0.031517378985881805,1.7650820016860962,0.8869861960411072
1772031903525066200,2.724066162109375,-0.1625816524028778,1.5323885679244995,1.0064011812210083
1772031903535015200,2.73401513671875,-0.37017375230789185,1.2383406162261963,1.0434296131134033
1772031903544964000,2.743964111328125,-0.6045430898666382,1.0022015571594238,1.0112444162368774
1772031903554912000,2.753912109375,-0.7951962947845459,0.7849373817443848,0.9127570986747742
1772031903564861200,2.763861083984375,-0.9169474840164185,0.5255657434463501,0.7605922818183899
1772031903574810000,2.77381005859375,-0.9997565150260925,0.26804232597351074,0.5498842000961304
1772031903584759000,2.783759033203125,-1.0657285451889038,0.03981662169098854,0.28654342889785767
1772031903594708200,2.793708251953125,-1.099097490310669,-0.1397414207458496,0.005446045659482479
1772031903604657200,2.8036572265625,-1.1038672924041748,-0.2723231613636017,-0.25594666600227356
1772031903614606000,2.813606201171875,-1.0720502138137817,-0.3608970642089844,-0.464115172624588
1772031903624555000,2.823554931640625,-1.0020506381988525,-0.4209707975387573,-0.5924729108810425
1772031903634504200,2.833504150390625,-0.9126173853874207,-0.4476816654205322,-0.6306766867637634
1772031903644453000,2.843453125,-0.8310253024101257,-0.45896655321121216,-0.5634816884994507
1772031903654402000,2.853402099609375,-0.7772144675254822,-0.4775332808494568,-0.40616387128829956
1772031903664351000,2.86335107421875,-0.7491415143013,-0.5025004148483276,-0.19674459099769592
1772031903674299000,2.873298828125,-0.7653338313102722,-0.5119713544845581,0.019458133727312088
1772031903684248000,2.883248046875,-0.8030708432197571,-0.5103856921195984,0.20715239644050598
1772031903694197200,2.893197265625,-0.8534775376319885,-0.48662856221199036,0.35800373554229736
1772031903704146200,2.903146240234375,-0.8926717638969421,-0.4763144254684448,0.4754731059074402
1772031903714095000,2.91309521484375,-0.9046406149864197,-0.46917349100112915,0.5506845116615295
1772031903724044000,2.9230439453125,-0.901549220085144,-0.48129138350486755,0.5892660021781921
1772031903733993000,2.932992919921875,-0.8818932175636292,-0.5078387260437012,0.5770467519760132
1772031903743942100,2.942942138671875,-0.8600329160690308,-0.5100177526473999,0.5179567933082581
1772031903753891000,2.95289111328125,-0.8332264423370361,-0.5118669271469116,0.4286702275276184
1772031903763840300,2.96284033203125,-0.781611442565918,-0.5181594491004944,0.3284722566604614
1772031903773789200,2.9727890625,-0.7015917301177979,-0.5099707245826721,0.2262449711561203
1772031903783737000,2.982737060546875,-0.6066393852233887,-0.4872467815876007,0.12665526568889618
1772031903793686300,2.992686279296875,-0.5105352401733398,-0.4666939675807953,0.03094634599983692
1772031903803635200,3.00263525390625,-0.42686402797698975,-0.44747981429100037,-0.05885624513030052
1772031903813584100,3.012584228515625,-0.361534059047699,-0.411594420671463,-0.1497759222984314
1772031903823533000,3.022532958984375,-0.30759039521217346,-0.3637235760688782,-0.22903531789779663
1772031903833482000,3.03248193359375,-0.2682681977748871,-0.3232609033584595,-0.2997317910194397
1772031903843431000,3.042430908203125,-0.22886726260185242,-0.3257424533367157,-0.3370956778526306
1772031903853380000,3.052380126953125,-0.19859452545642853,-0.32116347551345825,-0.3461836576461792
1772031903863329300,3.062329345703125,-0.14689111709594727,-0.32705384492874146,-0.3114538788795471
1772031903873278200,3.0722783203125,-0.07722180336713791,-0.3330380618572235,-0.23244406282901764
1772031903883227100,3.08222705078125,0.016985120251774788,-0.3547963500022888,-0.11567243933677673
1772031903893176000,3.092176025390625,0.11401674896478653,-0.3272716701030731,0.0050866007804870605
1772031903903124000,3.1021240234375,0.2113446295261383,-0.2985454797744751,0.13220594823360443
1772031903913073200,3.1120732421875,0.3043942153453827,-0.235197976231575,0.23138310015201569
1772031903923022000,3.12202197265625,0.3961257338523865,-0.20389917492866516,0.3054032623767853
1772031903932971000,3.131970947265625,0.4845446050167084,-0.14498595893383026,0.3514730632305145
1772031903942920000,3.141919921875,0.5676254034042358,-0.06966830044984818,0.35483238101005554
1772031903952869000,3.151869140625,0.6489995121955872,0.004165678285062313,0.33049872517585754
1772031903962818000,3.161818115234375,0.7375267148017883,0.07968014478683472,0.2858297824859619
1772031903972767200,3.171767333984375,0.8324837684631348,0.12426213920116425,0.2388942688703537
1772031903982716200,3.181716064453125,0.9319600462913513,0.14862899482250214,0.18326696753501892
1772031903992665000,3.1916650390625,1.032160758972168,0.16371223330497742,0.12041490525007248
1772031904002614000,3.201614013671875,1.1312912702560425,0.16324831545352936,0.05357222259044647
1772031904012562000,3.21156201171875,1.2273125648498535,0.1625390499830246,-0.0057686250656843185
1772031904022511000,3.221510986328125,1.316111445426941,0.16192038357257843,-0.052506837993860245
1772031904032460000,3.2314599609375,1.3965425491333008,0.17622561752796173,-0.0820261761546135
1772031904042409200,3.2414091796875,1.4638102054595947,0.18847936391830444,-0.10458981245756149
1772031904052358100,3.251358154296875,1.4966545104980469,0.20702943205833435,-0.11212199926376343
1772031904062307000,3.26130712890625,1.4968606233596802,0.1958276480436325,-0.06826799362897873
1772031904072256000,3.271256103515625,1.463044285774231,0.041712768375873566,0.07173078507184982
1772031904082205200,3.281205078125,1.3624292612075806,-0.3023758828639984,0.2936141788959503
1772031904092154000,3.291154052734375,1.2120107412338257,-0.6609029173851013,0.5039204955101013
1772031904102103000,3.30110302734375,1.0595948696136475,-0.857875406742096,0.5904647707939148
1772031904112052200,3.31105224609375,0.936032235622406,-0.7693130373954773,0.5523014068603516
1772031904122001200,3.321001220703125,0.9295991063117981,-0.34700652956962585,0.3134709596633911
1772031904131950000,3.3309501953125,1.0934025049209595,0.3508913516998291,-0.20487596094608307
1772031904141898200,3.340898193359375,1.3695294857025146,1.2371373176574707,-0.9723622798919678
1772031904151847200,3.35084716796875,1.6327877044677734,1.9557691812515259,-1.8454629182815552
1772031904161796000,3.360796142578125,1.8117084503173828,2.265322685241699,-2.5813915729522705
1772031904171745000,3.3707451171875,1.8305336236953735,2.130943536758423,-2.9721603393554688
1772031904181694000,3.38069384765625,1.6990538835525513,1.5857137441635132,-2.951270818710327
1772031904191643000,3.390642822265625,1.4006373882293701,0.8349452018737793,-2.505908727645874
1772031904201592300,3.40059228515625,0.9682570099830627,0.0957571491599083,-1.7832462787628174
1772031904211541200,3.410541259765625,0.5091655254364014,-0.5055189728736877,-0.9949039220809937
1772031904221490200,3.420490234375,0.23201942443847656,-0.9300202131271362,-0.295397013425827
1772031904231439000,3.430439208984375,0.06700924783945084,-1.105066180229187,0.254722535610199
1772031904241388000,3.440387939453125,-0.02851034887135029,-1.070040225982666,0.6111853122711182
1772031904251336200,3.450336181640625,-0.055776678025722504,-0.8955848813056946,0.7685040831565857
1772031904261285000,3.46028515625,-0.023006746545433998,-0.5942983031272888,0.778800904750824
1772031904271233800,3.47023388671875,0.05827159062027931,-0.25948894023895264,0.6980946063995361
1772031904281182700,3.4801826171875,0.14815913140773773,0.054782699793577194,0.6024112701416016
1772031904291131600,3.490131591796875,0.2401110678911209,0.311806321144104,0.49752792716026306
1772031904301080600,3.50008056640625,0.3471379280090332,0.4906080365180969,0.3691270649433136
1772031904311029800,3.51002978515625,0.4629835784435272,0.621370255947113,0.21269109845161438
1772031904320978700,3.519978759765625,0.5836050510406494,0.6950069665908813,0.05404207855463028
1772031904330927600,3.529927734375,0.717754065990448,0.7016243934631348,-0.0919438898563385
1772031904340876800,3.539876708984375,0.8705641031265259,0.6545125246047974,-0.21884484589099884
1772031904350825700,3.54982568359375,1.0305134057998657,0.5749607682228088,-0.3036079406738281
1772031904360774700,3.559774658203125,1.200982689857483,0.4545201063156128,-0.33454692363739014
1772031904370723800,3.569723876953125,1.3796818256378174,0.3150610029697418,-0.32869890332221985
1772031904380671700,3.579671630859375,1.5466761589050293,0.17694386839866638,-0.29435956478118896
1772031904390620700,3.58962060546875,1.6882672309875488,0.10085034370422363,-0.25421127676963806
1772031904400569600,3.599569580078125,1.7821955680847168,0.06617812067270279,-0.21362897753715515
1772031904410518500,3.6095185546875,1.8222888708114624,0.05720670521259308,-0.1529398113489151
1772031904420467700,3.6194677734375,1.8131829500198364,0.03758666291832924,-0.06556949019432068
1772031904430417000,3.6294169921875,1.7674702405929565,-0.010710621252655983,0.02311819978058338
1772031904440365800,3.63936572265625,1.6987433433532715,-0.07300648838281631,0.10445699840784073
1772031904450314800,3.649314697265625,1.6197609901428223,-0.13767942786216736,0.16254809498786926
1772031904460263700,3.659263671875,1.538926362991333,-0.22036391496658325,0.2027735412120819
1772031904470212600,3.669212646484375,1.4511535167694092,-0.3272373378276825,0.22800569236278534
1772031904480161800,3.679161865234375,1.3580912351608276,-0.43896201252937317,0.2476678043603897
1772031904490109700,3.689109619140625,1.2565488815307617,-0.5318747162818909,0.2384726107120514
1772031904500058600,3.69905859375,1.14640212059021,-0.565781831741333,0.21069850027561188
1772031904510007600,3.709007568359375,1.0304734706878662,-0.5431627035140991,0.15557526051998138
1772031904519956700,3.718956787109375,0.903297483921051,-0.4904310405254364,0.089609295129776
1772031904529906000,3.728906005859375,0.7637730836868286,-0.4151220917701721,0.02874738909304142
1772031904539854800,3.738854736328125,0.6145479083061218,-0.3254561126232147,-0.020430808886885643
1772031904549803800,3.7488037109375,0.4694514870643616,-0.2480376660823822,-0.04724321514368057
1772031904559752700,3.758752685546875,0.34111642837524414,-0.19930021464824677,-0.04564851522445679
1772031904569701600,3.76870166015625,0.19860652089118958,-0.2238798290491104,-0.011821741238236427
1772031904579650600,3.778650634765625,0.03925788030028343,-0.27647778391838074,0.02606705017387867
1772031904589599500,3.788599609375,-0.1199641227722168,-0.29054149985313416,0.05816858261823654
1772031904599549000,3.798548828125,-0.26120275259017944,-0.29047706723213196,0.08613842725753784
1772031904609496800,3.808496826171875,-0.37883859872817993,-0.28116706013679504,0.12031009793281555
1772031904619445800,3.81844580078125,-0.4920482337474823,-0.2791880667209625,0.16200001537799835
1772031904629394700,3.828394775390625,-0.6096230149269104,-0.3172470033168793,0.21335305273532867
1772031904639343600,3.838343505859375,-0.7292605042457581,-0.41218122839927673,0.2836109697818756
1772031904649292800,3.848292724609375,-0.8426003456115723,-0.6008153557777405,0.3777785897254944
1772031904659241700,3.85824169921875,-0.9361172914505005,-0.84898841381073,0.49991434812545776
1772031904669190700,3.868190673828125,-0.9901041984558105,-0.9669753313064575,0.5886119604110718
1772031904679139600,3.8781396484375,-0.9656305909156799,-0.8700423836708069,0.5713248252868652
1772031904689088800,3.8880888671875,-0.886320173740387,-0.7266185879707336,0.48041316866874695
1772031904699037700,3.89803759765625,-0.7949846982955933,-0.5937380790710449,0.3641811013221741
1772031904708987000,3.90798681640625,-0.7255433797836304,-0.46558305621147156,0.23742711544036865
1772031904718935800,3.917935791015625,-0.6821562647819519,-0.30014535784721375,0.10993334650993347
1772031904728884700,3.927884765625,-0.6498034000396729,-0.08459340035915375,-0.00830746628344059
1772031904738832600,3.93783251953125,-0.6057528853416443,0.1632574200630188,-0.12176105380058289
1772031904748781600,3.947781494140625,-0.5509984493255615,0.4015708565711975,-0.23688144981861115
1772031904758730800,3.957730712890625,-0.5011606216430664,0.5704134106636047,-0.35544830560684204
1772031904768679700,3.9676796875,-0.44441884756088257,0.6142383813858032,-0.47694963216781616
1772031904778628900,3.97762890625,-0.3703318238258362,0.5533143281936646,-0.6217920780181885
1772031904788577800,3.987577880859375,-0.25691401958465576,0.40949076414108276,-0.778222382068634
1772031904798526700,3.997526611328125,-0.12063874304294586,0.21052145957946777,-0.9276893734931946
1772031904808475600,4.0074755859375,-0.004508499521762133,-0.0006224107928574085,-1.0501433610916138
1772031904818424600,4.017424560546875,0.07542068511247635,-0.17623046040534973,-1.157578468322754
1772031904828373800,4.027373779296875,0.1208474189043045,-0.27353164553642273,-1.2464091777801514
1772031904838322700,4.03732275390625,0.12044236063957214,-0.30952373147010803,-1.2679879665374756
1772031904848271600,4.047271728515625,0.07200746983289719,-0.3530028462409973,-1.2085624933242798
1772031904858219500,4.057219482421875,0.004028950352221727,-0.41872167587280273,-1.0598955154418945
1772031904868168700,4.067168701171875,-0.05817039683461189,-0.5270405411720276,-0.8283066153526306
1772031904878118000,4.077117919921875,-0.08768248558044434,-0.661121129989624,-0.5172861814498901
1772031904888066800,4.08706689453125,-0.09095172584056854,-0.7562615275382996,-0.17110580205917358
1772031904898015700,4.097015625,-0.07658664137125015,-0.7822121977806091,0.14113305509090424
1772031904907964700,4.106964599609375,-0.04834000766277313,-0.7442798614501953,0.36748671531677246
1772031904917913600,4.11691357421875,-0.004248982295393944,-0.6361041069030762,0.502678632736206
1772031904927862500,4.126862548828125,0.06277845054864883,-0.4517342746257782,0.5435753464698792
1772031904937811700,4.136811767578125,0.14517265558242798,-0.2382960021495819,0.5163496136665344
1772031904947761000,4.146760986328125,0.2213509976863861,-0.032854240387678146,0.4529276192188263
1772031904957709800,4.156709716796875,0.27745819091796875,0.17433835566043854,0.334149569272995
1772031904967658800,4.16665869140625,0.3185289204120636,0.3593086004257202,0.1855660080909729
1772031904977607700,4.176607666015625,0.35855036973953247,0.49228209257125854,0.0332007110118866
1772031904987555800,4.186555908203125,0.39299511909484863,0.5582669973373413,-0.09021318703889847
1772031904997504800,4.1965048828125,0.41910287737846375,0.551632285118103,-0.1798594444990158
1772031905007453700,4.20645361328125,0.4253559708595276,0.483095645904541,-0.23520825803279877
1772031905017402600,4.216402587890625,0.4137706756591797,0.39298173785209656,-0.2650409936904907
1772031905027351600,4.2263515625,0.3898473381996155,0.322598934173584,-0.2888801097869873
1772031905037300700,4.23630078125,0.35309863090515137,0.29728612303733826,-0.3043093979358673
1772031905047250000,4.24625,0.30665498971939087,0.3154371976852417,-0.30033931136131287
1772031905057198800,4.25619873046875,0.25917723774909973,0.35256218910217285,-0.25294411182403564
1772031905067147800,4.266147705078125,0.228748619556427,0.378229558467865,-0.17992240190505981
1772031905077096700,4.2760966796875,0.22646468877792358,0.39610788226127625,-0.08042803406715393
1772031905087045600,4.286045654296875,0.2514913082122803,0.40920692682266235,0.025510035455226898
1772031905096994600,4.29599462890625,0.3000492453575134,0.4257725775241852,0.12516924738883972
1772031905106942700,4.305942626953125,0.3615054488182068,0.44964611530303955,0.21588170528411865
1772031905116891600,4.3158916015625,0.4244444668292999,0.4846171736717224,0.2979818880558014
1772031905126840800,4.3258408203125,0.4872141182422638,0.5292368531227112,0.34782689809799194
1772031905136789800,4.335789794921875,0.538560688495636,0.5816417932510376,0.35356760025024414
1772031905146738700,4.34573876953125,0.5610127449035645,0.6190723180770874,0.34429600834846497
1772031905156687600,4.3556875,0.5506531000137329,0.652198314666748,0.34387338161468506
1772031905166636800,4.36563671875,0.5376626253128052,0.6525962948799133,0.3612414598464966
1772031905176585700,4.375585693359375,0.5385395884513855,0.5851940512657166,0.3930196464061737
1772031905186534700,4.38553466796875,0.5537367463111877,0.46130692958831787,0.4226221740245819
1772031905196483600,4.395483642578125,0.5716164112091064,0.34975990653038025,0.39851659536361694
1772031905206432800,4.405432861328125,0.6086927056312561,0.42207106947898865,0.25265705585479736
1772031905216381700,4.415381591796875,0.7020596861839294,0.7754355072975159,-0.17293018102645874
1772031905226331000,4.425330810546875,0.7833208441734314,1.0921199321746826,-0.7974790930747986
1772031905236278800,4.43527880859375,0.8233579993247986,1.1486165523529053,-1.3953737020492554
1772031905246227700,4.445227783203125,0.8621475100517273,0.9738432765007019,-1.7409684658050537
1772031905256176600,4.4551767578125,0.8873170018196106,0.6191110014915466,-1.7142751216888428
1772031905266126000,4.4651259765625,0.8530576825141907,0.14941945672035217,-1.3493095636367798
1772031905276075000,4.475074951171875,0.7517518401145935,-0.38871297240257263,-0.722268283367157
1772031905286024400,4.4850244140625,0.6405867338180542,-0.8377125859260559,0.05010510981082916
1772031905295973400,4.494973388671875,0.5110422968864441,-0.9993363618850708,0.7478969693183899
1772031905305922300,4.50492236328125,0.3790442943572998,-0.9528874158859253,1.244328498840332
1772031905315871200,4.514871337890625,0.3075874149799347,-0.7883440256118774,1.5071505308151245
1772031905325820200,4.524820068359375,0.30815809965133667,-0.5354270339012146,1.5559579133987427
1772031905335769000,4.53476904296875,0.369513601064682,-0.2398155927658081,1.413514494895935
1772031905345718300,4.54471826171875,0.4726869463920593,0.07665568590164185,1.12351655960083
1772031905355667200,4.554667236328125,0.6118573546409607,0.3493580222129822,0.7330878973007202
1772031905365615000,4.564614990234375,0.7687022089958191,0.5462583899497986,0.30497339367866516
1772031905375564000,4.57456396484375,0.9213431477546692,0.6264402866363525,-0.0953817293047905
1772031905385513200,4.58451318359375,1.0442885160446167,0.5968010425567627,-0.42637336254119873
1772031905395462400,4.59446240234375,1.1426286697387695,0.4731220006942749,-0.6603829264640808
1772031905405411300,4.604411376953125,1.1924294233322144,0.2866564989089966,-0.7882712483406067
1772031905415360300,4.6143603515625,1.2119544744491577,0.07499564439058304,-0.7712845206260681
1772031905425309200,4.62430908203125,1.2120587825775146,-0.1245434507727623,-0.6052063703536987
1772031905435258000,4.634258056640625,1.2116731405258179,-0.2729606330394745,-0.33327817916870117
1772031905445207000,4.64420703125,1.222111463546753,-0.3782331645488739,-0.020002437755465508
1772031905455156200,4.65415625,1.2308855056762695,-0.4184620678424835,0.24976219236850739
1772031905465105400,4.66410546875,1.2454326152801514,-0.3907100558280945,0.42605024576187134
1772031905475054300,4.674054443359375,1.2615282535552979,-0.30301162600517273,0.5002187490463257
1772031905485002200,4.684002197265625,1.282470464706421,-0.1906389743089676,0.4946208596229553
1772031905494951200,4.693951171875,1.3099929094314575,-0.06907180696725845,0.4411051571369171
1772031905504900000,4.703900146484375,1.3340984582901,0.03950502723455429,0.3499241769313812
1772031905514849300,4.713849365234375,1.339186429977417,0.12562686204910278,0.2272387146949768
1772031905524798200,4.723798095703125,1.3189691305160522,0.18126393854618073,0.08620574325323105
1772031905534747100,4.7337470703125,1.2775620222091675,0.2129310518503189,-0.059500861912965775
1772031905544696300,4.7436962890625,1.2116034030914307,0.23082676529884338,-0.19618545472621918
1772031905554645200,4.753645263671875,1.1486632823944092,0.26710352301597595,-0.295028418302536
1772031905564594200,4.76359423828125,1.0922913551330566,0.3338783383369446,-0.35227519273757935
1772031905574543400,4.77354345703125,1.0452224016189575,0.4280650317668915,-0.3763884902000427
1772031905584492300,4.7834921875,0.980426013469696,0.5215452313423157,-0.3697376847267151
1772031905594441200,4.793441162109375,0.8953854441642761,0.5998344421386719,-0.32951462268829346
1772031905604390100,4.80339013671875,0.795795202255249,0.6327019333839417,-0.27230799198150635
1772031905614338000,4.813338134765625,0.6858572363853455,0.5879390239715576,-0.2072129100561142
1772031905624287200,4.823287353515625,0.5691340565681458,0.4841551184654236,-0.13601702451705933
1772031905634236200,4.833236083984375,0.45682060718536377,0.354828804731369,-0.0630354955792427
1772031905644185300,4.843185302734375,0.3624020218849182,0.22786322236061096,0.015112871304154396
1772031905654134300,4.85313427734375,0.28401878476142883,0.12338128685951233,0.09819070994853973
1772031905664083200,4.863083251953125,0.21528875827789307,0.05888873338699341,0.1797156184911728
1772031905674032000,4.8730322265625,0.1558464765548706,0.02153283916413784,0.2548644244670868
1772031905683981000,4.88298095703125,0.11275641620159149,-0.004137789364904165,0.3130815029144287
1772031905693930200,4.89293017578125,0.08590056747198105,-0.0431339256465435,0.3366891145706177
1772031905703879200,4.902879150390625,0.062477484345436096,-0.1356278508901596,0.34844130277633667
1772031905713828400,4.912828369140625,0.03957429528236389,-0.2692152261734009,0.3685537576675415
1772031905723777300,4.92277734375,0.015622255392372608,-0.40899458527565,0.4022696018218994
1772031905733726200,4.932726318359375,0.002555987797677517,-0.48520252108573914,0.44737449288368225
1772031905743674400,4.94267431640625,0.00780813954770565,-0.46277397871017456,0.47159644961357117
1772031905753623300,4.952623291015625,0.024384453892707825,-0.34084460139274597,0.4375753700733185
1772031905763572200,4.962572265625,0.03866130858659744,-0.17009148001670837,0.3682780861854553
1772031905773521200,4.972521240234375,0.038850393146276474,0.007816989906132221,0.236911803483963
1772031905783470000,4.982469970703125,0.019550200551748276,0.12601633369922638,0.030787654221057892
1772031905793419000,4.9924189453125,-0.02199564501643181,0.15169161558151245,-0.21643652021884918
1772031905803368400,5.002368408203125,-0.07674551755189896,0.07057758420705795,-0.41038140654563904
1772031905813317400,5.0123173828125,-0.1346634179353714,-0.07499746233224869,-0.4932112991809845
1772031905823266300,5.022266357421875,-0.1887763887643814,-0.24248172342777252,-0.41881394386291504
1772031905833215200,5.03221533203125,-0.24484099447727203,-0.4084046483039856,-0.20502734184265137
1772031905843164200,5.0421640625,-0.295600026845932,-0.5413820743560791,0.10569629073143005
1772031905853113000,5.052113037109375,-0.3584165573120117,-0.6229648590087891,0.4504699110984802
1772031905863062000,5.06206201171875,-0.4131080210208893,-0.6361496448516846,0.762100875377655
1772031905873011200,5.07201123046875,-0.4644646942615509,-0.5838720798492432,0.9758887887001038
1772031905882959000,5.081958984375,-0.5090974569320679,-0.4960668385028839,1.088242769241333
1772031905892908000,5.091907958984375,-0.5304698944091797,-0.39289596676826477,1.10447096824646
1772031905902857200,5.101857177734375,-0.5268367528915405,-0.2692072093486786,1.0390124320983887
1772031905912806400,5.111806396484375,-0.5131776332855225,-0.1572953164577484,0.9026870727539062
1772031905922755300,5.12175537109375,-0.4987773001194,-0.07252901047468185,0.730170488357544
1772031905932704300,5.131704345703125,-0.4907239079475403,-0.0171954445540905,0.5413267612457275
1772031905942653200,5.141653076171875,-0.48673391342163086,0.012929756194353104,0.35406115651130676
1772031905952602000,5.15160205078125,-0.4957923889160156,0.015812095254659653,0.17707625031471252
1772031905962551000,5.161551025390625,-0.5096455812454224,-0.0031795836985111237,0.03177795186638832
1772031905972500200,5.171500244140625,-0.5251758098602295,-0.03987794369459152,-0.06536298245191574
1772031905982449400,5.181449462890625,-0.5321212410926819,-0.059494052082300186,-0.10549576580524445
1772031905992398300,5.1913984375,-0.5347500443458557,-0.059059422463178635,-0.09782373905181885
1772031906002346200,5.20134619140625,-0.5297383666038513,-0.035060249269008636,-0.0698520839214325
1772031906012295200,5.211295166015625,-0.5235691070556641,-0.00409514456987381,-0.03434442728757858
1772031906022244000,5.221244140625,-0.514694333076477,0.013967473991215229,-0.0025615468621253967
1772031906032193300,5.231193359375,-0.49832573533058167,0.017638374119997025,0.023670591413974762
1772031906042142200,5.24114208984375,-0.47372207045555115,0.0017090619076043367,0.047916755080223083
1772031906052091100,5.251091064453125,-0.4364471435546875,-0.02504745125770569,0.059372611343860626
1772031906062040300,5.261040283203125,-0.384858101606369,-0.0648907944560051,0.059745438396930695
1772031906071989200,5.2709892578125,-0.3267793655395508,-0.11719448119401932,0.0473894327878952
1772031906081938200,5.280938232421875,-0.2731664180755615,-0.19451838731765747,0.026233699172735214
1772031906091887400,5.290887451171875,-0.2220286726951599,-0.2907959222793579,0.013508317992091179
1772031906101836300,5.300836181640625,-0.1795150190591812,-0.37731388211250305,-0.004318667110055685
1772031906111785200,5.31078515625,-0.14251890778541565,-0.42803990840911865,-0.019779648631811142
1772031906121734100,5.320734130859375,-0.12060568481683731,-0.4285202622413635,-0.04186351224780083
1772031906131683000,5.33068310546875,-0.09022220969200134,-0.3740096092224121,-0.07434182614088058
1772031906141631200,5.34063134765625,-0.06388303637504578,-0.3001877963542938,-0.12928372621536255
1772031906151580200,5.350580078125,-0.036080967634916306,-0.20507432520389557,-0.21278288960456848
1772031906161529300,5.360529296875,-0.0026705460622906685,-0.11138884723186493,-0.3193734884262085
1772031906171478300,5.370478271484375,0.03736022859811783,-0.03215420991182327,-0.4453945457935333
1772031906181427200,5.38042724609375,0.0665426179766655,0.015452053397893906,-0.5513116717338562
1772031906191376100,5.390376220703125,0.07878090441226959,0.056552086025476456,-0.6347447633743286
1772031906201325000,5.400324951171875,0.07409439980983734,0.05725724250078201,-0.6605879068374634
1772031906211274200,5.410274169921875,0.0630718469619751,0.005643850192427635,-0.6142933368682861
1772031906221223200,5.42022314453125,0.056472159922122955,-0.06767900288105011,-0.5205250978469849
1772031906231172400,5.43017236328125,0.053410325199365616,-0.1220165491104126,-0.40208685398101807
1772031906241121300,5.440121337890625,0.06179853901267052,-0.15243828296661377,-0.2837354242801666
1772031906251070200,5.4500703125,0.07635857164859772,-0.1479812115430832,-0.17904630303382874
1772031906261019100,5.46001904296875,0.09188786149024963,-0.09970949590206146,-0.10077225416898727
1772031906270967600,5.469967529296875,0.10932064801454544,-0.015581035986542702,-0.05899790674448013
1772031906280916500,5.47991650390625,0.12970180809497833,0.07216653227806091,-0.029805701225996017
1772031906290865400,5.489865478515625,0.1476999819278717,0.1527481973171234,-0.002391386777162552
1772031906300814300,5.499814453125,0.16443519294261932,0.22045211493968964,0.024785272777080536
1772031906310763300,5.50976318359375,0.1723029613494873,0.26289889216423035,0.038010530173778534
1772031906320712400,5.51971240234375,0.17246174812316895,0.2868579924106598,0.036026809364557266
1772031906330661600,5.52966162109375,0.16202189028263092,0.2972608208656311,0.024354439228773117
1772031906340610600,5.539610595703125,0.13820359110832214,0.30159956216812134,0.0038435389287769794
1772031906350559500,5.5495595703125,0.10170150548219681,0.2967113256454468,-0.005631189327687025
1772031906360508400,5.55950830078125,0.059646546840667725,0.28500300645828247,0.006990577559918165
1772031906370457300,5.569457275390625,0.02561134845018387,0.2784564197063446,0.034202225506305695
1772031906380406300,5.57940625,0.0001289662905037403,0.28982824087142944,0.07866358757019043
1772031906390355500,5.58935546875,-0.018877215683460236,0.30526819825172424,0.13985450565814972
1772031906400303400,5.599303466796875,-0.038045287132263184,0.25266292691230774,0.22951136529445648
1772031906410252500,5.60925244140625,-0.060795340687036514,0.14857326447963715,0.3235912621021271
1772031906420201500,5.619201416015625,-0.049800027161836624,0.1374727040529251,0.3645504117012024
1772031906430150400,5.629150390625,0.043341901153326035,0.38222837448120117,0.2700052559375763
1772031906440099600,5.639099609375,0.2768872380256653,0.8570635914802551,-0.0028168433345854282
1772031906450048500,5.649048583984375,0.4975748658180237,1.3213939666748047,-0.37555208802223206
1772031906459997400,5.65899755859375,0.6449303030967712,1.7183443307876587,-0.7842747569084167
1772031906469946400,5.6689462890625,0.7229049801826477,1.8953018188476562,-1.1176944971084595
1772031906479895300,5.678895263671875,0.7365074157714844,1.8289059400558472,-1.2662286758422852
1772031906489844500,5.688844482421875,0.7130572199821472,1.5371414422988892,-1.1943199634552002
1772031906499793400,5.69879345703125,0.6607837080955505,1.0822769403457642,-0.9603462219238281
1772031906509742600,5.70874267578125,0.5628528594970703,0.5800342559814453,-0.6413320302963257
1772031906519691500,5.71869140625,0.3960307240486145,0.10729241371154785,-0.2613371014595032
1772031906529640400,5.728640380859375,0.19708485901355743,-0.2966329753398895,0.15038973093032837
1772031906539588400,5.73858837890625,0.004452025983482599,-0.6029453277587891,0.5236836671829224
1772031906549537500,5.74853759765625,-0.13115373253822327,-0.743500828742981,0.7813229560852051
1772031906559486500,5.758486572265625,-0.18909455835819244,-0.6995580792427063,0.8794812560081482
1772031906569435400,5.768435302734375,-0.15189339220523834,-0.5294830203056335,0.8429815769195557
1772031906579384600,5.778384521484375,-0.02765198051929474,-0.29665499925613403,0.7132514119148254
1772031906589333500,5.78833349609375,0.145654559135437,-0.07574018836021423,0.5320542454719543
1772031906599282400,5.798282470703125,0.32985901832580566,0.08376801013946533,0.32387804985046387
1772031906609231400,5.8082314453125,0.4948919117450714,0.18717242777347565,0.11666227877140045
1772031906619180500,5.8181806640625,0.6297599673271179,0.24728704988956451,-0.07260916382074356
1772031906629129500,5.82812939453125,0.7161129713058472,0.22162535786628723,-0.21709470450878143
1772031906639078400,5.838078369140625,0.7381632924079895,0.1163986399769783,-0.3160375952720642
1772031906649027300,5.84802734375,0.6839035153388977,-0.013605697080492973,-0.368243008852005
1772031906658976500,5.8579765625,0.5611225962638855,-0.14112989604473114,-0.36672893166542053
1772031906668924700,5.867924560546875,0.4111511707305908,-0.2746378779411316,-0.3018583357334137
1772031906678873600,5.87787353515625,0.28377223014831543,-0.40403056144714355,-0.19527080655097961
1772031906688822500,5.887822509765625,0.20665904879570007,-0.4957016110420227,-0.07522110641002655
1772031906698771500,5.897771484375,0.18048164248466492,-0.5286076068878174,0.012632336467504501
1772031906708720400,5.907720458984375,0.17944353818893433,-0.5076048374176025,0.07008151710033417
1772031906718669300,5.91766943359375,0.17990949749946594,-0.38465604186058044,0.07991380244493484
1772031906728618500,5.927618408203125,0.19046786427497864,-0.2024817019701004,0.043582163751125336
1772031906738567400,5.9375673828125,0.1948375552892685,0.009966326877474785,-0.013604545965790749
1772031906748516600,5.9475166015625,0.20014576613903046,0.1959628313779831,-0.06798336654901505
1772031906758465500,5.957465576171875,0.2008516788482666,0.2636685371398926,-0.13908551633358002
1772031906768414500,5.96741455078125,0.18691562116146088,0.2389751672744751,-0.24506442248821259
1772031906778363400,5.97736328125,0.1282825917005539,0.18098635971546173,-0.38087737560272217
1772031906788312300,5.987312255859375,0.024424362927675247,0.11862097680568695,-0.5134620666503906
1772031906798260500,5.997260498046875,-0.09195472300052643,0.07687504589557648,-0.6040207743644714
1772031906808209400,6.00720947265625,-0.19337882101535797,0.049832239747047424,-0.6260073184967041
1772031906818158300,6.017158447265625,-0.26468753814697266,0.03742071986198425,-0.5805712342262268
1772031906828107300,6.027107177734375,-0.32762789726257324,0.05633928254246712,-0.48846927285194397
1772031906838056400,6.037056396484375,-0.394677996635437,0.11703633517026901,-0.3740992844104767
1772031906848005600,6.047005615234375,-0.46549251675605774,0.18325449526309967,-0.25581204891204834
1772031906857954600,6.05695458984375,-0.5349005460739136,0.21280209720134735,-0.14355023205280304
1772031906867903500,6.066903564453125,-0.5959415435791016,0.19139453768730164,-0.04543885588645935
1772031906877852400,6.076852294921875,-0.6433902382850647,0.12710273265838623,0.03732689842581749
1772031906887801300,6.08680126953125,-0.6781090497970581,0.040095388889312744,0.12314726412296295
1772031906897750300,6.096750244140625,-0.6909199953079224,-0.07427197694778442,0.21363230049610138
1772031906907699500,6.106699462890625,-0.6805855631828308,-0.1806335747241974,0.29135745763778687
1772031906917648600,6.116648681640625,-0.6684837341308594,-0.2377912402153015,0.3536812663078308
1772031906927597600,6.12659765625,-0.6453216671943665,-0.2499147355556488,0.38109371066093445
1772031906937545500,6.13654541015625,-0.6116328239440918,-0.23707567155361176,0.3707819879055023
1772031906947494400,6.146494384765625,-0.5832720398902893,-0.2023581713438034,0.3141174018383026
1772031906957443600,6.156443603515625,-0.5506982803344727,-0.1675986498594284,0.22097352147102356
1772031906967392500,6.166392578125,-0.5316162109375,-0.15654386579990387,0.12220566719770432
1772031906977341400,6.176341552734375,-0.5318213105201721,-0.14258500933647156,0.038417793810367584
1772031906987290400,6.186290283203125,-0.5383697748184204,-0.15777407586574554,-0.0010172296315431595
1772031906997239300,6.1962392578125,-0.5687310695648193,-0.22374863922595978,0.02204933576285839
1772031907007188500,6.2061884765625,-0.6128239631652832,-0.30452898144721985,0.09524711221456528
1772031907017137400,6.216137451171875,-0.6662477254867554,-0.3902457058429718,0.19626875221729279
1772031907027086600,6.226086669921875,-0.7318432927131653,-0.4500027894973755,0.3116973340511322
1772031907037035500,6.236035400390625,-0.7938658595085144,-0.47868356108665466,0.4365707039833069
1772031907046984400,6.245984375,-0.8632577061653137,-0.5126710534095764,0.5923664569854736
1772031907056933400,6.255933349609375,-0.9215836524963379,-0.47748634219169617,0.7548089623451233
1772031907066881500,6.265881591796875,-0.9459081888198853,-0.3196074962615967,0.8826438784599304
1772031907076830500,6.27583056640625,-0.9226709604263306,-0.014373937621712685,0.9366269111633301
1772031907086779400,6.285779296875,-0.8234943151473999,0.43191272020339966,0.8406990170478821
1772031907096728600,6.295728515625,-0.6444545388221741,0.9509100914001465,0.5604305863380432
1772031907106677500,6.305677490234375,-0.45551469922065735,1.3585782051086426,0.1806558519601822
1772031907116626400,6.31562646484375,-0.31069788336753845,1.5043615102767944,-0.18677687644958496
1772031907126575400,6.325575439453125,-0.2521006166934967,1.3103160858154297,-0.45234301686286926
1772031907136524500,6.335524658203125,-0.3021095097064972,0.8609156012535095,-0.5328517556190491
1772031907146473500,6.345473388671875,-0.4444405436515808,0.2847750782966614,-0.4410150647163391
1772031907156422400,6.35542236328125,-0.6502860188484192,-0.21538370847702026,-0.23574145138263702
1772031907166371300,6.365371337890625,-0.8534489870071411,-0.5829947590827942,0.029244668781757355
1772031907176320500,6.375320556640625,-1.0057448148727417,-0.7923645377159119,0.30807486176490784
1772031907186269400,6.38526953125,-1.0967037677764893,-0.8807580471038818,0.5603044033050537
1772031907196218400,6.39521826171875,-1.14817476272583,-0.8434224128723145,0.7665107846260071
1772031907206166500,6.40516650390625,-1.164856195449829,-0.7239205241203308,0.892866849899292
1772031907216115500,6.415115478515625,-1.1300009489059448,-0.5619680285453796,0.9229720830917358
1772031907226064400,6.425064453125,-1.0561782121658325,-0.39623525738716125,0.8577134013175964
1772031907236013300,6.435013427734375,-0.946589469909668,-0.2720637619495392,0.7123690843582153
1772031907245962500,6.44496240234375,-0.823686957359314,-0.19471412897109985,0.5060712695121765
1772031907255911400,6.454911376953125,-0.7053165435791016,-0.14770136773586273,0.26108354330062866
1772031907265859300,6.464859375,-0.6211236119270325,-0.1332944631576538,0.009832421317696571
1772031907275808300,6.474808349609375,-0.5776758193969727,-0.17036782205104828,-0.20816020667552948
1772031907285757200,6.484757080078125,-0.565021812915802,-0.21352887153625488,-0.38189709186553955
1772031907295706400,6.494706298828125,-0.5579663515090942,-0.23189561069011688,-0.49965760111808777
1772031907305655300,6.5046552734375,-0.5467549562454224,-0.2129666656255722,-0.562289297580719
1772031907315604500,6.5146044921875,-0.5373092889785767,-0.20268762111663818,-0.5624219179153442
1772031907325553400,6.524553466796875,-0.5403509140014648,-0.21344467997550964,-0.49845245480537415
1772031907335502300,6.53450244140625,-0.5503148436546326,-0.25950106978416443,-0.4032803773880005
1772031907345450500,6.544450439453125,-0.5472878813743591,-0.2931050956249237,-0.30792295932769775
1772031907355399400,6.5543994140625,-0.5288055539131165,-0.3247031569480896,-0.21641921997070312
1772031907365348400,6.564348388671875,-0.4915125072002411,-0.36091068387031555,-0.13250435888767242
1772031907375297300,6.57429736328125,-0.45290109515190125,-0.37903156876564026,-0.07317574322223663
1772031907385246200,6.58424609375,-0.4159183204174042,-0.39086800813674927,-0.020581509917974472
1772031907395195100,6.594195068359375,-0.38769882917404175,-0.4153977334499359,0.010830936953425407
1772031907405144600,6.60414453125,-0.3658566474914551,-0.44233161211013794,0.007475619670003653
1772031907415093500,6.614093505859375,-0.3547910451889038,-0.46017196774482727,-0.029517747461795807
1772031907425042400,6.62404248046875,-0.340471476316452,-0.4655957818031311,-0.09798309206962585
1772031907434991400,6.633991455078125,-0.32719624042510986,-0.4567878544330597,-0.18989577889442444
1772031907444940300,6.643940185546875,-0.3230518102645874,-0.43013495206832886,-0.28637784719467163
1772031907454889200,6.65388916015625,-0.32150256633758545,-0.39423826336860657,-0.3559591770172119
1772031907464838100,6.663838134765625,-0.31905752420425415,-0.3630470335483551,-0.4049203395843506
1772031907474786300,6.673786376953125,-0.30786922574043274,-0.32994136214256287,-0.4319711923599243
1772031907484735200,6.6837353515625,-0.2958786189556122,-0.2657279968261719,-0.45462164282798767
1772031907494684200,6.69368408203125,-0.280375599861145,-0.20313586294651031,-0.4603433310985565
1772031907504633300,6.70363330078125,-0.27204975485801697,-0.1537637859582901,-0.45230698585510254
1772031907514582300,6.713582275390625,-0.24855029582977295,-0.11475479602813721,-0.41647517681121826
1772031907524531500,6.723531494140625,-0.21648690104484558,-0.11030944436788559,-0.3497595191001892
1772031907534480400,6.73348046875,-0.19279736280441284,-0.13533508777618408,-0.2539147436618805
1772031907544429300,6.74342919921875,-0.17884665727615356,-0.16030248999595642,-0.13724619150161743
1772031907554378200,6.753378173828125,-0.18874526023864746,-0.18063238263130188,-0.02787403017282486
1772031907564327200,6.7633271484375,-0.20923002064228058,-0.15004171431064606,0.053633879870176315
1772031907574276400,6.7732763671875,-0.22467735409736633,-0.11740055680274963,0.10686156898736954
1772031907584225500,6.7832255859375,-0.2325938642024994,-0.10572046041488647,0.1428041160106659
1772031907594174500,6.793174560546875,-0.23348376154899597,-0.0929269790649414,0.16002976894378662
1772031907604123400,6.803123291015625,-0.22460132837295532,-0.054354019463062286,0.16495181620121002
1772031907614071300,6.8130712890625,-0.20551113784313202,-0.018406357616186142,0.1635342538356781
1772031907624020200,6.823020263671875,-0.1808827668428421,0.009034054353833199,0.15132366120815277
1772031907633969400,6.832969482421875,-0.16051681339740753,0.03131422400474548,0.1410049945116043
1772031907643918300,6.84291845703125,-0.1492100954055786,0.049441829323768616,0.12885671854019165
1772031907653867300,6.8528671875,-0.14860109984874725,0.04822471737861633,0.12696412205696106
1772031907663816400,6.86281640625,-0.15028874576091766,0.0009067379869520664,0.14587870240211487
1772031907673765400,6.872765380859375,-0.15797409415245056,-0.03945494815707207,0.18016985058784485
1772031907683714300,6.88271435546875,-0.1382102370262146,-0.054718323051929474,0.21560081839561462
1772031907693663200,6.892663330078125,-0.09344377368688583,-0.05998479574918747,0.22868318855762482
1772031907703612400,6.9026123046875,-0.01701718010008335,0.06345884501934052,0.16832609474658966
1772031907713561300,6.912561279296875,0.10754389315843582,0.35194361209869385,-0.008053699508309364
1772031907723510300,6.92251025390625,0.2605164051055908,0.7533232569694519,-0.31247004866600037
1772031907733459200,6.932459228515625,0.3860185742378235,1.1486419439315796,-0.6801251769065857
1772031907743407400,6.942407470703125,0.4853009581565857,1.4462107419967651,-1.025098204612732
1772031907753356500,6.9523564453125,0.5231035947799683,1.5237394571304321,-1.265215516090393
1772031907763305500,6.962305419921875,0.45905351638793945,1.2939214706420898,-1.3257923126220703
1772031907773254400,6.97225439453125,0.2890719175338745,0.7956722378730774,-1.1569201946258545
1772031907783203300,6.982203369140625,0.030738651752471924,0.18634392321109772,-0.7991189360618591
1772031907793152300,6.99215234375,-0.280749648809433,-0.4141438901424408,-0.31721436977386475
1772031907803101200,7.00210107421875,-0.5706003904342651,-0.857892632484436,0.2264305204153061
1772031907813050400,7.01205029296875,-0.7707003951072693,-1.0688518285751343,0.7505670785903931
1772031907822999300,7.021999267578125,-0.8633171319961548,-1.0748679637908936,1.1859766244888306
1772031907832948500,7.031948486328125,-0.8554739356040955,-0.8837599158287048,1.477664828300476
1772031907842897400,7.0418974609375,-0.7610478401184082,-0.581304132938385,1.6415988206863403
1772031907852846300,7.051846435546875,-0.583636999130249,-0.2670515775680542,1.6855603456497192
1772031907862795300,7.061795166015625,-0.351965993642807,0.03553225100040436,1.6066648960113525
1772031907872744400,7.071744384765625,-0.12185038626194,0.31823602318763733,1.419042706489563
1772031907882692400,7.0816923828125,0.07928991317749023,0.5462228655815125,1.143363118171692
1772031907892641300,7.091641357421875,0.2283858060836792,0.6715008616447449,0.7920228242874146
1772031907902590200,7.101590087890625,0.3101446032524109,0.6681263446807861,0.40669482946395874
1772031907912539100,7.1115390625,0.3157026469707489,0.5871496200561523,0.037700437009334564
1772031907922488600,7.121488525390625,0.27369019389152527,0.44089552760124207,-0.295040488243103
1772031907932437500,7.1314375,0.20588985085487366,0.24622097611427307,-0.5568788051605225
1772031907942386400,7.141386474609375,0.13062810897827148,0.022062979638576508,-0.7269338369369507
1772031907952335400,7.15133544921875,0.07196534425020218,-0.21074405312538147,-0.7972607612609863
1772031907962284300,7.1612841796875,0.050268299877643585,-0.367725670337677,-0.798922061920166
1772031907972233200,7.171233154296875,0.0630609318614006,-0.42727965116500854,-0.7377251982688904
1772031907982182100,7.18118212890625,0.11746318638324738,-0.3959347605705261,-0.6296176314353943
1772031907992131300,7.19113134765625,0.19695812463760376,-0.31511446833610535,-0.49531593918800354
1772031908002080500,7.20108056640625,0.2736254632472992,-0.2048206925392151,-0.3547920882701874
1772031908012029400,7.211029541015625,0.32547467947006226,-0.11784245073795319,-0.23919814825057983
1772031908021977300,7.220977294921875,0.32920682430267334,-0.09254641830921173,-0.181020587682724
1772031908031926300,7.23092626953125,0.30330780148506165,-0.11760835349559784,-0.18474173545837402
1772031908041875500,7.24087548828125,0.2585128843784332,-0.16741026937961578,-0.2338925004005432
1772031908051824400,7.250824462890625,0.21189919114112854,-0.1981586217880249,-0.31559571623802185
1772031908061773300,7.260773193359375,0.16010203957557678,-0.20613080263137817,-0.3977329134941101
1772031908071722200,7.27072216796875,0.11306406557559967,-0.21005837619304657,-0.4562811553478241
1772031908081671200,7.280671142578125,0.06988410651683807,-0.21487949788570404,-0.47518694400787354
1772031908091620400,7.290620361328125,0.04130154475569725,-0.21845880150794983,-0.46719563007354736
1772031908101569500,7.300569580078125,0.020519569516181946,-0.22801342606544495,-0.4316325783729553
1772031908111518500,7.3105185546875,0.008712388575077057,-0.2316690981388092,-0.3656642735004425
1772031908121467400,7.32046728515625,0.0010118582285940647,-0.18814532458782196,-0.28022900223731995
1772031908131416300,7.330416259765625,-0.011911184526979923,-0.11912385374307632,-0.20583951473236084
1772031908141365200,7.340365234375,-0.03323937579989433,-0.06156069040298462,-0.1492297649383545
1772031908151314200,7.350314208984375,-0.041794199496507645,-0.016019336879253387,-0.11801725625991821
1772031908161262300,7.360262451171875,-0.02690153941512108,-0.016682995483279228,-0.1030404344201088
1772031908171211300,7.370211181640625,0.013523386791348457,-0.07025475800037384,-0.08181420713663101
1772031908181160400,7.380160400390625,0.08119084686040878,-0.13404333591461182,-0.04925812780857086
1772031908191109400,7.390109375,0.12669911980628967,-0.20259268581867218,0.018536414951086044
1772031908201058300,7.400058349609375,0.12960995733737946,-0.22191311419010162,0.11161629110574722
1772031908211007200,7.41000732421875,0.08893412351608276,-0.259311705827713,0.24100466072559357
1772031908220956400,7.419956298828125,0.01647137850522995,-0.313596248626709,0.38902637362480164
1772031908230905300,7.4299052734375,-0.048735909163951874,-0.2986484169960022,0.496782124042511
1772031908240854300,7.439854248046875,-0.10755075514316559,-0.2119433581829071,0.5274282097816467
1772031908250803200,7.44980322265625,-0.1716744750738144,-0.1401175558567047,0.4643005132675171
1772031908260752400,7.45975244140625,-0.21876129508018494,-0.09056970477104187,0.3653033673763275
1772031908270705200,7.469705078125,-0.24247196316719055,-0.06029623746871948,0.26144519448280334
1772031908280654000,7.479654052734375,-0.23889108002185822,-0.04200245067477226,0.15622341632843018
1772031908290603300,7.489603271484375,-0.23974303901195526,-0.038969412446022034,0.05422390624880791
1772031908300551200,7.49955126953125,-0.2606256902217865,-0.06991081684827805,-0.04969903081655502
1772031908310500000,7.5095,-0.29788440465927124,-0.11455396562814713,-0.1504814177751541
1772031908320449000,7.519448974609375,-0.3361058235168457,-0.15335862338542938,-0.22155267000198364
1772031908330398200,7.529398193359375,-0.3603026866912842,-0.13107196986675262,-0.23002798855304718
1772031908340347100,7.53934716796875,-0.4128633439540863,-0.09492594748735428,-0.17501375079154968
1772031908350296000,7.549296142578125,-0.4464740753173828,-0.07885859906673431,-0.08609391003847122
