time,seconds_elapsed,z,y,x
1772093649163738000,0.072738037109375,0.06543722555041313,-0.01800625161072239,0.00819844009266235
1772093649173688000,0.08268798828125,0.07381926944851874,-0.01718547327974811,0.008310038107819854
1772093649183637200,0.09263720703125,0.06917816564440726,-0.011949234860390423,-0.0038991263303905723
1772093649193587000,0.1025869140625,0.08429448623359202,-0.00919681261340156,0.0019737477583810685
1772093649203537200,0.112537109375,0.07352233232855797,-0.014993826720677315,0.0024931411231402306
1772093649213486000,0.122486083984375,0.07113105327785015,-0.017913184766098857,0.0013552322675473988
1772093649223436000,0.13243603515625,0.05436988809108734,-0.014943174245674162,0.010076198396971449
1772093649233386000,0.142385986328125,0.061247957167029375,-0.024434805087186394,0.005427203547349199
1772093649243335000,0.1523349609375,0.0646890375316143,-0.01704617440691218,0.0016628095125313846
1772093649253285000,0.16228515625,0.06499006630480289,-0.023814663894847033,0.003961496642651036
1772093649263235000,0.172235107421875,0.06648761138617992,-0.01638765569925308,0.003964757178816944
1772093649273184000,0.18218408203125,0.07082885546088219,-0.013307535867858678,0.010331963256327435
1772093649283134200,0.19213427734375,0.06887772139310837,-0.017217695048917084,0.010295585901848972
1772093649293085700,0.202085693359375,0.06812894885241985,-0.018067352414503694,0.00562335630711168
1772093649303035000,0.212034912109375,0.07291852121651173,-0.01934670643424615,0.001186259775655344
1772093649312984800,0.22198486328125,0.06378770477771759,-0.016944084005616603,0.0006800181534141301
1772093649322934000,0.23193408203125,0.06573240910470485,-0.00947818683804944,-0.007583459132630378
1772093649332883700,0.2418837890625,0.06767711343169212,-0.019349172385968266,0.005912648976733908
1772093649342833700,0.251833740234375,0.07081833406686783,-0.016068013557139785,-0.0011451240476686507
1772093649352782800,0.261782958984375,0.06378653573393821,-0.023006397985573857,0.0017136081180069594
1772093649362732800,0.27173291015625,0.06737900726795196,-0.02205117961997166,0.002231384914414957
1772093649372682800,0.281682861328125,0.07037292838692664,-0.01684477008329704,0.0012934190777130425
1772093649382631700,0.291631591796875,0.06902268282175064,-0.01147860340764746,-0.0008615669990889727
1772093649392582000,0.301581787109375,0.06692658732533455,-0.00937321035992354,0.0013265541623346507
1772093649402531800,0.31153173828125,0.06707505588531494,-0.011159381390642374,0.0049887299316935235
1772093649412480800,0.321480712890625,0.05779752445220947,-0.017949169394932685,0.00852947127847001
1772093649422430700,0.3314306640625,0.06273790346384048,-0.018824052533321083,0.002028327489830553
1772093649432381000,0.341380859375,0.07141863804757595,-0.01545581820923835,0.006924100174754858
1772093649442329900,0.351329833984375,0.06977087084054946,-0.019650055028684436,0.004408317961543798
1772093649452279800,0.36127978515625,0.06633037499785423,-0.015947766444645822,-0.0011418269788846373
1772093649462228700,0.371228759765625,0.06902502090930938,-0.019796422963123766,0.007788927710009739
1772093649472179000,0.381178955078125,0.06962590941190719,-0.01642815210642293,0.005135600189631805
1772093649482129000,0.39112890625,0.06378945834338665,-0.012780059661343693,0.008103117358870805
1772093649492077800,0.401077880859375,0.06573182458281517,-0.020481080759037283,0.0016415840614121405
1772093649502027800,0.41102783203125,0.07006897700428963,-0.02054855650467798,0.011692958544380962
1772093649511978000,0.42097802734375,0.06467851613759994,-0.01398541686311364,0.008589055978599935
1772093649521927000,0.430927001953125,0.06751753895580768,-0.013624456329923122,0.005997048457711935
1772093649531876900,0.440876953125,0.06347673913240433,-0.018477485851664095,0.0075526895350310945
1772093649541826800,0.450826904296875,0.06632219169139862,-0.02176730291098356,0.00044059250750578936
1772093649551776000,0.46077587890625,0.05794131683707237,-0.015078838123008607,-0.0074589468369726086
1772093649561726000,0.470725830078125,0.07455109085440635,-0.02093140007611364,0.002616082516219467
1772093649571675000,0.4806748046875,0.0592863017052412,-0.014176500722113995,-0.000702869306039065
1772093649581624800,0.490624755859375,0.07409750186800956,-0.014807345971558241,0.007111512505635619
1772093649591574800,0.50057470703125,0.07080664362907409,-0.0071729786355979736,0.007573266532178968
1772093649601524000,0.51052392578125,0.06811667389273643,-0.013975571322534233,-0.00397428305898793
1772093649611474000,0.520473876953125,0.06467267091870307,-0.010597801985125988,-0.0005015654471237212
1772093649621423600,0.530423583984375,0.06631634647250174,-0.023353859716374426,0.00905780600151047
1772093649631373000,0.540373046875,0.07948328655958176,-0.014000486568082122,0.006617390579450875
1772093649641322800,0.55032275390625,0.06796411367952823,-0.013359905375912785,0.005674264510441571
1772093649651272700,0.560272705078125,0.06048164896965026,-0.015000128597300499,0.0009113883570302277
1772093649661221600,0.5702216796875,0.06930968306958675,-0.016250019060540945,0.0006277217105962336
1772093649671171800,0.580171875,0.06018237376213073,-0.010715254352334886,0.0044894112405832855
1772093649681121800,0.590121826171875,0.07200315993726253,-0.01231658860174939,0.008333382450789214
1772093649691070700,0.60007080078125,0.0785877990245819,-0.009307378582097589,0.0047898920245002955
1772093649701020700,0.610020751953125,0.07005845561027527,-0.012984203931316732,-0.0017899795561563223
1772093649710969900,0.619969970703125,0.07110591883659362,-0.01554068348109722,-0.0032601891060359775
1772093649720919800,0.629919921875,0.08502163146436215,-0.012927980232052504,-0.004235052887024358
1772093649730869800,0.639869873046875,0.0745446611136198,-0.00638040348580107,0.003528256324538961
1772093649740818700,0.649818603515625,0.07753565962314606,-0.01580762732159346,0.0073161682322621345
1772093649750769000,0.659768798828125,0.06870294934809207,-0.020299495380744336,0.014102083779033273
1772093649760718800,0.66971875,0.06226794786453247,-0.022232326606847343,0.006479580410802737
1772093649770667800,0.679667724609375,0.0621183102607727,-0.015690832541510463,0.005095898366905749
1772093649780617700,0.68961767578125,0.07468553088903426,-0.015132486272696404,0.006855345787480473
1772093649790568000,0.69956787109375,0.06076981826126575,-0.02181271295528859,0.007304669590713456
1772093649800516900,0.709516845703125,0.06720131261348725,-0.013916607676912099,0.0037715087621938434
1772093649810466800,0.719466796875,0.06764905638098716,-0.020985504883527753,0.008130434624059124
1772093649820415700,0.729415771484375,0.06420388436317444,-0.019435900821350514,0.005001050557149574
1772093649830366000,0.739365966796875,0.06899521029293537,-0.017527966574486343,0.0009338193845469504
1772093649840316000,0.74931591796875,0.06226268716752529,-0.019023703291267156,0.0008010689835064112
1772093649850264800,0.759264892578125,0.06599953560829162,-0.011341386894043534,-0.0033769199540372935
1772093649860214800,0.76921484375,0.06330664326250553,-0.022736440204083917,-0.0035511714092455802
1772093649870165000,0.7791650390625,0.07378244456946849,-0.01048643229883164,-0.0004903681996744126
1772093649880114000,0.789114013671875,0.071987377846241,-0.013074494296964258,-0.002410659604612738
1772093649890064000,0.79906396484375,0.07123977434933185,-0.01696890791961923,0.006676345091918483
1772093649900013800,0.809013916015625,0.07453004806637764,-0.020038944748416544,0.002086313887918368
1772093649909963000,0.818962890625,0.06929331645667552,-0.02088034574231133,0.0029162345065735277
1772093649919912700,0.82891259765625,0.056873979866504665,-0.01775556478528306,0.007422204156313091
1772093649929862700,0.838862548828125,0.07094400627315044,-0.018968064113892614,0.0009587620295584201
1772093649939811600,0.8488115234375,0.06495850212275982,-0.011777001832332462,-0.0023558058785274625
1772093649949761800,0.85876171875,0.07064297749996185,-0.021685451580118385,0.007557995897810906
1772093649959710700,0.868710693359375,0.06076806469559669,-0.01693420193241909,-0.0024624628570862114
1772093649969660700,0.87866064453125,0.059717094337940216,-0.008287552281375975,0.0044591896322555835
1772093649979611000,0.88861083984375,0.07602817766964436,-0.00880490895267576,0.004591154582006857
1772093649989559800,0.898559814453125,0.06839782892167567,-0.010272040629480034,0.007734749837359413
1772093649999509800,0.908509765625,0.06136603058874607,-0.009438548947405069,0.006386175639461726
1772093650009459700,0.918459716796875,0.053736850884556764,-0.010075184616819024,-0.004688970666984096
1772093650019408600,0.92840869140625,0.0657084437072277,-0.012269096198212355,0.0015882190395146607
1772093650029358800,0.93835888671875,0.09094166916310786,-0.006680007486883551,0.009153073936374857
1772093650039308800,0.948308837890625,0.1540600963771343,0.007464636792242527,0.0287501749351155
1772093650049257700,0.9582578125,-0.11810381685495376,-0.05073049040911719,-0.05404341434938833
1772093650059208000,0.9682080078125,0.18949089072048664,-0.006215257785655558,0.028630329681420697
1772093650069156900,0.978156982421875,0.07337970898747444,-0.006177683987934142,0.012143908049119636
1772093650079106800,0.98810693359375,-0.037484219741821284,-0.06064723306121304,-0.06080741032529622
1772093650089056800,0.998056884765625,0.1497071618646383,-0.009816241419687866,0.0468866379299201
1772093650099006000,1.008005859375,0.022708675414323806,-0.020627905351202933,-0.029686405472457406
1772093650108956000,1.017955810546875,0.075851652058959,-0.0329926256773062,-0.009486214880878105
1772093650118905900,1.02790576171875,0.07526946825683116,-0.015661259387154132,0.04101340764812193
1772093650128854800,1.037854736328125,0.06601648674309253,-0.01936533806947991,-0.02432770971721038
1772093650138805000,1.047804931640625,0.08410860827267169,-0.011425722442939877,0.010026331373257561
1772093650148755000,1.0577548828125,0.07094868244826794,-0.01889256945857778,0.03408381844749674
1772093650158703900,1.067703857421875,0.06242518425285816,-0.02377610371643677,-0.01714333290476352
1772093650168653800,1.07765380859375,0.07588555432856083,-0.015110712832305579,0.013782752164173871
1772093650178603800,1.087603759765625,0.060029813548922534,-0.02869721177201718,0.0007537683762144297
1772093650188553000,1.097552978515625,0.06481354069411754,-0.020348960545659062,0.00872555097299628
1772093650198502700,1.107502685546875,0.08815992949008941,-0.011980360651016235,0.0032443796155508606
1772093650208451800,1.117451904296875,0.06018295828402042,-0.018038217651564627,0.002786397581826895
1772093650218401800,1.12740185546875,0.06377484529614448,-0.023381661038752645,0.02045625684503466
1772093650228351700,1.137351806640625,0.07948679369091988,-0.020462175129167735,0.001995502932462841
1772093650238301000,1.147301025390625,0.055092941668629644,-0.01709521944671869,0.01083119061589241
1772093650248250600,1.157250732421875,0.07903262018263339,-0.008859068559017032,0.006076470369473099
1772093650258200800,1.167200927734375,0.06212590904533863,-0.014601941326260566,0.00016401318898424505
1772093650268149800,1.177149658203125,0.06736205613315105,-0.0247214217425324,0.003750118914293125
1772093650278099700,1.187099609375,0.06915887642204761,-0.0191421420391649,0.00382565923538059
1772093650288050000,1.1970498046875,0.06751286278069019,-0.011323887769971043,0.0019643862749915567
1772093650297997600,1.20699755859375,0.072300681579113,-0.013508830593619495,-0.003944152782205492
1772093650307947500,1.216947509765625,0.06661211454868317,-0.016053583172988144,0.002436004108423367
1772093650317896400,1.226896484375,0.06766191586256026,-0.0026370887716300785,0.00766323723741807
1772093650327846400,1.236846435546875,0.06257482185661792,-0.011528580029215663,0.007028446465218439
1772093650337796400,1.24679638671875,0.07214987493157386,-0.01366933665126562,0.0021802027164492753
1772093650347745500,1.25674560546875,0.0702004944294691,-0.00927855434641242,0.007840520899929105
1772093650357695200,1.2666953125,0.061221069160103794,-0.012686554425302893,-0.003040993397403508
1772093650367645400,1.2766455078125,0.07169745498895645,-0.015885003406740723,-0.004171486131520942
1772093650377594400,1.286594482421875,0.07319383102655411,-0.008323500377591699,0.001058349946513772
1772093650387544300,1.29654443359375,0.07424129425287246,-0.014252835627645254,0.00034451172188855705
1772093650397494500,1.30649462890625,0.06795593037307263,-0.01975214542998001,0.0019692999121267347
1772093650407443500,1.316443359375,0.06915244668126105,-0.015528043195232748,0.007653683957783505
1772093650417393400,1.326393310546875,0.07304243985712527,-0.024972510426770893,0.006077228421298786
1772093650427342300,1.33634228515625,0.06556348227858542,-0.024528584317862985,0.0004434055190999061
1772093650437292300,1.346292236328125,0.06900573168694972,-0.019645890310220418,0.002771848466666415
1772093650447242500,1.356242431640625,0.06541501371860504,-0.015807901316229254,0.005810302847111598
1772093650457191400,1.36619140625,0.07289864747226238,-0.016406762258522212,-0.001526862507406622
1772093650467141400,1.376141357421875,0.06975684231519699,-0.010718067363929003,0.0024382965302094817
1772093650477091600,1.386091552734375,0.07140577856600284,-0.02116807664250955,0.005703180077672005
1772093650487040500,1.39604052734375,0.07679390134513378,-0.017706592810712754,-0.0017740239351987839
1772093650496990500,1.405990478515625,0.06526888324618339,-0.013107647647894918,0.0036666692813858387
1772093650506940400,1.4159404296875,0.06437222666740416,-0.014212339220475404,0.004992931182775646
1772093650516889300,1.425889404296875,0.07514671865999699,-0.012286924115847796,0.004687427163869142
1772093650526839600,1.435839599609375,0.06676993545889855,-0.014356770926155149,-0.0020722214304842055
1772093650536788500,1.44578857421875,0.07545300813019275,-0.01388685185946524,0.006836440157610923
1772093650546738400,1.455738525390625,0.07216214989125729,-0.012610201253462582,0.006670938264438882
1772093650556688600,1.465688720703125,0.06124035838246345,-0.012653967329952866,0.003183150947606191
1772093650566637600,1.475637451171875,0.07351122641265392,-0.01931240230584517,0.0038604656872805207
1772093650576587500,1.48558740234375,0.06962064871490001,-0.019923885267693547,0.0016435294233262537
1772093650586537500,1.495537353515625,0.06019289515614509,-0.015995459777582436,-0.004473501285398379
1772093650596486400,1.505486328125,0.06318623175323008,-0.016602759754657744,0.006416141519462689
1772093650606436600,1.5154365234375,0.059894204470515244,-0.026392149700038132,0.003534521668544039
1772093650616386300,1.52538623046875,0.07351356450021267,-0.02319187408769503,0.014583693283516913
1772093650626335500,1.53533544921875,0.06707797849476337,-0.025159813159797338,0.008453200305020437
1772093650636285400,1.545285400390625,0.06543371841907501,-0.014146379578486084,-0.004450787130091339
1772093650646234600,1.555234619140625,0.07755611788928508,-0.014801811279915273,0.005956387653760611
1772093650656184300,1.565184326171875,0.07067454168200492,-0.021723829095438123,0.006773960247496142
1772093650666134300,1.57513427734375,0.06992752270698548,-0.01400174694340676,0.0017007303701248018
1772093650676083200,1.585083251953125,0.06529109507799148,-0.015596797582507132,-0.005789369656937196
1772093650686033400,1.595033447265625,0.06663841803371906,-0.00927977818911895,-0.0006830960264895111
1772093650695983400,1.6049833984375,0.06664017159938812,-0.005532317022792995,0.0033401133412960917
1772093650705932300,1.614932373046875,0.0705272421658039,-0.004973587161488831,0.008208742290968074
1772093650715882500,1.624882568359375,0.06693535515367985,-0.0187141258854419,0.0008829385806806386
1772093650725832400,1.63483251953125,0.05780395419299602,-0.020533833859581498,0.001067802761448547
1772093650735781400,1.644781494140625,0.06887713687121867,-0.02064165988191962,0.006690729810297489
1772093650745731300,1.6547314453125,0.0670809011042118,-0.018205098651070145,-0.0012860120893921703
1772093650755680500,1.664680419921875,0.06603285335600376,-0.024454203907400367,-0.0007069518261123448
1772093650765630500,1.67463037109375,0.06827683289051055,-0.025897845110762863,0.006262695390265435
1772093650775580400,1.684580322265625,0.06663432638049126,-0.028084450168535113,0.002421957316761836
1772093650785529300,1.694529296875,0.06798223385810852,-0.020508772483561186,0.0018050675274338573
1772093650795479600,1.7044794921875,0.07246785483956336,-0.022169125177524982,-0.000390113562438637
1772093650805429500,1.714429443359375,0.06004793372750282,-0.017299729042872785,0.004243272726098075
1772093650815378400,1.72437841796875,0.07740414219796657,-0.012633983987849205,0.001959600502019748
1772093650825328400,1.734328369140625,0.07021861460804939,-0.009054317136481404,0.00012797376122325658
1772093650835278600,1.744278564453125,0.06767419082224368,-0.020597126620449123,0.009536894755344838
1772093650845227500,1.7542275390625,0.06393208168447018,-0.01500586421834305,0.0041661615024320775
1772093650855177500,1.764177490234375,0.05764496423900127,-0.008319152996037155,0.0024784915432799607
1772093650865126400,1.77412646484375,0.07664660182893276,-0.019344587542396038,0.011608915256429464
1772093650875076600,1.78407666015625,0.07125555644035339,-0.01830178222488612,0.007946830818615854
1772093650885026600,1.794026611328125,0.06541618276238441,-0.01675254348888993,-0.0008132982774171978
1772093650894975500,1.8039755859375,0.06840893483757972,-0.014091525852400809,0.004919418421993032
1772093650904925400,1.813925537109375,0.07244973466098308,-0.010568466292787343,-0.002027067114505917
1772093650914875400,1.82387548828125,0.0645195261836052,-0.009477419653069228,-0.0004994465552736073
1772093650924824600,1.833824462890625,0.0630249037116766,-0.02075237198108807,0.0018185480635147541
1772093650934774300,1.843774169921875,0.07110182718336581,-0.013928133717924356,-0.008084878449281676
1772093650944724500,1.853724365234375,0.06347206295728683,-0.020913681756332514,0.0007985390997026115
1772093650954673400,1.86367333984375,0.06616846243441105,-0.01096972230374813,-0.0022627481670584528
1772093650964623400,1.873623291015625,0.07005787108838558,-0.015132486272696404,-0.001197977612912655
1772093650974572500,1.883572509765625,0.061978025007247924,-0.015572850451339035,0.004600406467542052
1772093650984522200,1.893522216796875,0.06946107423901557,-0.0058572381282225245,0.0007655592787079512
1772093650994472400,1.903472412109375,0.07185936755239963,-0.01860213514463976,0.009566467909701167
1772093651004421400,1.91342138671875,0.07859189067780971,-0.01850877603907138,0.003187991519505158
1772093651014371300,1.923371337890625,0.06153612645864486,-0.00846676303949207,-0.0019049568384885787
1772093651024321500,1.933321533203125,0.06647299833893776,-0.007436232681665569,-0.0010198171675670892
1772093651034270500,1.9432705078125,0.06871697787344455,-0.008487970224302262,0.008345465614227578
1772093651044220400,1.953220458984375,0.07634966470897198,-0.012614292906690389,0.002247587130544707
1772093651054170400,1.96317041015625,0.07679623943269252,-0.0124840906557627,0.0037011378065682945
1772093651064119300,1.973119384765625,0.0631774639248848,-0.013089143876824527,0.00986546912258491
1772093651074069500,1.983069580078125,0.058688335812091826,-0.018749124133586884,0.0036957766448613254
1772093651084018400,1.993018310546875,0.06931143663525581,-0.020994364043418316,0.0007737608514726161
1772093651093968400,2.002968505859375,0.06975859588086605,-0.015178042447473852,-0.0016667915679048745
1772093651103918600,2.012918701171875,0.06826046627759932,-0.01905263712480664,-0.005282013789843768
1772093651113867500,2.022867431640625,0.06571545796990394,-0.025086546994186935,-0.004619102034857496
1772093651123817500,2.0328173828125,0.07738894462883472,-0.004791161532979459,-0.000028449776349589228
1772093651133767400,2.042767333984375,0.075294018176198,-0.009270297974720596,0.0016986845435108988
1772093651143716400,2.05271630859375,0.07260112583041191,-0.01994847171967849,0.0001293620007112622
1772093651153666600,2.06266650390625,0.07349661336541176,-0.011470255704410374,0.006263581306254491
1772093651163616500,2.072616455078125,0.06930266880691051,-0.019056655712798236,-0.00016283501205034554
1772093651173565400,2.0825654296875,0.07513561274409293,-0.016685195607412606,-0.0019754282588139173
1772093651183515600,2.092515625,0.06780220111608505,-0.017892726499959825,0.007310925801564007
1772093651193464600,2.102464599609375,0.06286591375768184,-0.017904617867153135,-0.00016341040078550576
1772093651203414500,2.11241455078125,0.0633165801346302,-0.010482961700111627,-0.00408975353166461
1772093651213364500,2.122364501953125,0.07065116080641747,-0.019421744431834666,0.0006829590291716158
1772093651223313400,2.1323134765625,0.07080079841017722,-0.02132275574756786,-0.0056697435989510265
1772093651233263600,2.142263671875,0.0700526103913784,-0.013709942656289786,0.01153888222752139
1772093651243213300,2.15221337890625,0.06990472635328769,-0.011817224244866519,0.006423630706174298
1772093651253162500,2.16216259765625,0.06705985831618308,-0.013139613688737154,-0.003364800257980823
1772093651263112400,2.172112548828125,0.06436170527338982,-0.01193246638868004,0.011254183534625917
1772093651273062400,2.1820625,0.07094400627315044,-0.016296269355062395,0.0016115268498659134
1772093651283011300,2.19201123046875,0.07228899114131927,-0.013813202101364731,0.013566981388488783
1772093651292961300,2.201961181640625,0.06465455074012279,-0.023281963523942975,0.010285585097642614
1772093651302910700,2.21191064453125,0.07797112843096256,-0.01725870291274041,0.0019736838262993843
1772093651312860700,2.221860595703125,0.07183540215492248,-0.015305559550970791,-0.0001174432340543717
1772093651322810600,2.231810546875,0.0754249510794878,-0.015433789040520786,-0.001351560739427805
1772093651332759600,2.241759521484375,0.06255261002480983,-0.022653529427293685,0.003395149730471894
1772093651342709800,2.251709716796875,0.07317512632608414,-0.010920330204069614,-0.000455671345628798
1772093651352659700,2.26165966796875,0.07482055544555187,-0.013468790844175963,0.0036681853850372135
1772093651362608600,2.271608642578125,0.06269874049723148,-0.01998115014657378,0.004237034781556576
1772093651372558600,2.28155859375,0.06628302872478961,-0.017917312951944767,-0.004683308111177757
1772093651382508800,2.2915087890625,0.0673334145605564,-0.01098429881837219,-0.0023429189974907786
1772093651392457700,2.301457763671875,0.06897942820191383,-0.013022983305435627,-0.0021538078998681156
1772093651402407700,2.31140771484375,0.06957388696372509,-0.012679193102754652,0.002169343395717442
1772093651412356600,2.321356689453125,0.06598375351727008,-0.011343560584820807,-0.003923858912847936
1772093651422306800,2.331306884765625,0.06194120012819767,-0.014254899720568209,0.0022448654504958537
1772093651432256800,2.3412568359375,0.06807634188234805,-0.0091774868584238,0.0006710402625147253
1772093651442205700,2.351205810546875,0.0685275927811861,-0.00638296076906845,0.0021754626092500983
1772093651452155600,2.36115576171875,0.061492871838808055,-0.014364040917158125,0.004825474794534966
1772093651462105900,2.37110595703125,0.06493570576906203,-0.022773776539787648,0.00715047454284504
1772093651472054800,2.3810546875,0.06358779829144477,-0.010145656037144362,0.008943331042677163
1772093651482004700,2.391004638671875,0.07855097414553165,-0.007545520008727907,0.0020151392146945
1772093651491954700,2.40095458984375,0.07196808862388133,-0.009260068841651082,-0.00019750446663238108
1772093651501904000,2.41090380859375,0.06747896051108837,-0.019878657886479047,0.003095700993016362
1772093651511853600,2.420853515625,0.06493512124717235,-0.016549970121495425,-0.0020792996252421286
1772093651521802800,2.430802734375,0.06957739409506321,-0.011520743782632053,-0.0025695582270622254
1772093651531752700,2.440752685546875,0.0680833561450243,-0.023293854891136286,0.006246876766625792
1772093651541702700,2.45070263671875,0.0679348875850439,-0.012197656663507223,0.0044385395698715
1772093651551651800,2.46065185546875,0.06120119541585445,-0.016952797035034745,0.009632080491818486
1772093651561601500,2.4706015625,0.06434416961669921,-0.014605850316397846,-0.0009473821190185845
1772093651571551700,2.4805517578125,0.06928279506266116,-0.011958970803115516,-0.0052610258007422086
1772093651581500700,2.490500732421875,0.07571779654622078,-0.01207592997997999,0.002706829539593309
1772093651591450600,2.50045068359375,0.0803565622627735,-0.0130822026793845,-0.006700374421477318
1772093651601400600,2.510400634765625,0.0671896221756935,-0.024167185393255203,-0.0018160273128654807
1772093651611349500,2.520349609375,0.06659107176065444,-0.009461144371703267,0.004240057855704799
1772093651621299700,2.5302998046875,0.07123100652098656,-0.014266571892052889,0.0027747254103422164
1772093651631249700,2.540249755859375,0.06943301718831062,-0.012836995746660976,0.004935145714087412
1772093651641198600,2.550198486328125,0.060005848151445385,-0.012785886613931506,-0.002654962355038151
1772093651651148800,2.560148681640625,0.07901157739460468,-0.01910157256675884,0.004312885629897937
1772093651661097700,2.57009765625,0.07466799523234367,-0.017744933793414384,0.006121807348541915
1772093651671047700,2.580047607421875,0.07122340773642062,-0.015463599656894802,0.004832333793584257
1772093651680997600,2.58999755859375,0.06748422120809555,-0.016909852942451835,-0.0012350125545170158
1772093651690946600,2.599946533203125,0.06553834783732891,-0.016754315320868043,0.0055300976662430905
1772093651700896800,2.609896728515625,0.07451368145346642,-0.012200451408792286,-0.0015171904967632144
1772093651710846700,2.6198466796875,0.06598024638593196,-0.011229268289078026,0.009342422496015206
1772093651720795600,2.629795654296875,0.06268705005943775,-0.011704338454920797,0.0033540688014123588
1772093651730745900,2.639745849609375,0.0736123486995697,-0.02296591984471306,-0.0007592026031576096
1772093651740695800,2.64969580078125,0.07092120991945267,-0.02269554193811491,0.004501119944686069
1772093651750644700,2.659644775390625,0.06792845784425736,-0.017151607542764395,0.003245292931003496
1772093651760594700,2.6695947265625,0.07989712805747985,-0.008267934265453369,0.006193794872518628
1772093651770544600,2.679544677734375,0.05625555570721626,-0.013934673056565225,0.005342411340726539
1772093651780493800,2.689493896484375,0.06568097117841243,-0.014794961414020508,0.010470403612637891
1772093651790443800,2.69944384765625,0.08034311825931072,-0.011409849020373076,0.003943504328234121
1772093651800392700,2.709392822265625,0.06582827069461346,-0.01923767483551055,0.0023684918301645663
1772093651810343000,2.719343017578125,0.06986673243045806,-0.016435878755152223,0.0006951517904642969
1772093651820292600,2.729292724609375,0.07510580212771892,-0.007857070175930857,0.0005784209424629808
1772093651830241800,2.73924169921875,0.07136427751183509,-0.008120890477579086,0.00576414388413541
1772093651840191500,2.74919140625,0.05564999102950096,-0.01275006638187915,0.006590091580571607
1772093651850141700,2.7591416015625,0.06208206990361213,-0.013559136008750647,-0.006228263397701084
1772093651860090600,2.769090576171875,0.07270575524866581,-0.02146965340496972,-0.00023743461822159587
1772093651870040600,2.77904052734375,0.07270633977055549,-0.011923004440590738,0.0007821998862549662
1772093651879990500,2.788990478515625,0.07240764908492564,-0.011932155861426144,0.0007766103956848383
1772093651889939700,2.798939697265625,0.08078618585169314,-0.00920037454366684,-0.0013025065664667636
1772093651899889700,2.8088896484375,0.07240648004114628,-0.018057050216197967,-0.0067900985315442084
1772093651909838600,2.818838623046875,0.07270867785811423,-0.020001845874730497,-0.0007371277686674147
1772093651919788500,2.82878857421875,0.06507716006636619,-0.007488309928774833,0.0023508374424651263
1772093651929738800,2.83873876953125,0.06761924576461315,-0.016681706742383538,0.00846919245859608
1772093651939687700,2.848687744140625,0.06762041480839252,-0.01252087900219485,0.004839384588878602
1772093651949637600,2.8586376953125,0.06806757405400275,-0.01503280702419579,0.005812440005270764
1772093651959587800,2.868587890625,0.07210778935551643,-0.010079787726700306,0.0099774781296961
1772093651969536800,2.878536865234375,0.07300736854374408,-0.010080153052881359,0.0040155466511379925
1772093651979486700,2.88848681640625,0.06477554677128791,-0.021053510352130978,0.001860761503735557
1772093651989436700,2.898436767578125,0.06358136855065823,-0.009254333220608531,0.002970485444460064
1772093651999385600,2.908385498046875,0.06582827069461346,-0.016047957149799914,0.0069505315239541225
1772093652009335800,2.918335693359375,0.06433072561323643,-0.014322759058699012,-0.0006030621933750808
1772093652019285800,2.92828564453125,0.05699906755089759,-0.01048601217372343,-0.004283111546142027
1772093652029234700,2.938234619140625,0.07181435936689376,-0.023157058502640573,-0.0008933960426133126
1772093652039185000,2.948184814453125,0.06463409247398376,-0.010799352439213544,-0.0026480394239071755
1772093652049133800,2.9581337890625,0.07166530628502368,-0.015931929554697126,-0.004622901427140459
1772093652059083800,2.968083740234375,0.07256430095136165,-0.013717048250511288,0.006113331781141459
1772093652069033700,2.97803369140625,0.06897592107057571,-0.019818890523258595,0.00519345872355625
1772093652078982700,2.987982666015625,0.08662906666100025,-0.008210669386573135,-0.0045078328132629394
1772093652088932900,2.997932861328125,0.06403261944949626,-0.017446681499201804,0.001203311375156045
1772093652098882600,3.007882568359375,0.06058861647546291,-0.021281857481598852,-0.0007851772946305572
1772093652108831700,3.017831787109375,0.0703179833292961,-0.015420363303367048,0.0003776102738920599
1772093652118781700,3.02778173828125,0.06642915919721126,-0.010825637657940387,0.0009276179726235568
1772093652128731600,3.037731689453125,0.07271393855512141,-0.01940961560262367,0.0038909795565530655
1772093652138680600,3.0476806640625,0.06463292343020438,-0.019928725839592515,-0.0016302680829539894
1772093652148630500,3.057630615234375,0.0683709409147501,-0.010960826611239462,0.00014945494066923856
1772093652158580700,3.067580810546875,0.07749708117842674,-0.013275770756416023,0.007942748298542574
1772093652168529700,3.07752978515625,0.07031447619795798,-0.010781195728015154,0.008630219106050208
1772093652178479600,3.087479736328125,0.07824585371911526,-0.01105148230306804,0.008832646342972292
1772093652188428500,3.097428466796875,0.06671908205449581,-0.010172087386343627,-0.004215946327755227
1772093652198378800,3.107378662109375,0.07390285607874393,-0.01634483947083354,0.004887799441022798
1772093652208328700,3.11732861328125,0.06267945127487182,-0.0151081555490382,0.008183507385011762
1772093652218277600,3.127277587890625,0.06866203281581401,-0.005795242275297641,0.008095007117651402
1772093652228227600,3.1372275390625,0.05429565381109714,-0.008674396174494177,0.0069321373507380485
1772093652238177800,3.147177734375,0.05549333916306495,-0.01828207287741825,0.0024253365839365867
1772093652248126700,3.157126708984375,0.0795855778902769,-0.017566380622424185,-0.0035310967355966566
1772093652258076700,3.16707666015625,0.07689268554449082,-0.005531823832448572,0.0025480953139252957
1772093652268026600,3.177026611328125,0.07644318821132183,-0.00446996675459668,-0.002956484318571165
1772093652277975800,3.186975830078125,0.07569207758307457,-0.007070632505975664,0.002351732491608709
1772093652287925800,3.19692578125,0.0759907682687044,-0.010698284951224922,0.00011593626355752348
1772093652297875500,3.20687548828125,0.06641396162807942,-0.008316248652897774,0.005070179403759539
1772093652307824400,3.216824462890625,0.0715033937215805,-0.00947130043953657,0.00319171784655191
1772093652317774300,3.2267744140625,0.06582067191004752,-0.014039302474819123,0.0013836363781243562
1772093652327723300,3.23672314453125,0.06716448773443698,-0.017675905411504208,0.007846841042861341
1772093652337673500,3.246673583984375,0.05908405713140964,-0.01580187343424186,0.00922343575884588
1772093652347623400,3.25662353515625,0.060276481786370274,-0.021643731330242007,0.006492832618020475
1772093652357572400,3.266572265625,0.07254734981656075,-0.017565357709117234,0.006209951422875747
1772093652367522600,3.2765224609375,0.06177285782396793,-0.022334471807070076,0.005317824888741597
1772093652377472500,3.286472412109375,0.07045125432014465,-0.018743388512544333,0.00044071123851463197
1772093652387421400,3.29642138671875,0.07119593520760535,-0.010116302078496665,-0.0054453602585475885
1772093652397371400,3.306371337890625,0.0696995591700077,-0.010089103544317185,0.0007744823706801981
1772093652407321300,3.3163212890625,0.06730477298796177,-0.01528239787109196,0.002860248269326985
1772093652417270500,3.3262705078125,0.07898059773445129,-0.016945508777722714,0.001921296051936224
1772093652427220200,3.33622021484375,0.0792804574638605,-0.002741352863702923,-0.003169560813670978
1772093652437170200,3.346170166015625,0.0707499450057745,-0.015589582390431313,-0.002389214957784861
1772093652447119400,3.356119384765625,0.06431318995654582,-0.015516736349929124,0.00009828187585808336
1772093652457069300,3.3660693359375,0.06790332340300083,-0.0075499587218277155,0.003867616947274655
1772093652467019300,3.376019287109375,0.06730769559741019,-0.015271017960552125,0.003481622437527403
1772093652476968200,3.38596826171875,0.06191957281827926,-0.01539621524279937,0.008595476586231962
1772093652486918400,3.39591845703125,0.06281915200650692,-0.01110447286562994,0.002246756013482809
1772093652496867300,3.405867431640625,0.07075052952766418,-0.016052742922771722,0.0029747597607783973
1772093652506817300,3.4158173828125,0.06476560989916325,-0.011712686158157884,0.009229226178815587
1772093652516767200,3.425767333984375,0.06596037264168263,-0.013844400957226752,0.004572385949455201
1772093652526716400,3.43571630859375,0.06027180561125278,-0.016907770583219826,0.004629276368999853
1772093652536666400,3.445666259765625,0.07104337499439715,-0.016072123476676643,0.0031239498399663716
1772093652546616300,3.4556162109375,0.07358429164886474,-0.003699548637680709,0.00527544705173932
1772093652556565200,3.465565185546875,0.0690939944922924,-0.015617292381264268,0.00034189963969402014
1772093652566515500,3.475515380859375,0.07119067451059818,-0.011171802480798214,0.004498297799937427
1772093652576465400,3.48546533203125,0.06565817482471466,-0.00917074659038335,0.006098691334435716
1772093652586414300,3.495414306640625,0.06565817482471466,-0.005502798667363822,0.010434756910521537
1772093652596364300,3.5053642578125,0.06984218251109123,-0.009010879853554069,0.006121487688133493
1772093652606314500,3.515314453125,0.049340661752223965,-0.011390084873978048,-0.0017393910132348536
1772093652616263400,3.525263427734375,0.07477963891327381,-0.017915413255803286,0.0102198355182074
1772093652626213400,3.53521337890625,0.061763505473732945,-0.006305073227267712,0.005973457519570366
1772093652636163600,3.54516357421875,0.06341185720264911,0.0001498933320865035,0.0027016967067494987
1772093652646112500,3.555112548828125,0.08406243104338645,-0.012872596783004701,0.005038642621180043
1772093652656062500,3.5650625,0.07388473590016365,-0.004207589491363614,0.006805250434903427
1772093652666011400,3.575011474609375,0.06550269200205802,-0.01010256581408903,0.0003858849118929356
1772093652675961300,3.58496142578125,0.07253449033498764,-0.014010496505443006,0.008144801076129079
1772093652685911300,3.594911376953125,0.07567863357961177,-0.010595062038768083,0.0023690124199725686
1772093652695860500,3.604860595703125,0.06430792925953864,-0.014860300001502036,-0.0025811573333106934
1772093652705810400,3.614810546875,0.0637128859758377,-0.011078863500338047,0.0046412225351203235
1772093652715760400,3.624760498046875,0.06805354552865028,-0.01348853672426194,0.00008598864986561238
1772093652725709300,3.634709228515625,0.06641513067185878,-0.01656054631443694,-0.004754473651247099
1772093652735659300,3.6446591796875,0.058334115546941755,-0.010062982722371817,0.005018266553431749
1772093652745609200,3.654609130859375,0.08047931185960769,-0.006446509258262813,0.005836250139120966
1772093652755558100,3.66455810546875,0.06536883648931979,-0.019056052924599498,0.0017560772865545004
1772093652765508400,3.67450830078125,0.06237725345790386,-0.014049659472052008,0.005522069623414427
1772093652775458300,3.684458251953125,0.07360299634933472,-0.010911397978942841,0.008140572425583376
1772093652785407200,3.6944072265625,0.07479834361374378,-0.027799440948385743,0.0003063899348955601
1772093652795357400,3.704357421875,0.06896423063278198,-0.009055522712878883,0.0018812654356472193
1772093652805307400,3.714307373046875,0.06806698953211307,-0.01361667488226667,-0.0026544508983846753
1772093652815256300,3.72425634765625,0.07883914343714714,-0.011272906501404941,0.0028505762586835772
1772093652825206300,3.734206298828125,0.07838906158208847,-0.01606238753395155,-0.0003735825527459383
1772093652835155200,3.7441552734375,0.07105623447597026,-0.008905665913410485,0.009957266458729281
1772093652845105400,3.75410546875,0.06387596758306026,-0.010735767417401074,-0.0022048531005159017
1772093652855055400,3.764055419921875,0.08303133442997931,-0.019960582282580436,0.006687003483250737
1772093652865004300,3.77400439453125,0.07046469832360744,-0.023482929456140843,0.008950135242799296
1772093652874954500,3.78395458984375,0.06552665739953517,-0.008540449330210685,0.001685176607966423
1772093652884904400,3.793904541015625,0.059088148784637445,-0.005404598989896476,0.0016170158757362514
1772093652894853400,3.803853271484375,0.0716559539347887,-0.012065572982747108,0.005648235020041466
1772093652904803300,3.81380322265625,0.07015840885341167,-0.010442848885431885,0.00684050441137515
1772093652914753500,3.82375341796875,0.0716518622815609,-0.008997052257601171,0.00899700659182854
1772093652924702500,3.833702392578125,0.07254793433845043,-0.017867939118575305,0.0043105384091846645
1772093652934652400,3.84365234375,0.06940612918138504,-0.01667887546448037,0.0023487733495421706
1772093652944602400,3.853602294921875,0.07374503516852855,-0.016793003363441673,0.0035188035096041857
1772093652954551600,3.863551513671875,0.06761164698004722,-0.01346046140724793,-0.0028588326303754
1772093652964501500,3.87350146484375,0.06222644681036472,-0.013934179866220801,0.0036047464936971663
1772093652974450400,3.883450439453125,0.058040101036429405,-0.006524524664226919,0.007329155577998608
1772093652984400400,3.893400390625,0.07449965292811393,-0.013795337651111185,0.0006360054817516356
1772093652994350300,3.903350341796875,0.0662701692432165,-0.011230218137148766,0.0068066112749278545
1772093653004299500,3.913299560546875,0.07360241182744502,-0.0119446865494363,0.00348180510061793
1772093653014249200,3.923249267578125,0.07405074011683464,-0.010307130209170281,0.008006351586664096
1772093653024199200,3.93319921875,0.07180676058232784,-0.017457056762743742,-0.0013898651895113288
1772093653034148400,3.9431484375,0.07345569683313369,-0.02178991660159081,-0.005391310250060633
1772093653044098300,3.953098388671875,0.06657645871341228,-0.00728845824142918,0.0002478007486090064
1772093653054048300,3.96304833984375,0.06523030480146408,-0.014866802807524799,-0.0030558530398178845
1772093653063997200,3.9729970703125,0.056252633097767825,-0.016376732446439564,0.0007960274822078645
1772093653073947400,3.982947509765625,0.06702537152469158,-0.013167816869914532,0.0015329999872483312
1772093653083897300,3.9928974609375,0.05939502277672291,-0.012898662806022912,0.004476286897528916
1772093653093846300,4.00284619140625,0.07121814703941345,-0.018551427870709448,-0.006059427903126925
1772093653103796200,4.012796142578125,0.07016834572553635,-0.012340206939354538,0.008209226348157971
1772093653113746400,4.022746337890625,0.0703226595044136,-0.016014475005306304,-0.0010261555768083781
1772093653123695400,4.0326953125,0.07735621140301227,-0.018971881772484628,-0.0018927823435049504
1772093653133645300,4.042645263671875,0.06493862837851047,-0.012358400183171032,0.0009458842816762625
1772093653143595500,4.052595458984375,0.06344517495036125,-0.01370119309425354,-0.00229047642420046
1772093653153544400,4.06254443359375,0.05820902786254883,-0.008350406650826335,-0.0014220778255257754
1772093653163494400,4.072494384765625,0.06209960556030273,-0.013401168968062847,-0.0023873517942614854
1772093653173443300,4.082443359375,0.06479191338419914,-0.013772742226812988,-0.0030555242462549357
1772093653183393500,4.0923935546875,0.0638958413273096,-0.015650610128976405,0.010538527812249957
1772093653193343500,4.102343505859375,0.07347147892415523,-0.00584971240889281,0.014387540523754431
1772093653203292400,4.11229248046875,0.06314999139606953,-0.006690729810297489,0.014537790048867464
1772093653213242400,4.122242431640625,0.06973287691771984,-0.006293547186255455,0.00009080182230100035
1772093653223192600,4.132192626953125,0.06883446677327155,-0.018170374397560952,-0.0007879263741429895
1772093653233141500,4.1421416015625,0.07003039855957031,-0.0007374108964577317,-0.008628328543063253
1772093653243091500,4.152091552734375,0.06882862155437469,0.0021374686864204704,-0.009336833005445078
1772093653253041200,4.162041259765625,0.06688567079305649,-0.009673672877531498,-0.004877780370507389
1772093653262990600,4.171990478515625,0.0674865592956543,-0.008922635314520448,-0.00707810342637822
1772093653272940300,4.181940185546875,0.06539689354002476,-0.01726255710395053,-0.0031201413145288824
1772093653282890200,4.19189013671875,0.07601999436318874,-0.017481990274600685,-0.010376633515115826
1772093653292839200,4.201839111328125,0.06764145759642123,-0.007532423065137118,-0.0026640407106373457
1772093653302789000,4.2117890625,0.06943769336342812,-0.019652429648861287,-0.000785661351820454
1772093653312738300,4.22173828125,0.06584755991697311,-0.013733232200331985,0.005236083155730739
1772093653322688000,4.23168798828125,0.06151040749549865,-0.012628431029897183,-0.0018359284565784037
1772093653332638200,4.24163818359375,0.06884615721106528,-0.020229882476944475,0.003469840668188408
1772093653342587100,4.251587158203125,0.07259060443639755,-0.016233962974883616,0.0057956897998694325
1772093653352537000,4.261537109375,0.07318915485143661,-0.02690106733655557,0.016939983219234272
1772093653362487000,4.271487060546875,0.07214110710322856,-0.021747611829824744,0.005489035003492609
1772093653372436200,4.281436279296875,0.07198971593379974,-0.011936704172380267,-0.0069627151520922775
1772093653382386200,4.29138623046875,0.0631599282681942,-0.010418682558555156,-0.0000018722966779023408
1772093653392336100,4.301336181640625,0.06794599350094795,-0.017533190738875416,-0.0022980386761482802
1772093653402285000,4.31128515625,0.07258592826128006,-0.01279699252983555,0.003958409636421129
1772093653412235300,4.3212353515625,0.07138941195309162,-0.022217220369260757,0.007047671755496412
1772093653422185200,4.331185302734375,0.05597966137528419,-0.02197049733288586,-0.00223440798856318
1772093653432134100,4.341134033203125,0.06436112075150012,-0.011056578603293746,-0.0004377520964480936
1772093653442084400,4.35108447265625,0.06286591375768184,-0.010928166450653224,0.002198852617992088
1772093653452034300,4.361034423828125,0.0805219819575548,-0.013317089147493242,-0.0010237444240134208
1772093653461983200,4.370983154296875,0.07288637251257896,-0.005694759309198707,-0.002886944480007514
1772093653471933200,4.38093310546875,0.06225976455807686,-0.017882734828907995,-0.0017820428448729216
1772093653481882000,4.390882080078125,0.06884323460161686,-0.016389153536595404,0.0033959625812247395
1772093653491832300,4.400832275390625,0.07258125208616256,-0.011194744964968412,0.0019371146755758671
1772093653501782300,4.4107822265625,0.06495148786008358,-0.011275701246690004,-0.00043687531361356376
1772093653511731200,4.420731201171875,0.06285714592933654,-0.01318272217810154,-0.0007463887873571366
1772093653521681400,4.430681396484375,0.06944061597287654,-0.005499729927442968,-0.004845878261746838
1772093653531631000,4.440631103515625,0.06255377906858921,-0.00985892978394404,-0.002971316561521962
1772093653541580300,4.450580322265625,0.06778934163451195,-0.012074633072037249,0.008480380572890862
1772093653551530200,4.4605302734375,0.054768532019853586,-0.01292633626423776,0.0051480669455602765
1772093653561480200,4.470480224609375,0.05775836148560047,-0.021031663846503942,0.003380682813702151
1772093653571429400,4.480429443359375,0.06313888548016548,-0.013314130005426705,0.00018373166960664093
1772093653581379000,4.490379150390625,0.06972235552370548,-0.01557962725199759,0.00043447329397313294
1772093653591329000,4.5003291015625,0.06388590445518494,-0.009623020402528345,-0.010665323396539314
1772093653601278200,4.5102783203125,0.06762450646162033,-0.007996862239111214,-0.007378447212977334
1772093653611228200,4.520228271484375,0.07630757913291454,-0.010088025832083075,-0.0069030391204170875
1772093653621178000,4.53017822265625,0.07077507944703101,-0.011869648551847784,-0.004149630492739379
1772093653631127000,4.540126953125,0.06269406432211398,-0.01616133613009006,-0.0015018924629315734
1772093653641077200,4.5500771484375,0.06838146230876445,-0.012541282469406723,-0.0016796236500144005
1772093653651026200,4.560026123046875,0.062246320554614064,-0.012909713922999798,0.0015797069394960998
1772093653660976000,4.56997607421875,0.0655389323592186,-0.010383081522211433,0.01670063977171667
1772093653670926000,4.579926025390625,0.06209902103841304,-0.01010371659155935,0.008632337997900322
1772093653680875300,4.589875244140625,0.053417701932787894,-0.007431593039166182,0.006362803897028788
1772093653690825200,4.5998251953125,0.08155132500529289,0.0012274411694146693,0.008228935695625841
1772093653700775200,4.609775146484375,0.06389291871786117,-0.01756831685118377,-0.004075396212749183
1772093653710724000,4.61972412109375,0.05072422506511211,-0.014055248962622136,0.013186311507830395
1772093653720674300,4.62967431640625,0.08349661385416984,-0.006156860395614057,0.0026026385127566752
1772093653730624300,4.639624267578125,0.06988543713092804,-0.01573571286285296,-0.0034185671386774627
1772093653740573200,4.6495732421875,0.06838906109333039,-0.027825159911531953,0.010856927845347673
1772093653750523100,4.659523193359375,0.06958499287962913,-0.013363211577851324,0.00688996044313535
1772093653760473300,4.669473388671875,0.0679395637601614,-0.005663761382736265,0.0014716343219857663
1772093653770422300,4.67942236328125,0.07227671618163585,-0.013964136613067238,0.0029896285363472997
1772093653780372200,4.689372314453125,0.0601578238427639,-0.02298637811085209,0.006373727149842307
1772093653790321200,4.699321044921875,0.06943535527586936,-0.0189386005573906,-0.0017306323180440813
1772093653800271400,4.709271240234375,0.06958557740151881,-0.020632270999066532,0.001616951943654567
1772093653810221300,4.71922119140625,0.0745271254569292,-0.01857601432269439,-0.006411072618700563
1772093653820170200,4.729170166015625,0.07048691015541553,-0.00047523456262424585,-0.0019093316195067018
1772093653830120200,4.7391201171875,0.06270517023801803,-0.004374543556105346,-0.0063295500813983375
1772093653840070100,4.749070068359375,0.0706324561059475,-0.016957290547061712,-0.007188797259237617
1772093653850019300,4.759019287109375,0.06375263346433639,-0.013550075919460504,-0.006085119466809555
1772093653859969000,4.768968994140625,0.07482756970822811,-0.01688139403294772,-0.007800261954776943
1772093653869919200,4.778919189453125,0.0746796856701374,-0.01967438575234264,0.006169071423215791
1772093653879868200,4.7888681640625,0.0583715249478817,-0.015432035474851726,0.012442406938504427
1772093653889818000,4.798818115234375,0.0600181231111288,-0.0167030417913571,0.003067598276538774
1772093653899768000,4.80876806640625,0.06660276219844817,-0.01038043290739879,0.00044946993370540436
1772093653909717000,4.818717041015625,0.07288520346879959,-0.01397690476309508,0.0014239775216672568
1772093653919667200,4.828667236328125,0.06704758335649967,-0.010852160338684917,0.014022999793989584
1772093653929617200,4.8386171875,0.06824585323035717,-0.012690244219731538,0.007465924567030742
1772093653939566000,4.848566162109375,0.0622580109924078,-0.009185414436552674,-0.0025216822310350833
1772093653949516300,4.858516357421875,0.07377952196002006,-0.008673665522132069,0.002671730826748535
1772093653959465200,4.86846533203125,0.07677168951332569,0.001826411709561944,0.0046133572806604205
1772093653969415200,4.878415283203125,0.06793839471638202,-0.012515545239951461,0.002310733760939911
1772093653979365000,4.888365234375,0.06673954032063484,-0.014520236125867813,0.0061757842917926605
1772093653989314000,4.89831396484375,0.0685357760876417,-0.006025690030306577,0.008743716817349196
1772093653999264300,4.90826416015625,0.06599018325805664,-0.021536124503612517,0.010878482090029866
1772093654009214200,4.918214111328125,0.060007017195224756,-0.023398520842008292,0.004809555706195533
1772093654019163100,4.9281630859375,0.06808569423258304,-0.007248509823530912,0.0033355832966510206
1772093654029113300,4.93811328125,0.05985854863524437,-0.01810297171715647,-0.006828065054910257
1772093654039063300,4.948063232421875,0.07257423782348632,-0.008634283359814435,-0.0025680147239472715
1772093654049012200,4.95801220703125,0.07601531818807125,-0.004233491117600351,0.0018878961058333514
1772093654058962200,4.967962158203125,0.07631517791748046,-0.01558227586681023,-0.0019793281157966702
1772093654068912400,4.977912353515625,0.07930150025188923,-0.01415870933709666,-0.0030619905196595937
1772093654078861300,4.987861328125,0.059846858197450635,-0.013322368110809474,-0.005432336380193009
1772093654088811300,4.997811279296875,0.06867313873171806,-0.005375245031248778,-0.008729834422469138
1772093654098760200,5.00776025390625,0.06642974371910094,-0.021246475640963762,0.00015361965913325548
1772093654108710400,5.01771044921875,0.06418927131593227,-0.015753960905596612,-0.005950734231108799
1772093654118660000,5.02766015625,0.06134674136638641,-0.007533701706770807,0.006712969041569158
1772093654128609300,5.037609375,0.06838321587443351,-0.015195267576910554,-0.001450198808312416
1772093654138559000,5.04755908203125,0.06314473069906235,-0.018793639128748325,0.004491320069879293
1772093654148509200,5.05750927734375,0.06598842969238758,-0.018329583547264338,0.004118020644923672
1772093654158458000,5.0674580078125,0.06867956847250462,-0.01899571930579841,-0.007202369126863777
1772093654168408000,5.077407958984375,0.06493979742228985,-0.019680614563729614,-0.003121739616570994
1772093654178358000,5.08735791015625,0.06973346143960953,-0.00986210812171921,0.005645942598255351
1772093654188307200,5.09730712890625,0.06030629240274429,-0.002971526624076068,0.0025100831247866153
1772093654198257200,5.107257080078125,0.0719786100178957,-0.007695230677723884,-0.0012916198462713509
1772093654208207000,5.11720703125,0.06509469572305679,-0.009328750163689255,0.0011559194363187997
1772093654218156000,5.127156005859375,0.06135375562906265,-0.006399893637560308,0.0002254884521011263
1772093654228106200,5.137106201171875,0.06061258187294006,-0.0015835245980881153,-0.0004167275747284293
1772093654238056200,5.14705615234375,0.06480477286577224,-0.009094411684852094,-0.000715911450702697
1772093654248005000,5.157005126953125,0.08141454688310623,-0.004022022057697177,0.001261653966270387
1772093654257955300,5.166955322265625,0.07707680993974209,-0.006496175352577119,-0.0005440985477529465
1772093654267904300,5.176904296875,0.0713899964749813,-0.011083850202709435,-0.004642044519027695
1772093654277854200,5.186854248046875,0.06286065306067466,-0.010790675942413508,0.0050801619416568425
1772093654287804200,5.19680419921875,0.0722878220975399,-0.007239833326730877,0.008648494548257439
1772093654297753600,5.206753662109375,0.06166472127437591,-0.012340298270899802,0.011254612792888656
1772093654307703600,5.21670361328125,0.06615501843094826,-0.007908453303296118,0.007545072484156116
1772093654317653800,5.22665380859375,0.06436287431716918,-0.015216894886828957,0.0016233816844411194
1772093654327602700,5.236602783203125,0.06900397812128066,-0.014574523596372454,-0.00674707224057056
1772093654337552600,5.246552734375,0.06766133134067058,-0.01969259726246819,-0.010347882344666867
1772093654347502600,5.256502685546875,0.061228083422780036,-0.020633330444991587,-0.0009551635666750371
1772093654357451800,5.26645166015625,0.06736322517693043,-0.014645250745024532,-0.0003430686834733933
1772093654367401500,5.2764013671875,0.06721358757317066,-0.011484868751652538,-0.0075554203482344744
1772093654377350700,5.2863505859375,0.06676525928378105,-0.016365699595771728,-0.008024627028871327
1772093654387300600,5.296300537109375,0.06840951935946941,-0.01908160749096423,0.0003724135089665651
1772093654397250600,5.30625048828125,0.06721358757317066,-0.02268123941812664,-0.006305045827804133
1772093654407199700,5.31619970703125,0.06212649356722831,-0.025763112815190104,-0.0006374576533213258
1772093654417149400,5.3261494140625,0.06796236011385917,-0.017853691397514193,-0.00013309746091254055
1772093654427099400,5.336099365234375,0.07065466793775559,-0.011685158830415456,-0.001588666564086452
1772093654437048600,5.346048583984375,0.0636217005610466,-0.017188213226106017,-0.003865141862398013
1772093654446998500,5.35599853515625,0.06646481503248214,-0.015154972099140285,-0.004028753192583099
1772093654456948500,5.365948486328125,0.06407061337232589,-0.010570329456310718,0.0005690959916915744
1772093654466897400,5.3758974609375,0.08397533728182316,-0.008034783096704632,0.0042230336556676774
1772093654476847600,5.38584765625,0.07006137821972369,-0.009319817938562482,0.003728582935919985
1772093654486797600,5.395797607421875,0.07006079369783401,-0.011029617531131953,0.002251797514781356
1772093654496746500,5.40574658203125,0.07649170352816581,-0.024372151647135614,0.000060835942300036546
1772093654506696400,5.415696533203125,0.06047931088209152,-0.020136706034466625,-0.0013859470662195236
1772093654516645600,5.425645751953125,0.0655558834940195,-0.01394497525487095,0.012966449078917502
1772093654526595600,5.435595703125,0.0911363149523735,-0.0020080701530911025,0.017314926612004636
1772093654536545500,5.445545654296875,0.07063771680295466,-0.010639723164401947,0.00551527455644682
1772093654546494500,5.455494384765625,0.054769116541743275,-0.0052751273913308975,0.02174634232134558
1772093654556444700,5.465444580078125,0.0855985545694828,-0.002470920158177614,0.006210873871482908
1772093654566394600,5.47539453125,0.0646492900431156,-0.013488774186279624,-0.005593837951682508
1772093654576343600,5.485343505859375,0.0760217479288578,-0.016011095738131552,0.016107002993812784
1772093654586293500,5.49529345703125,0.0703401951611042,-0.017715908628329634,0.0048616877522319555
1772093654596243700,5.50524365234375,0.06645078650712967,-0.018331994700059293,-0.00464936930895783
1772093654606192600,5.515192626953125,0.06390402463376521,-0.01829211934739724,0.0011099431364331395
1772093654616142600,5.525142578125,0.06854220582842827,-0.015248806128744035,-0.00047345359749160706
