time,seconds_elapsed,z,y,x
1772093649163738000,0.072738037109375,0.0016893609426915646,0.0016100832726806402,-0.002227945253252983
1772093649173688000,0.08268798828125,-0.001619882881641388,0.0019344561733305454,0.001811537193134427
1772093649183637200,0.09263720703125,-0.00026762764900922775,0.0016092092264443636,0.0007620877586305141
1772093649193587000,0.1025869140625,0.00015794578939676285,-0.0016558263450860977,-0.0003300746902823448
1772093649203537200,0.112537109375,-0.0000894283875823021,-0.0006847791373729706,-0.002111199777573347
1772093649213486000,0.122486083984375,-0.0019059707410633564,0.0003171018324792385,-0.001324768178164959
1772093649223436000,0.13243603515625,0.0013269144110381603,0.00032983534038066864,0.0009869649074971676
1772093649233386000,0.142385986328125,0.00021025072783231735,0.0014512925408780575,0.0028589009307324886
1772093649243335000,0.1523349609375,0.0006070937961339951,0.0007226830348372459,-0.0007720645517110825
1772093649253285000,0.16228515625,-0.0005649635568261147,0.0029906309209764004,-0.0011494341306388378
1772093649263235000,0.172235107421875,-0.0014500808902084827,0.0004149070009589195,-0.0010892637073993683
1772093649273184000,0.18218408203125,0.001298834104090929,0.0016412925906479359,0.00004444364458322525
1772093649283134200,0.19213427734375,-0.0005491499323397875,-0.00033044954761862755,0.0018269193824380636
1772093649293085700,0.202085693359375,0.000018369872123003006,-0.0017019775696098804,-0.000841568224132061
1772093649303035000,0.212034912109375,0.0003955187276005745,0.0029397152829915285,-0.001607677899301052
1772093649312984800,0.22198486328125,0.000060226768255233765,-0.002689940854907036,0.001597436610609293
1772093649322934000,0.23193408203125,0.00026451144367456436,-0.000600066501647234,-0.0006424812600016594
1772093649332883700,0.2418837890625,0.0011002114042639732,-0.000551330391317606,-0.0014800457283854485
1772093649342833700,0.251833740234375,-0.0006512498948723078,-0.0027712364681065083,0.0006316923536360264
1772093649352782800,0.261782958984375,-0.0005066404119133949,0.000630152877420187,-0.001395239494740963
1772093649362732800,0.27173291015625,-0.0020687503274530172,-0.001206583809107542,-0.00022542476654052734
1772093649372682800,0.281682861328125,0.0000937366858124733,0.0021322211250662804,0.0008225291967391968
1772093649382631700,0.291631591796875,0.00021639512851834297,-0.0018466496840119362,0.0007363329641520977
1772093649392582000,0.301581787109375,-0.002328788163140416,-0.00024262769147753716,-0.002270109485834837
1772093649402531800,0.31153173828125,0.0033356989733874798,-0.0006972793489694595,0.0011915531940758228
1772093649412480800,0.321480712890625,0.0004464355297386646,-0.0017124763689935207,-0.003045802004635334
1772093649422430700,0.3314306640625,0.0011004512198269367,0.0005197892896831036,-0.001239886973053217
1772093649432381000,0.341380859375,0.00026768073439598083,0.00006385613232851028,0.00011193333193659782
1772093649442329900,0.351329833984375,0.0011041178368031979,0.0013241332489997149,-0.000788932666182518
1772093649452279800,0.36127978515625,0.0012095789425075054,-0.00013448018580675125,0.00019137701019644737
1772093649462228700,0.371228759765625,-0.0016797042917460203,0.0016475892625749111,-0.00027307309210300446
1772093649472179000,0.381178955078125,0.001558166928589344,0.0007530334405601025,0.000671017449349165
1772093649482129000,0.39112890625,-0.0008880370296537876,-0.002234462182968855,0.0007842965424060822
1772093649492077800,0.401077880859375,-0.0006488852668553591,-0.001444568857550621,0.0005709771066904068
1772093649502027800,0.41102783203125,0.0009102802723646164,0.0017932143528014421,-0.0007579470984637737
1772093649511978000,0.42097802734375,-0.0010013366118073463,-0.00006993301212787628,0.00013767369091510773
1772093649521927000,0.430927001953125,0.0010603372938930988,0.002006087452173233,0.0032506261486560106
1772093649531876900,0.440876953125,-0.0025580995716154575,0.00006544217467308044,-0.0008953828364610672
1772093649541826800,0.450826904296875,0.00361616350710392,0.004378503188490868,0.0009630769491195679
1772093649551776000,0.46077587890625,0.0006789630278944969,-0.00040559936314821243,-0.0005874154157936573
1772093649561726000,0.470725830078125,-0.00013274746015667915,0.00005673477426171303,0.0014316109009087086
1772093649571675000,0.4806748046875,-0.00018441257998347282,0.00033183954656124115,-0.0017322241328656673
1772093649581624800,0.490624755859375,-0.0009265944827347994,-0.0006226571276783943,0.002390979090705514
1772093649591574800,0.50057470703125,0.0006382791325449944,0.0030056333635002375,0.0006242380477488041
1772093649601524000,0.51052392578125,0.0006869961507618427,-0.001768545713275671,-0.00005771499127149582
1772093649611474000,0.520473876953125,0.0016017919406294823,0.0015801128465682268,0.002371087670326233
1772093649621423600,0.530423583984375,-0.0029082049150019884,-0.0013829413801431656,0.0006356020458042622
1772093649631373000,0.540373046875,-0.0010224205907434225,0.0010695639066398144,-0.0013311421498656273
1772093649641322800,0.55032275390625,-0.001319605391472578,-0.000026717782020568848,-0.002150717657059431
1772093649651272700,0.560272705078125,0.001036226749420166,-0.001816628035157919,0.0021462927106767893
1772093649661221600,0.5702216796875,-0.0007624034769833088,-0.0004605138674378395,-0.0007239407859742641
1772093649671171800,0.580171875,-0.00018263328820466995,0.0009570869151502848,0.000613232608884573
1772093649681121800,0.590121826171875,0.0015489268116652966,-0.00020683789625763893,0.0005266978405416012
1772093649691070700,0.60007080078125,0.00042054569348692894,0.001229671062901616,-0.0013271286152303219
1772093649701020700,0.610020751953125,-0.0003534266725182533,0.0002862121909856796,0.00048387935385107994
1772093649710969900,0.619969970703125,0.0018181148916482925,-0.0008791866712272167,0.00022022658959031105
1772093649720919800,0.629919921875,-0.0012834779918193817,0.0023041311651468277,0.0009443550370633602
1772093649730869800,0.639869873046875,0.0025978130288422108,-0.0002383887767791748,0.0010287771001458168
1772093649740818700,0.649818603515625,0.0014359434135258198,-0.0014142910949885845,-0.0007920153439044952
1772093649750769000,0.659768798828125,0.00017333868891000748,-0.0005908417515456676,0.00095315370708704
1772093649760718800,0.66971875,0.00024504074826836586,-0.0016177869401872158,-0.00026510050520300865
1772093649770667800,0.679667724609375,0.0011494499631226063,-0.00212511932477355,0.0026755621656775475
1772093649780617700,0.68961767578125,-0.001671897480264306,0.00031877029687166214,-0.00012741191312670708
1772093649790568000,0.69956787109375,-0.00039704213850200176,-0.0008056163787841797,0.0028231043834239244
1772093649800516900,0.709516845703125,-0.000851592980325222,0.0028438654262572527,0.00007522664964199066
1772093649810466800,0.719466796875,0.0029910821467638016,0.0008182651363313198,0.0010680528357625008
1772093649820415700,0.729415771484375,-0.0012051770463585854,0.0012736828066408634,-0.00039081694558262825
1772093649830366000,0.739365966796875,0.00033572781831026077,-0.0006320751272141933,-0.001273654866963625
1772093649840316000,0.74931591796875,-0.0009725126437842846,0.0009369861800223589,0.0021977045107632875
1772093649850264800,0.759264892578125,0.0019324636086821556,-0.0007037874311208725,-0.0008606696501374245
1772093649860214800,0.76921484375,0.00022426433861255646,-0.000021120067685842514,-0.00044196564704179764
1772093649870165000,0.7791650390625,-0.00082954834215343,0.00035465182736516,-0.0007242606952786446
1772093649880114000,0.789114013671875,0.0011584609746932983,-0.0018033003434538841,-0.0011403397656977177
1772093649890064000,0.79906396484375,0.0009110532701015472,0.0020143408328294754,0.0009766072034835815
1772093649900013800,0.809013916015625,0.00024918559938669205,0.00021810457110404968,0.0014895093627274036
1772093649909963000,0.818962890625,0.0014766366221010685,0.0008066629525274038,-0.00018854858353734016
1772093649919912700,0.82891259765625,-0.001210133545100689,-0.000173117034137249,-0.003724742215126753
1772093649929862700,0.838862548828125,0.004020048305392265,-0.0016839285381138325,-0.0022474867291748524
1772093649939811600,0.8488115234375,0.0005069407634437084,0.0001145675778388977,-0.0006262189708650112
1772093649949761800,0.85876171875,-0.0011815035250037909,0.0010938120540231466,-0.0013801599852740765
1772093649959710700,0.868710693359375,-0.0007506210822612047,-0.0001322864554822445,0.0007783458568155766
1772093649969660700,0.87866064453125,-0.0007487570401281118,0.0000661192461848259,-0.001544729806482792
1772093649979611000,0.88861083984375,0.0019177566282451153,-0.0043226140551269054,-0.00021805940195918083
1772093649989559800,0.898559814453125,0.00020560994744300842,-0.0021382891573011875,-0.0016931844875216484
1772093649999509800,0.908509765625,0.000033925287425518036,0.0000721602700650692,0.000683832447975874
1772093650009459700,0.918459716796875,-0.0009647600818425417,0.0014530094340443611,-0.0029026465490460396
1772093650019408600,0.92840869140625,0.0008240239694714546,-0.008087320253252983,0.00007814215496182442
1772093650029358800,0.93835888671875,-0.00144498934969306,-0.038190893828868866,0.020723765715956688
1772093650039308800,0.948308837890625,-0.00140030262991786,0.016007965430617332,-0.010864414274692535
1772093650049257700,0.9582578125,0.001286294311285019,-0.02246645651757717,0.0017168903723359108
1772093650059208000,0.9682080078125,0.002462910022586584,-0.019257791340351105,0.012096546590328217
1772093650069156900,0.978156982421875,0.0003829812631011009,0.016241613775491714,-0.013687912374734879
1772093650079106800,0.98810693359375,0.0012395703233778477,-0.01425164844840765,0.0013745776377618313
1772093650089056800,0.998056884765625,0.0031956620514392853,0.0184562299400568,-0.004197554662823677
1772093650099006000,1.008005859375,0.0018212501890957355,0.02340751886367798,-0.007892955094575882
1772093650108956000,1.017955810546875,-0.0009255344048142433,-0.003118363209068775,-0.0043466887436807156
1772093650118905900,1.02790576171875,0.0015802066773176193,0.015033386647701263,-0.008098291233181953
1772093650128854800,1.037854736328125,-0.0001662946306169033,0.004453180357813835,0.00005018245428800583
1772093650138805000,1.047804931640625,0.0019478253088891506,-0.01210453175008297,0.0007443730719387531
1772093650148755000,1.0577548828125,-0.0007733926177024841,0.007981295697391033,-0.007599577307701111
1772093650158703900,1.067703857421875,0.00038448162376880646,-0.0021293465979397297,0.0030753740575164557
1772093650168653800,1.07765380859375,0.0007775644771754742,-0.0005037528462707996,-0.0014203083701431751
1772093650178603800,1.087603759765625,-0.0023021092638373375,-0.0012048548087477684,0.0006739119999110699
1772093650188553000,1.097552978515625,-0.0002157888375222683,-0.0032773269340395927,0.0010014805011451244
1772093650198502700,1.107502685546875,-0.0005472877528518438,0.0027844030410051346,-0.0037558134645223618
1772093650208451800,1.117451904296875,0.0018615415319800377,-0.002375471405684948,-0.0017810799181461334
1772093650218401800,1.12740185546875,-0.0017052798066288233,0.0009411314968019724,-0.0004141712561249733
1772093650228351700,1.137351806640625,0.001538450364023447,0.004159827716648579,0.0011965087614953518
1772093650238301000,1.147301025390625,0.00177409453317523,-0.0021880939602851868,0.002514156047254801
1772093650248250600,1.157250732421875,0.0002976381219923496,-0.0009145704098045826,-0.00006671342998743057
1772093650258200800,1.167200927734375,0.00020177895203232765,0.0008461545221507549,0.00010150857269763947
1772093650268149800,1.177149658203125,-0.001133796526119113,-0.0016497601754963398,-0.00218268483877182
1772093650278099700,1.187099609375,0.0010191029869019985,0.0007359483279287815,0.001484401524066925
1772093650288050000,1.1970498046875,-0.002121829194948077,-0.0011106873862445354,0.001195182092487812
1772093650297997600,1.20699755859375,0.0007995921187102795,0.00010811584070324898,-0.00013543479144573212
1772093650307947500,1.216947509765625,0.0008600456640124321,0.001922793686389923,0.00024699512869119644
1772093650317896400,1.226896484375,0.0015190020203590393,0.00016468297690153122,0.0007172198966145515
1772093650327846400,1.236846435546875,-0.0020775971934199333,0.0016334161628037691,0.001119889784604311
1772093650337796400,1.24679638671875,-0.000630777096375823,-0.0009796186350286007,0.0014823428355157375
1772093650347745500,1.25674560546875,-0.0005791117437183857,0.0005532968789339066,0.0005028322339057922
1772093650357695200,1.2666953125,-0.0022457255981862545,-0.000034038443118333817,-0.0006880434229969978
1772093650367645400,1.2766455078125,-0.0004664675798267126,0.0010357534047216177,0.0003457954153418541
1772093650377594400,1.286594482421875,0.00025178212672472,0.0018899072892963886,0.001197663601487875
1772093650387544300,1.29654443359375,0.0008941367268562317,0.0011974854860454798,-0.000031651463359594345
1772093650397494500,1.30649462890625,-0.0001360843889415264,-0.0017199967987835407,0.0002571204677224159
1772093650407443500,1.316443359375,0.0004159891977906227,-0.0032688910141587257,0.0000501926988363266
1772093650417393400,1.326393310546875,0.0017489586025476456,-0.00024468544870615005,-0.0007334989495575428
1772093650427342300,1.33634228515625,0.0002727685496211052,-0.0003602663055062294,-0.0002786307595670223
1772093650437292300,1.346292236328125,0.002501190174371004,-0.000608513131737709,-0.00008562346920371056
1772093650447242500,1.356242431640625,-0.001321511110290885,0.0012370576150715351,-0.000010522548109292984
1772093650457191400,1.36619140625,0.0010948022827506065,0.0010050185956060886,-0.0007800995372235775
1772093650467141400,1.376141357421875,0.00045963842421770096,0.0008998238481581211,0.00022710813209414482
1772093650477091600,1.386091552734375,0.0007455926388502121,0.0019760357681661844,-0.0015635914169251919
1772093650487040500,1.39604052734375,0.0017924816347658634,0.0016087859403342009,0.0014662868343293667
1772093650496990500,1.405990478515625,-0.0001367931254208088,0.00020251749083399773,-0.00043893326073884964
1772093650506940400,1.4159404296875,0.002278693951666355,0.0006805546581745148,-0.0008605117909610271
1772093650516889300,1.425889404296875,0.0008729388937354088,-0.0005362923257052898,-0.0003309887833893299
1772093650526839600,1.435839599609375,0.0015445882454514503,0.0011923653073608875,-0.0008606915362179279
1772093650536788500,1.44578857421875,-0.0008359302300959826,-0.0017800363712012768,-0.0007361304014921188
1772093650546738400,1.455738525390625,-0.0010923927184194326,0.00031453976407647133,-0.0030064755119383335
1772093650556688600,1.465688720703125,0.0007567424327135086,-0.0010970341973006725,0.00014411471784114838
1772093650566637600,1.475637451171875,0.00012504076585173607,0.00023161666467785835,-0.001287067774683237
1772093650576587500,1.48558740234375,0.0007050363346934319,0.000022585038095712662,0.00018273992463946342
1772093650586537500,1.495537353515625,-0.0012678331695497036,0.0019001136533915997,-0.00009209848940372467
1772093650596486400,1.505486328125,-0.00007436471059918404,-0.000025281216949224472,0.0014864164404571056
1772093650606436600,1.5154365234375,-0.0010232487693428993,-0.00009798584505915642,-0.003079839516431093
1772093650616386300,1.52538623046875,0.0004502176307141781,0.0006205565296113491,0.001583282370120287
1772093650626335500,1.53533544921875,0.0013551595620810986,0.0011981960851699114,0.0013270862400531769
1772093650636285400,1.545285400390625,-0.0019529322162270546,-0.00009484915062785149,-0.0014411709271371365
1772093650646234600,1.555234619140625,-0.0021361575927585363,-0.000015220604836940765,-0.0007820385508239269
1772093650656184300,1.565184326171875,0.00030217645689845085,0.0005266242660582066,0.00014110328629612923
1772093650666134300,1.57513427734375,0.0005924608558416367,-0.0016260091215372086,-0.001989425625652075
1772093650676083200,1.585083251953125,0.0006050840020179749,-0.0005204807966947556,-0.0017565093003213406
1772093650686033400,1.595033447265625,0.0037502767518162727,0.0016225650906562805,-0.0005330531857907772
1772093650695983400,1.6049833984375,0.0026132785715162754,-0.0006621507927775383,0.00027212826535105705
1772093650705932300,1.614932373046875,0.0012721107341349125,0.0001892615109682083,0.0003339136019349098
1772093650715882500,1.624882568359375,0.0028168903663754463,-0.0008185170590877533,-0.0025450573302805424
1772093650725832400,1.63483251953125,0.0004778360016644001,-0.00118949543684721,-0.00005580112338066101
1772093650735781400,1.644781494140625,0.002671445719897747,0.0015340158715844154,-0.0010362733155488968
1772093650745731300,1.6547314453125,0.0004045632667839527,-0.0006053014658391476,-0.00036675436422228813
1772093650755680500,1.664680419921875,0.0002674749121069908,-0.000022913329303264618,0.0008280086331069469
1772093650765630500,1.67463037109375,0.00005628587678074837,0.00005991058424115181,0.002007256494835019
1772093650775580400,1.684580322265625,-0.001140819163993001,-0.0011974661611020565,-0.001692398451268673
1772093650785529300,1.694529296875,0.0015708114951848984,0.001252908492460847,-0.0003427085466682911
1772093650795479600,1.7044794921875,0.00042219972237944603,-0.0005114474333822727,-0.00020547909662127495
1772093650805429500,1.714429443359375,0.00021180976182222366,-0.002660618629306555,-0.0019192234613001347
1772093650815378400,1.72437841796875,-0.0024333219043910503,0.00024315202608704567,0.00117048854008317
1772093650825328400,1.734328369140625,-0.0005760332569479942,0.00026339245960116386,-0.00022633932530879974
1772093650835278600,1.744278564453125,0.0018913587555289268,-0.0019402969628572464,-0.0015716878697276115
1772093650845227500,1.7542275390625,-0.0011808639392256737,0.001304232282564044,0.0006872056983411312
1772093650855177500,1.764177490234375,0.0026522045955061913,-0.004122497513890266,0.0004243208095431328
1772093650865126400,1.77412646484375,-0.00251539284363389,-0.002676667645573616,-0.00020711449906229973
1772093650875076600,1.78407666015625,0.0016191229224205017,0.0005960664711892605,0.0013199876993894577
1772093650885026600,1.794026611328125,0.0020814472809433937,0.0008850193116813898,0.0024686090182513
1772093650894975500,1.8039755859375,0.0004574386402964592,-0.0014964882284402847,-0.002437676303088665
1772093650904925400,1.813925537109375,0.0016127177514135838,0.0003701210953295231,0.0013061952777206898
1772093650914875400,1.82387548828125,0.0025847717188298702,0.002088684355840087,-0.0022854809649288654
1772093650924824600,1.833824462890625,0.002427911851555109,-0.002047471236437559,-0.0010660192929208279
1772093650934774300,1.843774169921875,-0.0005464553833007812,0.0001662997528910637,-0.0003775297664105892
1772093650944724500,1.853724365234375,-0.0007344745099544525,0.0002725599333643913,0.0005987854674458504
1772093650954673400,1.86367333984375,0.0008980771526694298,-0.0014829309657216072,0.00004332372918725014
1772093650964623400,1.873623291015625,0.0017737243324518204,-0.0016166213899850845,-0.001756973098963499
1772093650974572500,1.883572509765625,-0.0014095588121563196,0.0023234677501022816,0.0013575325720012188
1772093650984522200,1.893522216796875,-0.0006308506708592176,0.0008944154251366854,0.00033061765134334564
1772093650994472400,1.903472412109375,-0.0006628886330872774,0.000006263144314289093,-0.0008866488933563232
1772093651004421400,1.91342138671875,-0.00017233425751328468,-0.0011924258433282375,-0.00005441112443804741
1772093651014371300,1.923371337890625,0.0006295819766819477,-0.0022262083366513252,-0.0021200361661612988
1772093651024321500,1.933321533203125,-0.0007872194983065128,-0.0010277857072651386,-0.00029044458642601967
1772093651034270500,1.9432705078125,-0.0011288654059171677,0.0011165561154484749,-0.00016226666048169136
1772093651044220400,1.953220458984375,0.0011920793913304806,0.0023962052073329687,0.002651096787303686
1772093651054170400,1.96317041015625,0.0016965894028544426,-0.000983330886811018,0.000327827874571085
1772093651064119300,1.973119384765625,0.0004704701714217663,-0.0006400491110980511,0.0004998678341507912
1772093651074069500,1.983069580078125,0.00006729783490300179,0.000943170627579093,-0.0012430520728230476
1772093651084018400,1.993018310546875,0.0016982178203761578,-0.0004203678108751774,-0.0005943062715232372
1772093651093968400,2.002968505859375,-0.0008581194560974836,-0.005320848431438208,-0.0006156242452561855
1772093651103918600,2.012918701171875,0.0003379061818122864,-0.0021644695661962032,-0.0003200136125087738
1772093651113867500,2.022867431640625,-0.0005654438864439726,-0.0008069882169365883,0.00042114825919270515
1772093651123817500,2.0328173828125,-0.0020232582464814186,0.0014945156872272491,0.001015565823763609
1772093651133767400,2.042767333984375,0.0011506197042763233,-0.00029846373945474625,0.0006304793059825897
1772093651143716400,2.05271630859375,0.0006566033698618412,-0.0011019394733011723,-0.001043850090354681
1772093651153666600,2.06266650390625,0.0012099603191018105,-0.00002951687201857567,0.0012865629978477955
1772093651163616500,2.072616455078125,0.0006797248497605324,0.0007907366380095482,0.002476729918271303
1772093651173565400,2.0825654296875,-0.0019173035398125648,0.00009510153904557228,0.0008454802446067333
1772093651183515600,2.092515625,0.001304322388023138,0.0025638521183282137,-0.00031725596636533737
1772093651193464600,2.102464599609375,-0.0017586948815733194,0.0007063096854835749,-0.0006145210936665535
1772093651203414500,2.11241455078125,0.002775869332253933,0.000643991632387042,0.00037857191637158394
1772093651213364500,2.122364501953125,-0.0031434064731001854,-0.00033835507929325104,0.0014096335507929325
1772093651223313400,2.1323134765625,-0.001089043915271759,0.00036019226536154747,0.000013072043657302856
1772093651233263600,2.142263671875,-0.0003436701372265816,-0.0015060650184750557,-0.0004576747305691242
1772093651243213300,2.15221337890625,0.002708844840526581,0.001242583617568016,-0.00039562350139021873
1772093651253162500,2.16216259765625,0.0014014770276844501,-0.000166197307407856,0.0037427362985908985
1772093651263112400,2.172112548828125,-0.0007394379936158657,-0.00029536057263612747,-0.000394218135625124
1772093651273062400,2.1820625,-0.000195356085896492,0.0032336837612092495,0.0027659498155117035
1772093651283011300,2.19201123046875,-0.0003791141789406538,0.0006333733908832073,0.00026257848367094994
1772093651292961300,2.201961181640625,0.0013783718459308147,0.0004059337079524994,0.0018000155687332153
1772093651302910700,2.21191064453125,-0.00002191821113228798,0.0010602723341435194,0.001304667443037033
1772093651312860700,2.221860595703125,0.00008638855069875717,-0.000038339290767908096,-0.0015916773118078709
1772093651322810600,2.231810546875,-0.0013756868429481983,-0.0011928197927772999,0.001389998011291027
1772093651332759600,2.241759521484375,0.00034351786598563194,-0.0003607715480029583,0.00003838958218693733
1772093651342709800,2.251709716796875,-0.00003038998693227768,-0.0011013969779014587,0.0023662587627768517
1772093651352659700,2.26165966796875,-0.0005224118940532207,0.0015278139617294073,-0.0002571558579802513
1772093651362608600,2.271608642578125,-0.003409811295568943,-0.0013321549631655216,0.0038505038246512413
1772093651372558600,2.28155859375,-0.0003792878706008196,-0.0020161098800599575,-0.0011346922256052494
1772093651382508800,2.2915087890625,-0.0008570589125156403,0.0010041811037808657,0.001190247479826212
1772093651392457700,2.301457763671875,-0.000734653091058135,0.0009606631938368082,0.002560643246397376
1772093651402407700,2.31140771484375,-0.0013298694975674152,-0.002098243683576584,-0.000012236647307872772
1772093651412356600,2.321356689453125,-0.0014410184230655432,0.001500988844782114,-0.0014683208428323269
1772093651422306800,2.331306884765625,-0.0020018802024424076,-0.003327588550746441,0.003093407489359379
1772093651432256800,2.3412568359375,0.00035768747329711914,0.0013984998222440481,0.00052675511687994
1772093651442205700,2.351205810546875,-0.0009089121595025063,0.000752416905015707,0.0016838985029608011
1772093651452155600,2.36115576171875,0.0001766979694366455,-0.00230672350153327,0.0008519422262907028
1772093651462105900,2.37110595703125,-0.0012012214865535498,0.0007551128510385752,0.000032753683626651764
1772093651472054800,2.3810546875,0.0007287003099918365,0.0009237970225512981,0.0027108616195619106
1772093651482004700,2.391004638671875,0.0010096635669469833,-0.0012493426911532879,-0.0021211779676377773
1772093651491954700,2.40095458984375,0.0004724613390862942,0.0007973872125148773,0.000956706702709198
1772093651501904000,2.41090380859375,0.0016272077336907387,0.0024078006390482187,0.0017410079017281532
1772093651511853600,2.420853515625,0.0013863551430404186,0.0009772449266165495,-0.0014997958205640316
1772093651521802800,2.430802734375,0.00018207402899861336,0.0029389294795691967,-0.002161324955523014
1772093651531752700,2.440752685546875,-0.000008466653525829315,-0.0023422283120453358,-0.0030630510300397873
1772093651541702700,2.45070263671875,0.0006709056906402111,0.0006277286447584629,0.0016222477424889803
1772093651551651800,2.46065185546875,-0.00021239789202809334,-0.0009013982489705086,-0.0017645028419792652
1772093651561601500,2.4706015625,0.000992682296782732,-0.0013717124238610268,-0.0005831243470311165
1772093651571551700,2.4805517578125,0.0010126493871212006,0.0012757093645632267,0.00002202950417995453
1772093651581500700,2.490500732421875,-0.0007626134902238846,0.000940950121730566,0.0006268336437642574
1772093651591450600,2.50045068359375,0.00038531189784407616,0.0009045086335390806,-0.0007174629718065262
1772093651601400600,2.510400634765625,-0.0011811594013124704,0.003090165089815855,-0.0004588700830936432
1772093651611349500,2.520349609375,-0.0009970415849238634,0.000543517991900444,0.00009575160220265388
1772093651621299700,2.5302998046875,-0.0003815852105617523,-0.003255747724324465,0.00028670020401477814
1772093651631249700,2.540249755859375,-0.0013166975695639849,-0.0019719325937330723,-0.0010180920362472534
1772093651641198600,2.550198486328125,0.0011512539349496365,0.0010342434979975224,-0.002209856640547514
1772093651651148800,2.560148681640625,-0.0035986769944429398,0.001821594312787056,0.00154429255053401
1772093651661097700,2.57009765625,-0.0014074279461055994,-0.001942517701536417,0.0004105847328901291
1772093651671047700,2.580047607421875,-0.0017918276134878397,0.00011865748092532158,-0.0005973968654870987
1772093651680997600,2.58999755859375,-0.0011406848207116127,-0.00025738123804330826,0.000049219001084566116
1772093651690946600,2.599946533203125,-0.001340791815891862,-0.00047490932047367096,0.0006619100458920002
1772093651700896800,2.609896728515625,-0.0005330550484359264,-0.0008749160915613174,-0.0015714168548583984
1772093651710846700,2.6198466796875,-0.00016624899581074715,-0.002342286054044962,0.001422664150595665
1772093651720795600,2.629795654296875,-0.000493817962706089,-0.0011539836414158344,-0.00014087744057178497
1772093651730745900,2.639745849609375,-0.0012759387027472258,0.0005838451907038689,-0.0008529736660420895
1772093651740695800,2.64969580078125,-0.0012849934864789248,0.0010645457077771425,-0.00036295177415013313
1772093651750644700,2.659644775390625,-0.0021344798151403666,0.002693262416869402,0.0019297129474580288
1772093651760594700,2.6695947265625,0.0013377494178712368,0.0016011002007871866,0.0009510014206171036
1772093651770544600,2.679544677734375,-0.0009744430426508188,-0.001263138372451067,-0.002454054541885853
1772093651780493800,2.689493896484375,0.00019681500270962715,0.0005938839167356491,0.0015476108528673649
1772093651790443800,2.69944384765625,-0.0009687677957117558,-0.0004455931484699249,0.0018375208601355553
1772093651800392700,2.709392822265625,-0.00130352727137506,-0.0029223328456282616,-0.00013321824371814728
1772093651810343000,2.719343017578125,-0.002181823132559657,-0.0007972638122737408,-0.002170529216527939
1772093651820292600,2.729292724609375,0.000567357987165451,0.0035703200846910477,0.00021273363381624222
1772093651830241800,2.73924169921875,-0.0005841453094035387,-0.0017476952634751797,-0.0006806631572544575
1772093651840191500,2.74919140625,-0.0008134434465318918,-0.005062265321612358,-0.0006167469546198845
1772093651850141700,2.7591416015625,0.00015921937301754951,0.0018668656703084707,0.000558971893042326
1772093651860090600,2.769090576171875,0.0007477779872715473,0.0006388821639120579,-0.002229624427855015
1772093651870040600,2.77904052734375,-0.0007716766558587551,-0.0009704865515232086,-0.0023610107600688934
1772093651879990500,2.788990478515625,-0.001187396002933383,-0.00036168796941637993,-0.0023719295859336853
1772093651889939700,2.798939697265625,-0.0014601689763367176,-0.0006997669115662575,-0.0009769811294972897
1772093651899889700,2.8088896484375,-0.00021247798576951027,0.00016682548448443413,-0.0007570041343569756
1772093651909838600,2.818838623046875,-0.00007016165181994438,-0.00237512169405818,-0.00037619564682245255
1772093651919788500,2.82878857421875,0.0009117457084357738,0.0013604944106191397,0.0010635089129209518
1772093651929738800,2.83873876953125,0.0015462534502148628,-0.001228229608386755,-0.0008727316744625568
1772093651939687700,2.848687744140625,0.00006420444697141647,-0.000996268354356289,0.001564060803502798
1772093651949637600,2.8586376953125,-0.001702567096799612,0.000011175870895385742,0.0001994529739022255
1772093651959587800,2.868587890625,0.001983514055609703,0.0008186462800949812,-0.0016517103649675846
1772093651969536800,2.878536865234375,-0.0002445131540298462,0.0022584169637411833,-0.0002813371829688549
1772093651979486700,2.88848681640625,0.0036029554903507233,-0.00037731369957327843,-0.0013977340422570705
1772093651989436700,2.898436767578125,-0.0007950470317155123,0.00030990876257419586,-0.0021729739382863045
1772093651999385600,2.908385498046875,-0.0025479397736489773,0.0024138058070093393,-0.00008425675332546234
1772093652009335800,2.918335693359375,-0.0009005311876535416,-0.001541715580970049,0.0006189402192831039
1772093652019285800,2.92828564453125,0.0003423662856221199,-0.0026298831216990948,-0.0007121074013411999
1772093652029234700,2.938234619140625,-0.0016647856682538986,0.0003514890559017658,0.0003729383461177349
1772093652039185000,2.948184814453125,-0.00022907555103302002,-0.0012245695106685162,0.0006698807701468468
1772093652049133800,2.9581337890625,0.0011012502945959568,0.0007352475076913834,0.0005114926025271416
1772093652059083800,2.968083740234375,0.0016538561321794987,-0.0005654403939843178,-0.002004395704716444
1772093652069033700,2.97803369140625,0.0006236922927200794,-0.0016262447461485863,0.001750030554831028
1772093652078982700,2.987982666015625,0.0006628409028053284,-0.00007841549813747406,-0.0005219122394919395
1772093652088932900,2.997932861328125,-0.00009500235319137573,0.0005378993228077888,-0.000645423773676157
1772093652098882600,3.007882568359375,0.00009008729830384254,-0.00026344601064920425,0.00020092865452170372
1772093652108831700,3.017831787109375,-0.0005173396784812212,0.002974956063553691,-0.0010780226439237595
1772093652118781700,3.02778173828125,0.0008017239160835743,-0.0006227083504199982,-0.0007866728119552135
1772093652128731600,3.037731689453125,-0.0004898393526673317,0.000048306770622730255,-0.00220552459359169
1772093652138680600,3.0476806640625,0.000038265250623226166,0.0003175521269440651,0.0017141157295554876
1772093652148630500,3.057630615234375,-0.00033992622047662735,0.00004960596561431885,0.0021715122275054455
1772093652158580700,3.067580810546875,0.0004403800703585148,0.000781708862632513,0.000687865074723959
1772093652168529700,3.07752978515625,0.0022674533538520336,0.003835817566141486,0.001678556902334094
1772093652178479600,3.087479736328125,-0.0012170264963060617,-0.002116879913955927,0.0008577704429626465
1772093652188428500,3.097428466796875,0.0034327716566622257,0.0007060174830257893,0.000623080413788557
1772093652198378800,3.107378662109375,-0.0010988633148372173,0.000457011628895998,0.00047420943155884743
1772093652208328700,3.11732861328125,-0.0013836228754371405,-0.0017928974702954292,0.0012444611638784409
1772093652218277600,3.127277587890625,0.0008542314171791077,-0.0031870617531239986,0.0007589668966829777
1772093652228227600,3.1372275390625,-0.002425756771117449,0.00026429491117596626,0.001412014476954937
1772093652238177800,3.147177734375,0.002224921714514494,-0.00005821371451020241,0.0005323723889887333
1772093652248126700,3.157126708984375,-0.0019334659446030855,-0.0016235746443271637,-0.0005919234827160835
1772093652258076700,3.16707666015625,0.000007712282240390778,-0.0008102450519800186,-0.00033040111884474754
1772093652268026600,3.177026611328125,-0.001061389921233058,-0.0016306485049426556,0.001119048334658146
1772093652277975800,3.186975830078125,0.0026747588999569416,-0.003116958774626255,-0.00035687536001205444
1772093652287925800,3.19692578125,0.0007773623801767826,0.00011628959327936172,0.0012543238699436188
1772093652297875500,3.20687548828125,-0.0011233354452997446,0.0005567767657339573,-0.00040855398401618004
1772093652307824400,3.216824462890625,0.0038675135001540184,-0.00029592961072921753,-0.0021498403511941433
1772093652317774300,3.2267744140625,-0.0008164544124156237,0.0015094270929694176,-0.002270481549203396
1772093652327723300,3.23672314453125,0.0006172233261168003,0.0017980178818106651,0.0028021277394145727
1772093652337673500,3.246673583984375,-0.00040063681080937386,-0.002170624677091837,-0.00015291571617126465
1772093652347623400,3.25662353515625,0.00038584787398576736,0.000505377072840929,0.0024368667509406805
1772093652357572400,3.266572265625,0.0009112898260354996,-0.0012310040183365345,-0.001006600446999073
1772093652367522600,3.2765224609375,0.0005560014396905899,0.0006779222749173641,0.0005937740206718445
1772093652377472500,3.286472412109375,0.0016359132714569569,-0.0010206419974565506,-0.0008770902641117573
1772093652387421400,3.29642138671875,-0.0008228414226323366,0.0004175463691353798,0.003819767152890563
1772093652397371400,3.306371337890625,0.0009665368124842644,0.0021211702842265368,0.0009978818707168102
1772093652407321300,3.3163212890625,0.00038254959508776665,-0.0013124225661158562,-0.0019122008234262466
1772093652417270500,3.3262705078125,0.0006414088420569897,0.000038599129766225815,-0.0030019665136933327
1772093652427220200,3.33622021484375,0.0011302502825856209,-0.0004893597215414047,-0.002220151014626026
1772093652437170200,3.346170166015625,0.001642376184463501,0.0012044108007103205,0.00002808915451169014
1772093652447119400,3.356119384765625,0.0005347253754734993,-0.000871789176017046,-0.0005485434085130692
1772093652457069300,3.3660693359375,0.0002534957602620125,0.001999364700168371,-0.0016569513827562332
1772093652467019300,3.376019287109375,-0.0002128714695572853,0.0003382326103746891,-0.0007769772782921791
1772093652476968200,3.38596826171875,-0.0014634919352829456,0.0013318578712642193,0.00012849736958742142
1772093652486918400,3.39591845703125,0.0021948288194835186,0.001096653752028942,-0.0013627060689032078
1772093652496867300,3.405867431640625,-0.0003245214466005564,0.00009503867477178574,-0.00026175566017627716
1772093652506817300,3.4158173828125,0.0011285445652902126,0.0007240423001348972,-0.0006186999380588531
1772093652516767200,3.425767333984375,0.0008683539927005768,-0.001660552341490984,0.0004979632794857025
1772093652526716400,3.43571630859375,-0.0029531847685575485,0.0013087959960103035,0.000886223278939724
1772093652536666400,3.445666259765625,0.0003664456307888031,0.000027283094823360443,-0.00029302434995770454
1772093652546616300,3.4556162109375,-0.001434297300875187,0.0020194186363369226,0.0032222496811300516
1772093652556565200,3.465565185546875,0.001502370461821556,-0.00017609121277928352,0.00041101686656475067
1772093652566515500,3.475515380859375,0.00026889145374298096,0.003278925083577633,-0.0003599831834435463
1772093652576465400,3.48546533203125,0.00023134052753448486,0.0001427866518497467,-0.002354690805077553
1772093652586414300,3.495414306640625,0.0016431929543614388,0.002894510282203555,0.00258673750795424
1772093652596364300,3.5053642578125,-0.0007840122561901808,-0.0009931721724569798,0.00011772103607654572
1772093652606314500,3.515314453125,0.0008669928647577763,-0.00032255519181489944,-0.000851490069180727
1772093652616263400,3.525263427734375,0.00047577451914548874,0.0010220748372375965,-0.0008080806583166122
1772093652626213400,3.53521337890625,0.001137415412813425,0.0008485096041113138,-0.0007241056300699711
1772093652636163600,3.54516357421875,0.0008071833290159702,0.0004466385580599308,-0.0006665815599262714
1772093652646112500,3.555112548828125,-0.0006105110514909029,-0.0003835749812424183,-0.0007678130641579628
1772093652656062500,3.5650625,0.00004489300772547722,-0.0002645314671099186,0.0026381039060652256
1772093652666011400,3.575011474609375,0.0010684002190828323,-0.00012179696932435036,-0.0004831617698073387
1772093652675961300,3.58496142578125,0.001706493552774191,0.0012388117611408234,-0.00015452736988663673
1772093652685911300,3.594911376953125,-0.000056828372180461884,0.00018221093341708183,-0.0008187857456505299
1772093652695860500,3.604860595703125,0.0022619860246777534,0.001446946058422327,-0.00020439457148313522
1772093652705810400,3.614810546875,-0.0009436325635761023,0.0005172193050384521,0.0002602911554276943
1772093652715760400,3.624760498046875,-0.0010898399632424116,0.0028059398755431175,-0.0004939157515764236
1772093652725709300,3.634709228515625,-0.0034238616935908794,0.0020978664979338646,-0.0010574432089924812
1772093652735659300,3.6446591796875,-0.0033956323750317097,-0.0002734120935201645,-0.0014630425721406937
1772093652745609200,3.654609130859375,0.0012926319614052773,0.0001427200622856617,-0.0014113644137978554
1772093652755558100,3.66455810546875,-0.0006642588414251804,0.00152436806820333,-0.0007759341970086098
1772093652765508400,3.67450830078125,0.00038939574733376503,0.001418763305991888,-0.0013332469388842583
1772093652775458300,3.684458251953125,-0.00020741857588291168,0.0023953444324433804,0.001633514417335391
1772093652785407200,3.6944072265625,0.0012827599421143532,-0.002081022597849369,-0.001144446898251772
1772093652795357400,3.704357421875,0.0017213826067745686,-0.00018218858167529106,-0.0019007842056453228
1772093652805307400,3.714307373046875,-0.0010052516590803862,0.0007756608538329601,0.00038240058347582817
1772093652815256300,3.72425634765625,0.00006480654701590538,-0.0003966628573834896,0.0009597740136086941
1772093652825206300,3.734206298828125,-0.0006636830512434244,-0.0015727742575109005,-0.00001208484172821045
1772093652835155200,3.7441552734375,0.0001453855074942112,0.001397982006892562,-0.000933538656681776
1772093652845105400,3.75410546875,-0.00003408035263419151,0.0004069032147526741,0.00047139963135123253
1772093652855055400,3.764055419921875,0.0013028266839683056,0.0015731013845652342,0.00022612279281020164
1772093652865004300,3.77400439453125,-0.0002845092676579952,0.00012371456250548363,-0.0003538345918059349
1772093652874954500,3.78395458984375,-0.0004011555574834347,-0.0006472705863416195,0.00018945010378956795
1772093652884904400,3.793904541015625,0.0016147587448358536,-0.0008221538737416267,-0.0001241522841155529
1772093652894853400,3.803853271484375,0.0006118123419582844,-0.0009249523282051086,0.00016852933913469315
1772093652904803300,3.81380322265625,-0.0017647999338805676,0.0003538327291607857,0.0003739781677722931
1772093652914753500,3.82375341796875,0.0006663999520242214,-0.0012278188951313496,0.0024605649523437023
1772093652924702500,3.833702392578125,0.000030427705496549606,0.001423948910087347,-0.0008116103708744049
1772093652934652400,3.84365234375,0.00046665361151099205,0.001979750581085682,0.002109610941261053
1772093652944602400,3.853602294921875,-0.000499524874612689,0.0003082198090851307,0.00023353192955255508
1772093652954551600,3.863551513671875,0.0010208738967776299,0.00236364733427763,-0.0008985777385532856
1772093652964501500,3.87350146484375,-0.0013983706012368202,0.0017230918165296316,-0.00024852529168128967
1772093652974450400,3.883450439453125,0.000669573899358511,0.0013680923730134964,0.0009381789714097977
1772093652984400400,3.893400390625,0.000583023764193058,0.0007080710493028164,-0.00011267838999629021
1772093652994350300,3.903350341796875,0.0008791675791144371,0.0031571139115840197,-0.0004873853176832199
1772093653004299500,3.913299560546875,0.0012976499274373055,-0.0008625080808997154,0.0007614302448928356
1772093653014249200,3.923249267578125,0.000356488861143589,0.00023285020142793655,-0.00009690644219517708
1772093653024199200,3.93319921875,0.0013805362395942211,-0.000984027050435543,0.0017061084508895874
1772093653034148400,3.9431484375,-0.0009491972159594297,0.00027857767418026924,-0.003283856436610222
1772093653044098300,3.953098388671875,0.002527053002268076,0.0012486418709158897,-0.001412135548889637
1772093653054048300,3.96304833984375,-0.0013547707349061966,0.0006385114975273609,-0.00028348760679364204
1772093653063997200,3.9729970703125,0.0016504740342497826,-0.0018932442180812359,0.00008355872705578804
1772093653073947400,3.982947509765625,0.0006589791737496853,-0.0007451553829014301,-0.00031325221061706543
1772093653083897300,3.9928974609375,0.0015069693326950073,0.0007581543177366257,0.00088847940787673
1772093653093846300,4.00284619140625,0.0006017605774104595,-0.003018474206328392,-0.001211689319461584
1772093653103796200,4.012796142578125,-0.0005646087229251862,0.0003151288256049156,-0.0003895387053489685
1772093653113746400,4.022746337890625,-0.00030148844234645367,0.004180174320936203,0.0010256650857627392
1772093653123695400,4.0326953125,0.0005982690490782261,-0.002209611237049103,0.0008393013849854469
1772093653133645300,4.042645263671875,0.0009982758201658726,-0.001097741536796093,-0.001344757154583931
1772093653143595500,4.052595458984375,0.000019547995179891586,-0.002088768407702446,-0.00045291706919670105
1772093653153544400,4.06254443359375,0.001763385720551014,0.0005578813143074512,-0.0011349525302648544
1772093653163494400,4.072494384765625,-0.0012566964142024517,0.0008075244259089231,0.0018706836272031069
1772093653173443300,4.082443359375,0.0005169687792658806,0.0014607978519052267,-0.0024092821404337883
1772093653183393500,4.0923935546875,0.0010399878956377506,0.0012682070955634117,0.00011913059279322624
1772093653193343500,4.102343505859375,-0.0012423412408679724,0.001463150605559349,-0.0001450548879802227
1772093653203292400,4.11229248046875,0.0013510026037693024,0.0006627966649830341,-0.000849367119371891
1772093653213242400,4.122242431640625,-0.0002636718563735485,0.0009738537482917309,0.001012182328850031
1772093653223192600,4.132192626953125,0.0016418332234025002,0.0007842122577130795,0.0004118788056075573
1772093653233141500,4.1421416015625,-0.0007547454442828894,-0.0010549668222665787,0.00038178497925400734
1772093653243091500,4.152091552734375,0.000697313342243433,-0.00035252561792731285,-0.0009272145107388496
1772093653253041200,4.162041259765625,0.0016592470929026604,-0.0002981969155371189,-0.0020702434703707695
1772093653262990600,4.171990478515625,-0.00010182196274399757,0.000753193162381649,-0.002231200225651264
1772093653272940300,4.181940185546875,0.0004515829496085644,0.00418840441852808,-0.00013023242354393005
1772093653282890200,4.19189013671875,-0.001378845190629363,-0.0018457607366144657,0.002468293299898505
1772093653292839200,4.201839111328125,0.002770625986158848,-0.00004013720899820328,-0.002939788158982992
1772093653302789000,4.2117890625,0.0001712040975689888,-0.00020629633218050003,-0.000615627970546484
1772093653312738300,4.22173828125,0.0003624190576374531,0.0005148877389729023,-0.0007658302783966064
1772093653322688000,4.23168798828125,0.00031465431675314903,0.0011927962768822908,-0.0009330450557172298
1772093653332638200,4.24163818359375,0.00010905833914875984,-0.002461060881614685,-0.0015876502729952335
1772093653342587100,4.251587158203125,0.00232661422342062,0.00019719917327165604,-0.0023303446359932423
1772093653352537000,4.261537109375,-0.0009525362402200699,0.0005466057918965816,-0.001134585589170456
1772093653362487000,4.271487060546875,0.0000248858705163002,0.0012903488241136074,0.0015932621899992228
1772093653372436200,4.281436279296875,0.00034020422026515007,-0.0002899710088968277,0.00022333208471536636
1772093653382386200,4.29138623046875,0.0001460956409573555,-0.004373029340058565,-0.0008415719494223595
1772093653392336100,4.301336181640625,0.0009567616507411003,0.0015919189900159836,0.0006087855435907841
1772093653402285000,4.31128515625,-0.0027832025662064552,0.0009171976707875729,0.0017555325757712126
1772093653412235300,4.3212353515625,0.001140698790550232,0.0008327756077051163,-0.0023252288810908794
1772093653422185200,4.331185302734375,-0.001522375037893653,-0.000017025042325258255,-0.00039412127807736397
1772093653432134100,4.341134033203125,0.0027317586354911327,0.002027750015258789,0.0006184126250445843
1772093653442084400,4.35108447265625,-0.0009856901597231627,-0.00009956071153283119,-0.001372466329485178
1772093653452034300,4.361034423828125,-0.0003582495264708996,-0.0021997294388711452,-0.0018912502564489841
1772093653461983200,4.370983154296875,-0.0008086566813290119,-0.0008829422295093536,0.0008684201166033745
1772093653471933200,4.38093310546875,-0.0013889595866203308,-0.0000445791520178318,0.00026335008442401886
1772093653481882000,4.390882080078125,0.0036783250980079174,-0.002162550576031208,-0.0005299821496009827
1772093653491832300,4.400832275390625,-0.001309509389102459,-0.0010280441492795944,-0.0012913797982037067
1772093653501782300,4.4107822265625,-0.0013169038575142622,0.0005711414851248264,-0.001234056893736124
1772093653511731200,4.420731201171875,-0.0015605830121785402,0.000156487338244915,-0.0006566839292645454
1772093653521681400,4.430681396484375,-0.002088518813252449,-0.001184574794024229,0.002397139323875308
1772093653531631000,4.440631103515625,-0.0007058056071400642,0.000720650888979435,-0.00005936063826084137
1772093653541580300,4.450580322265625,-0.0010728880297392607,-0.0016823108308017254,-0.0003134324215352535
1772093653551530200,4.4605302734375,-0.00024144910275936127,-0.001511335838586092,0.0006021619774401188
1772093653561480200,4.470480224609375,-0.0021496410481631756,-0.002317474689334631,0.001714271493256092
1772093653571429400,4.480429443359375,-0.0000318954698741436,-0.0026125526055693626,0.0010751127265393734
1772093653581379000,4.490379150390625,0.000143369659781456,0.00023202784359455109,0.001124255359172821
1772093653591329000,4.5003291015625,-0.0028691980987787247,-0.0014814501628279686,0.0018995015416294336
1772093653601278200,4.5102783203125,0.0005432497709989548,-0.00017653778195381165,-0.0016732458025217056
1772093653611228200,4.520228271484375,0.001033271662890911,0.002289283089339733,-0.0024061473086476326
1772093653621178000,4.53017822265625,-0.000985210994258523,-0.00016463873907923698,0.0003845971077680588
1772093653631127000,4.540126953125,-0.002722657285630703,0.00008543208241462708,-0.0004942459054291248
1772093653641077200,4.5500771484375,-0.0015214616432785988,0.0020328231621533632,0.00009338557720184326
1772093653651026200,4.560026123046875,0.00016618380323052406,0.0010431925766170025,0.0007338761352002621
1772093653660976000,4.56997607421875,-0.0010774133261293173,0.0005705705843865871,-0.00225567864254117
1772093653670926000,4.579926025390625,-0.0020569239277392626,-0.0003727213479578495,-0.0024402360431849957
1772093653680875300,4.589875244140625,-0.0009517399594187737,-0.0006883488968014717,-0.0008714906871318817
1772093653690825200,4.5998251953125,0.0014333873987197876,0.0007569484878331423,0.00044677406549453735
1772093653700775200,4.609775146484375,-0.00029503204859793186,0.00016804412007331848,0.0014653312973678112
1772093653710724000,4.61972412109375,0.0018096640706062317,-0.0017054895870387554,-0.000618059653788805
1772093653720674300,4.62967431640625,-0.0005476474761962891,0.0030766050331294537,0.0004278416745364666
1772093653730624300,4.639624267578125,0.000012149102985858917,0.00103156385011971,-0.00034633930772542953
1772093653740573200,4.6495732421875,-0.000009992159903049469,-0.0047396328300237656,-0.0005033547058701515
1772093653750523100,4.659523193359375,0.002266211435198784,0.0013973559252917767,0.0011278316378593445
1772093653760473300,4.669473388671875,0.00010002544149756432,-0.00007790839299559593,0.0004803868941962719
1772093653770422300,4.67942236328125,0.0021418710239231586,0.00030665239319205284,0.0019368696957826614
1772093653780372200,4.689372314453125,0.0009426991455256939,0.000252564437687397,-0.0011243196204304695
1772093653790321200,4.699321044921875,0.0013624131679534912,-0.00007420545443892479,0.001668803859502077
1772093653800271400,4.709271240234375,0.00040551740676164627,-0.002659932244569063,-0.00044166576117277145
1772093653810221300,4.71922119140625,-0.00008130865171551704,0.001401921035721898,-0.0011519305408000946
1772093653820170200,4.729170166015625,-0.0007055969908833504,-0.0010980120860040188,-0.0019829380325973034
1772093653830120200,4.7391201171875,0.0014020283706486225,-0.0011699171736836433,0.001322577241808176
1772093653840070100,4.749070068359375,0.0004407372325658798,0.004422714933753014,0.0008837999776005745
1772093653850019300,4.759019287109375,0.0015022731386125088,0.00006897933781147003,0.001281942706555128
1772093653859969000,4.768968994140625,0.0013116272166371346,0.0012938650324940681,-0.00045347539708018303
1772093653869919200,4.778919189453125,0.0031595947220921516,0.0003833305090665817,0.0005428129807114601
1772093653879868200,4.7888681640625,0.0004263962619006634,-0.0010856683366000652,-0.001320738811045885
1772093653889818000,4.798818115234375,-0.0014641815796494484,-0.0009892620146274567,0.0006361519917845726
1772093653899768000,4.80876806640625,0.00027087004855275154,-0.0018544122576713562,-0.00033924030140042305
1772093653909717000,4.818717041015625,-0.0012870789505541325,-0.0007406780496239662,-0.00017572194337844849
1772093653919667200,4.828667236328125,0.0005651288665831089,0.00026993127539753914,-0.0010441658087074757
1772093653929617200,4.8386171875,-0.00042450171895325184,-0.0018006768077611923,0.0007782350294291973
1772093653939566000,4.848566162109375,0.00020886817947030067,-0.0008926773443818092,0.0012205885723233223
1772093653949516300,4.858516357421875,-0.002075058873742819,0.0012988380622118711,-0.00018822355195879936
1772093653959465200,4.86846533203125,0.0012579006142914295,-0.001100495457649231,0.0029666570480912924
1772093653969415200,4.878415283203125,0.000012606382369995117,-0.00003949226811528206,0.0008462481200695038
1772093653979365000,4.888365234375,-0.0014938132371753454,-0.0003428407944738865,-0.000032506417483091354
1772093653989314000,4.89831396484375,0.0007317904382944107,-0.0011074342764914036,0.0009560589678585529
1772093653999264300,4.90826416015625,-0.0031433147378265858,-0.0006452868692576885,0.00040179723873734474
1772093654009214200,4.918214111328125,0.001702573150396347,0.00026764487847685814,-0.0011652065441012383
1772093654019163100,4.9281630859375,-0.0007048514671623707,0.0028618094511330128,0.0012931972742080688
1772093654029113300,4.93811328125,-0.000052377115935087204,0.0005786814726889133,0.00018159346655011177
1772093654039063300,4.948063232421875,0.0016993083991110325,-0.0010900916531682014,0.0012096543796360493
1772093654049012200,4.95801220703125,0.0008247261866927147,0.0012604144867509604,0.00012841075658798218
1772093654058962200,4.967962158203125,0.000833211001008749,-0.0015824665315449238,0.001756986603140831
1772093654068912400,4.977912353515625,-0.0030046701431274414,-0.0008919090032577515,0.002239551395177841
1772093654078861300,4.987861328125,0.0015791263431310654,-0.0010279654525220394,-0.0017730160616338253
1772093654088811300,4.997811279296875,0.0013365121558308601,0.00038883648812770844,0.0011737719178199768
1772093654098760200,5.00776025390625,-0.0002279123291373253,0.0022959262132644653,-0.0010732891969382763
1772093654108710400,5.01771044921875,0.0020381715148687363,0.0010208047460764647,0.001655385596677661
1772093654118660000,5.02766015625,0.0011140299029648304,0.0018955375999212265,0.0004074331372976303
1772093654128609300,5.037609375,0.00048206187784671783,-0.0013455292209982872,0.0026423579547554255
1772093654138559000,5.04755908203125,-0.0012462679296731949,0.00013819942250847816,-0.001217832788825035
1772093654148509200,5.05750927734375,-0.0007929978892207146,0.0014783022925257683,0.0014943303540349007
1772093654158458000,5.0674580078125,-0.00012735184282064438,-0.0022027529776096344,-0.0012499978765845299
1772093654168408000,5.077407958984375,-0.002316203899681568,0.0004915669560432434,-0.0019903569482266903
1772093654178358000,5.08735791015625,0.001170925796031952,0.0006829071789979935,-0.001968847122043371
1772093654188307200,5.09730712890625,-0.0010381664615124464,-0.0001232316717505455,0.000616549514234066
1772093654198257200,5.107257080078125,0.0017047980800271034,0.00092513975687325,0.0002096635289490223
1772093654208207000,5.11720703125,0.00034072715789079666,-0.0011478648521006107,0.0014168745838105679
1772093654218156000,5.127156005859375,-0.00004615727812051773,-0.0000882558524608612,-0.0038137459196150303
1772093654228106200,5.137106201171875,0.001375970896333456,-0.0014400766231119633,-0.003078713547438383
1772093654238056200,5.14705615234375,0.0003502126783132553,0.0002130460925400257,-0.0002494528889656067
1772093654248005000,5.157005126953125,-0.0004623178392648697,-0.0005092034116387367,-0.0014294995926320553
1772093654257955300,5.166955322265625,0.0011844546534121037,0.0009189187549054623,-0.0004916023463010788
1772093654267904300,5.176904296875,0.000030240509659051895,-0.0031669028103351593,-0.0003509875386953354
1772093654277854200,5.186854248046875,-0.00039050355553627014,0.0005891118198633194,-0.0008549797348678112
1772093654287804200,5.19680419921875,-0.0011180790606886148,-0.003991525620222092,-0.0019034664146602154
1772093654297753600,5.206753662109375,-0.00025056558661162853,0.0008834018371999264,-0.0021960041485726833
1772093654307703600,5.21670361328125,-0.0015403344295918941,-0.0008596368134021759,-0.0005419147200882435
1772093654317653800,5.22665380859375,0.0015264092944562435,0.0018669217824935913,-0.00040681613609194756
1772093654327602700,5.236602783203125,-0.00013380544260144234,-0.0011991756036877632,-0.0020441273227334023
1772093654337552600,5.246552734375,0.0013066013343632221,0.0016458723694086075,-0.0009357528761029243
1772093654347502600,5.256502685546875,-0.0003759837709367275,-0.0008175517432391644,0.000272523146122694
1772093654357451800,5.26645166015625,0.001000255811959505,0.0005552433431148529,-0.00011306814849376678
1772093654367401500,5.2764013671875,-0.0005672809202224016,0.0006513833068311214,-0.00037618866190314293
1772093654377350700,5.2863505859375,0.0014547030441462994,0.0025726088788360357,0.0009735529311001301
1772093654387300600,5.296300537109375,0.001807571854442358,0.0028573006857186556,0.0016630454920232296
1772093654397250600,5.30625048828125,-0.0017009095754474401,-0.00014792755246162415,-0.0017333733849227428
1772093654407199700,5.31619970703125,-0.0001461561769247055,-0.0022430364042520523,-0.00010351883247494698
1772093654417149400,5.3261494140625,-0.0011825156398117542,-0.0014310269616544247,-0.0007157130166888237
1772093654427099400,5.336099365234375,0.0016162004321813583,-0.002151678316295147,-0.001160194631665945
1772093654437048600,5.346048583984375,-0.0018672472797334194,-0.002380389254540205,-0.0012593194842338562
1772093654446998500,5.35599853515625,0.0019005928188562393,-0.003183598630130291,-0.0004744855687022209
1772093654456948500,5.365948486328125,-0.0010813637636601925,0.000690897461026907,0.0001407167874276638
1772093654466897400,5.3758974609375,0.00012131966650485992,0.0007284481544047594,-0.0026944847777485847
1772093654476847600,5.38584765625,-0.0004115123301744461,-0.002127773594111204,-0.0011460245586931705
1772093654486797600,5.395797607421875,0.0002867686562240124,-0.002113126218318939,0.00025825994089245796
1772093654496746500,5.40574658203125,0.000325176864862442,0.00020119454711675644,-0.0008999407291412354
1772093654506696400,5.415696533203125,-0.00230362918227911,-0.000974058173596859,0.002745127771049738
1772093654516645600,5.425645751953125,-0.00038115913048386574,-0.004427286330610514,0.004196909721940756
1772093654526595600,5.435595703125,-0.001102343201637268,0.006897806189954281,0.0023979442194104195
1772093654536545500,5.445545654296875,0.0006200484931468964,-0.003150136210024357,-0.001361470203846693
1772093654546494500,5.455494384765625,-0.0012391041964292526,-0.002089133020490408,0.0009299134835600853
1772093654556444700,5.465444580078125,-0.0009707079734653234,0.0050659338012337685,0.0007434599101543427
1772093654566394600,5.47539453125,-0.0005632443353533745,-0.003420761786401272,-0.0027817669324576855
1772093654576343600,5.485343505859375,-0.0018196883611381054,-0.0002598026767373085,-0.0015056119300425053
1772093654586293500,5.49529345703125,0.00008793408051133156,0.0016550100408494473,-0.001849958673119545
1772093654596243700,5.50524365234375,0.0002939547412097454,-0.004938014782965183,-0.002534228377044201
1772093654606192600,5.515192626953125,0.0004036771133542061,0.0014863288961350918,0.0017055240459740162
1772093654616142600,5.525142578125,-0.0013335547409951687,0.0058982460759580135,-0.00009368686005473137
