time,seconds_elapsed,z,y,x
1772044133060701200,0.070701171875,0.029803602111339568,0.008633972832560538,0.054237749611400064
1772044133070687000,0.08068701171875,0.020850480327010153,0.02551288264747709,0.04831414998238906
1772044133080673300,0.09067333984375,0.024462825605273245,0.01576210767943412,0.050954380559176206
1772044133090659000,0.1006591796875,0.02208849768936634,0.005148103478178382,0.048507590195257216
1772044133100646100,0.110646240234375,0.02240881568491459,0.00841134305782616,0.046379327728599304
1772044133110632200,0.120632080078125,0.021676409757137298,0.01298566523604095,0.04993550410652533
1772044133120618000,0.130617919921875,0.020348376023769377,0.004666092114895582,0.04771360853966325
1772044133130604000,0.14060400390625,0.019301497319340704,0.006785751149989664,0.05291852023899555
1772044133140591000,0.150591064453125,0.02335281853675842,0.0004210018910467624,0.04498365385280922
1772044133150577200,0.1605771484375,0.018127777364850044,0.002749846697412431,0.04138232315890491
1772044133160563200,0.170563232421875,0.025921207720041275,0.005108538652770221,0.0415517249090597
1772044133170550000,0.180550048828125,0.025030980882048606,0.006051153265126049,0.047787842819653446
1772044133180536000,0.1905361328125,0.02414893735051155,0.003084704674966633,0.05160833268957212
1772044133190522000,0.200522216796875,0.02566635617613792,0.007618183386139571,0.03799529280280694
1772044133200508200,0.210508056640625,0.019542904859781263,0.006366100965812802,0.03960495648914948
1772044133210495200,0.2204951171875,0.028078678014874455,0.0034338834388181567,0.042121615485195066
1772044133220481300,0.230481201171875,0.01850654754936695,0.014112586906738578,0.04844389557559043
1772044133230467000,0.240467041015625,0.025848727005720138,0.013599522818066178,0.04001711748661473
1772044133240453000,0.250453125,0.015983166551589965,0.007146035829745233,0.04116005871035158
1772044133250440200,0.260440185546875,0.01509410875737667,0.013767645926587283,0.04239310763664544
1772044133260426000,0.270426025390625,0.023927403554320333,0.007757811052538454,0.037153234221786256
1772044133270412300,0.280412353515625,0.02258767938315868,0.019019830833747982,0.03878083542361855
1772044133280399000,0.290399169921875,0.019448796835541723,0.008305508063174784,0.040520810958743096
1772044133290385000,0.300385009765625,0.022449147695302964,0.005881751514971256,0.0328710816568695
1772044133300371200,0.31037109375,0.02052080998122692,0.005734159737825394,0.033369203904736786
1772044133310357000,0.32035693359375,0.018139467802643774,0.011492540601454675,0.04190143339587375
1772044133320344300,0.33034423828125,0.02338087558746338,0.006176935069262981,0.03847945959055796
1772044133330330000,0.340330078125,0.03191664874255657,-0.005743694751150906,0.039478407500032335
1772044133340316200,0.350316162109375,0.01621346817612648,0.0020228841297328473,0.038739498766232276
1772044133350302200,0.36030224609375,0.027152795341610907,0.005221132181771099,0.038386392745934424
1772044133360289000,0.3702890625,0.02595978616476059,0.004779014437459409,0.04067865013526752
1772044133370275000,0.380275146484375,0.020574585995078085,0.010881569096259772,0.036536636693403124
1772044133380261000,0.39026123046875,0.02731646147072315,0.006362739964947104,0.045464076047204434
1772044133390248000,0.400248046875,0.022979309049248695,-0.00006126520056277513,0.036472193155065176
1772044133400234200,0.410234130859375,0.021634324181079863,0.007803696020878851,0.03868950387835502
1772044133410220000,0.420219970703125,0.023728666111826894,0.0014774156088009475,0.03287827858263626
1772044133420206000,0.4302060546875,0.020136194577813148,0.013287936118245124,0.037674116290733216
1772044133430193200,0.440193115234375,0.018649170890450477,0.006503609740361571,0.03938459173673764
1772044133440179200,0.45017919921875,0.026142156994342802,-0.002093355550058186,0.03145891330400482
1772044133450165000,0.4601650390625,0.02031739636361599,0.014098412250913678,0.03805314220357686
1772044133460152000,0.470152099609375,0.026762919241189956,0.007742430820316076,0.030285449077840892
1772044133470138000,0.48013818359375,0.010454173997044562,0.004076236462965607,0.030138167827948925
1772044133480124200,0.490124267578125,0.0013303718209266662,0.004241327364183962,0.03495176038844511
1772044133490110200,0.500110107421875,0.02168400854170322,0.011436463032662868,0.0393907474828884
1772044133500097000,0.510096923828125,0.027073884886503218,0.0038037031318992375,0.040433552800398315
1772044133510083000,0.5200830078125,0.022893384331464765,0.005668474090471863,0.02936528375931084
1772044133520069000,0.530069091796875,0.023050620719790457,-0.0015413476904854177,0.029294830605294555
1772044133530055200,0.54005517578125,0.019621815314888953,-0.004990867089852691,0.03259922417923808
1772044133540042200,0.550042236328125,0.019634674796462057,0.010392506937682629,0.032505572812724856
1772044133550028000,0.560028076171875,0.020689736807346343,0.01561426017396152,0.03423173901820555
1772044133560014000,0.57001416015625,0.023386720806360242,0.010677169097959995,0.030583043784927575
1772044133570001200,0.580001220703125,0.022942484170198438,0.012358290585316716,0.03664672773806378
1772044133579987000,0.589987060546875,0.027439211067557333,0.002904927661269903,0.02775635072533041
1772044133589973200,0.59997314453125,0.022207155632972715,0.012904672421701251,0.029169962116610257
1772044133599959000,0.609958984375,0.02326572477519512,0.014431005206145346,0.029484270496480166
1772044133609946000,0.619946044921875,0.022373159849643706,0.01096471733506769,0.03494870991483331
1772044133619932200,0.62993212890625,0.016691607081890106,0.0031949966490268707,0.03418296797303483
1772044133629918200,0.639918212890625,0.01656067417860031,0.013874942225962876,0.03275627790447325
1772044133639905300,0.6499052734375,0.01507189692556858,0.012613470922783017,0.023389789546281098
1772044133649891000,0.65989111328125,0.01777414162158966,0.012257898950763046,0.030376470095850525
1772044133659877000,0.669877197265625,0.022414076381921767,0.007785100918263197,0.02590553522687405
1772044133669863200,0.67986328125,0.0290092368632555,0.0028608693238347765,0.027456016071885823
1772044133679850000,0.68985009765625,0.03261047622561455,0.00842153565827757,0.023028463686909525
1772044133689836000,0.6998359375,0.02977963671386242,0.008990056261233986,0.021805278567504135
1772044133699822000,0.709822021484375,0.027681787651777267,0.0125417939260602,0.030763021728023886
1772044133709808000,0.71980810546875,0.02124678616821766,0.009025200639851391,0.02551165880477056
1772044133719795200,0.729795166015625,0.032173838374018666,0.006487498855777084,0.028137933921441434
1772044133729781200,0.73978125,0.03307224851846695,0.00431705948151648,0.025210776162054388
1772044133739767000,0.74976708984375,0.022306524354219436,0.0011112857101485132,0.029077991250529883
1772044133749754000,0.759754150390625,0.020965046617388725,0.007843224313668906,0.022342764711380005
1772044133759740200,0.769740234375,0.027248656931519507,0.0189942945336923,0.031917635123245414
1772044133769726000,0.779725830078125,0.025902503019571303,0.005813179790787398,0.023090970996487884
1772044133779712300,0.789712158203125,0.021869886502623555,-0.0044375805886462324,0.0315465915874578
1772044133789699000,0.799698974609375,0.02920563621819019,-0.0016198928194120525,0.026462383658345787
1772044133799685000,0.80968505859375,0.02262450426220894,0.005582220579124986,0.024473237401433288
1772044133809671200,0.819671142578125,0.02816226464509964,0.008899711096659301,0.0201416196716018
1772044133819658000,0.829657958984375,0.036245033335685725,0.011336217528581619,0.03017612521816045
1772044133829644300,0.839644287109375,0.03684533731639385,0.006736030256748199,0.023405315908975897
1772044133839630000,0.849630126953125,0.02428396190702915,0.00021506752278655766,0.020766455305367706
1772044133849616100,0.8596162109375,0.028776597151160238,0.004226385523378849,0.021249288652557877
1772044133859603000,0.86960302734375,0.01935001263618469,0.01028659887779504,0.028459968950040635
1772044133869588700,0.879588623046875,0.025184710139036177,0.004647570077516139,0.02378012230442837
1772044133879575000,0.889574951171875,0.02158522434234619,-0.0031881285168230532,0.027428159950580445
1772044133889561900,0.899561767578125,0.020393968731164933,-0.0009779416540637612,0.026586101369559762
1772044133899548200,0.909548095703125,0.012764204505085945,0.014652758198045193,0.021179200824722647
1772044133909534000,0.919533935546875,0.027577158233523368,0.00949964975118637,0.02267022483376786
1772044133919520000,0.92952001953125,0.026382980012893676,0.00966780939232558,0.02200007048724219
1772044133929507000,0.939507080078125,0.027878771528601645,0.0004668137941509485,0.023137403954099862
1772044133939492900,0.949492919921875,0.021146248403191566,0.0025764994245022536,0.024216230433061717
1772044133949479000,0.95947900390625,0.02324818911850452,-0.0031708485884591937,0.022346016114391385
1772044133959466000,0.969466064453125,0.02788870840072632,-0.0021009543346241113,0.02951616347208619
1772044133969452000,0.9794521484375,0.027440380111336708,0.007672653519734739,0.022152740298304704
1772044133979438000,0.98943798828125,0.03103577425479889,0.010641111403889953,0.029610435893107204
1772044133989423900,0.999423828125,0.025050270104408263,0.001109495611861348,0.019314484665077177
1772044133999411000,1.009410888671875,0.03074059070050716,0.005203304264135658,0.01830793797103688
1772044134009397000,1.01939697265625,0.024901217022538183,0.01352236592862755,0.018528229658212512
1772044134019383000,1.029383056640625,0.0235585702419281,0.005595006995461881,0.016477251945156604
1772044134029368800,1.039368896484375,0.01921849521100521,0.003043532414361834,0.010709555263910441
1772044134039356000,1.04935595703125,0.016978022807836533,0.005843684526905417,0.0159800247464329
1772044134049342000,1.059342041015625,0.025064883151650428,0.0031981019215658307,0.025005937772337346
1772044134059327700,1.06932763671875,0.022082067948579788,-0.0002348682017996907,0.01973837263295427
1772044134069315000,1.079315185546875,0.02763502590060234,-0.00017075345702469348,0.02036249588066712
1772044134079300900,1.08930078125,0.028837387427687645,0.005155008143000304,0.019765132775716482
1772044134089287200,1.099287109375,0.03483224392831325,0.00872296629026532,0.020616087049245835
1772044134099273000,1.10927294921875,0.03439735964238643,0.003521817450597882,0.019184629474021494
1772044134109259800,1.119259765625,0.028113749328255652,-0.0019840864893049,0.01738581815743819
1772044134119246000,1.12924609375,0.019441782572865485,0.006117898358404636,0.012400321362446993
1772044134129232000,1.13923193359375,0.028261633366346357,0.002295125199854374,0.023647983824741092
1772044134139218000,1.149218017578125,0.02616670691370964,-0.0010466229761019348,0.020211908428836613
1772044134149205000,1.159205078125,0.020033903247117995,0.009598835809342562,0.022859299398772417
1772044134159190800,1.169190673828125,0.0279722950309515,0.002185490812920034,0.02054841037420556
1772044134169177000,1.179177001953125,0.026935353198647496,0.003974054730124772,0.020983952247258273
1772044134179164000,1.189163818359375,0.020202245551347732,0.00028707331307232376,0.017930756955407558
1772044134189150000,1.19914990234375,0.022447394129633903,0.009378507589548826,0.018318788158614187
1772044134199136000,1.209135986328125,0.02408873159587383,0.007670973019301891,0.022819917236454785
1772044134209122000,1.2191220703125,0.028888240832090375,0.0015714505678042767,0.018736538646649568
1772044134219109000,1.229109130859375,0.021255553996562957,-0.0006520341679453849,0.019655863714963195
1772044134229095000,1.239094970703125,0.021112346133589744,-0.0007597688587382436,0.017175974799040705
1772044134239081000,1.2490810546875,0.023808745610713958,0.005390643529780209,0.024158508896455166
1772044134249068000,1.259068115234375,0.02605857036411762,0.003231163940951228,0.013834957275446504
1772044134259053800,1.2690537109375,0.027105449068546294,0.0007476400295272469,0.01893023458784446
1772044134269039900,1.279039794921875,0.022169746232032776,0.005226758204959332,0.012707231887150556
1772044134279026000,1.28902587890625,0.020378186640143393,-0.0003314604440703988,0.020271858455147593
1772044134289013000,1.299012939453125,0.023519991797208786,0.0070764777248725295,0.017988040100596844
1772044134298999000,1.3089990234375,0.02771393635571003,0.018420513233728706,0.01725033694319427
1772044134308985000,1.318985107421875,0.022625088784098624,-0.0009478753093630075,0.017034630099590865
1772044134318972000,1.328971923828125,0.02247662022411823,-0.006575359802320599,0.012313994785863905
1772044134328958000,1.3389580078125,0.024719430714845655,0.008733524216897786,0.015569799977727233
1772044134338944000,1.348944091796875,0.03220247994661331,-0.00196943690944463,0.017671886823512614
1772044134348929800,1.3589296875,0.024124387431144714,-0.014100056218728422,0.015481391041912138
1772044134358917000,1.368917236328125,0.016486439898610115,0.00893379602935165,0.021863949952181428
1772044134368903000,1.37890283203125,0.025468203255534172,0.008440642217546701,0.012687230278737843
1772044134378889000,1.388888916015625,0.028768998366594314,0.0022962577110156417,0.022787859864067284
1772044134388875000,1.398875,0.030122166541218756,0.004584003322012723,0.01837793446732685
1772044134398861800,1.40886181640625,0.02563596103787422,0.010998875332996249,0.019134524988289922
1772044134408848100,1.41884814453125,0.022054595419764518,-0.00023885025717318057,0.007965626850631088
1772044134418834000,1.428833984375,0.019663316369056702,0.0076676485510542985,0.019365265004243702
1772044134428820700,1.43882080078125,0.0265431390106678,0.009747888891212642,0.017829744266346096
1772044134438807000,1.44880712890625,0.02819265978336334,0.003869169583544135,0.01952160634342581
1772044134448792800,1.458792724609375,0.023262217643857,0.002573722945526242,0.019377046773582696
1772044134458779000,1.46877880859375,0.02775602193176746,0.004424026987329125,0.016796875820960847
1772044134468766000,1.478765869140625,0.026560674667358397,0.011919058917835354,0.012182806154247373
1772044134478752000,1.488751953125,0.01609305666685104,0.001066971644386649,0.016767467063385992
1772044134488738000,1.498738037109375,0.030155484288930893,0.007267616382800042,0.016469233035482464
1772044134498724000,1.50872412109375,0.027460838377475736,0.005839446743205189,0.009620134325698018
1772044134508711000,1.5187109375,0.01983399676084518,0.0022037571219727394,0.016505911784060297
1772044134518697000,1.528697021484375,0.02671440392434597,0.0009497384728863835,0.015773560655210166
1772044134528683000,1.53868310546875,0.02178922248184681,-0.0014477511228993534,0.0135193337213248
1772044134538670000,1.548670166015625,0.02628302676975727,0.005700951587967574,0.011508249627240001
1772044134548655900,1.55865576171875,0.03197276284396648,0.0050770110033452505,0.01661271489309147
1772044134558642000,1.568641845703125,0.022546178328990935,0.005393346943520009,0.021321477105934173
1772044134568627700,1.578627685546875,0.02524433137178421,0.007407865103706717,0.00930960707180202
1772044134578615000,1.588614990234375,0.02285480588674545,0.00901365633253008,0.014977825433947146
1772044134588600800,1.598600830078125,0.02226093164682388,0.008224113390035927,0.014337171176541597
1772044134598587100,1.608587158203125,0.025847557961940763,-0.002409947218559682,0.018095847856625914
1772044134608573000,1.618572998046875,0.023752046987414357,-0.0003254690947011113,0.012315547422133385
1772044134618559700,1.628559814453125,0.01777063449025154,0.005139847106486559,0.014984401305206119
1772044134628546000,1.638546142578125,0.020167758759856224,0.006323503933101892,0.00795700515275821
1772044134638531800,1.64853173828125,0.018676058897376058,0.008363302665017544,0.00737750649806112
1772044134648519000,1.658518798828125,0.023321838876605033,-0.0002794379958882928,0.01628370213443413
1772044134658505000,1.6685048828125,0.01988426564335823,0.008029869459569454,0.01591629359414801
1772044134668491000,1.678490966796875,0.02482347561120987,0.0032320407237857577,0.014403185617458075
1772044134678477000,1.68847705078125,0.026769933503866195,0.002819623997993767,0.01585466306740418
1772044134688464000,1.6984638671875,0.020174188500642776,0.008884038603492081,0.012301482364162801
1772044134698450000,1.708449951171875,0.02720189518034458,0.007347220957651734,0.010640399017836899
1772044134708436000,1.71843603515625,0.024055413848161695,0.008909538370929658,0.016517985814344136
1772044134718422800,1.7284228515625,0.02270809089243412,0.004304857587069273,0.01031083826990798
1772044134728409000,1.7384091796875,0.018825111979246138,0.004533661374263465,0.010220694034732877
1772044134738395000,1.748394775390625,0.03275017695724964,0.010107589049078523,0.017347933832462876
1772044134748381000,1.758380859375,0.025420856982469556,0.0022877456109970805,0.013826043316628784
1772044134758368000,1.768367919921875,0.01882978815436363,0.00006637976709753275,0.0049150253746658564
1772044134768354000,1.77835400390625,0.024672084441781043,0.0016029416846111415,0.006329860608652233
1772044134778339800,1.78833984375,0.021980945661664007,0.0015800357330590486,0.012103913965448736
1772044134788326100,1.798326171875,0.02826806310713291,0.005326346121914684,0.01655115743158385
1772044134798313000,1.80831298828125,0.020781506744027137,0.002881035329028964,0.012957096728682517
1772044134808299000,1.818299072265625,0.03304536051154137,0.0037182533381506797,0.01801752192340791
1772044134818285000,1.82828515625,0.04023439523279667,0.0030544921997934576,0.018860639950353652
1772044134828270800,1.838270751953125,0.025868016228079795,0.005640526637621224,0.0070019694502465426
1772044134838258000,1.8482578125,0.021236849296092986,0.003721906599961221,0.01349374262234196
1772044134848243500,1.858243408203125,0.022591186514496802,0.00033767098914831874,0.008195709279458969
1772044134858229800,1.868229736328125,0.030521394991874694,0.010362988582253456,0.01751190135567449
1772044134868216600,1.878216552734375,0.03142331226766109,0.003870155964232981,0.011604960600519552
1772044134878202600,1.88820263671875,0.02769114000201225,0.009259813113324343,0.012545319323707371
1772044134888188700,1.898188720703125,0.017964695757627488,0.0121272948410362,0.016371499148895963
1772044134898174500,1.908174560546875,0.025293431210517883,0.01110365088172257,0.01574249879666604
1772044134908161500,1.91816162109375,0.024992986959218977,0.0068968103090301155,0.006905203678039834
1772044134918147600,1.928147705078125,0.02034779150187969,0.010506927097588777,0.010541313424380496
1772044134928133400,1.93813330078125,0.015408581534028052,0.0007672945780679583,0.012288695947825909
1772044134938119700,1.94811962890625,0.026336802783608435,0.0034372079070657487,0.010705518409609795
1772044134948106500,1.9581064453125,0.020501520758867263,0.007807568478398024,0.0048824291461613024
1772044134958092800,1.9680927734375,0.022148118922114372,-0.0012942045290023087,0.015857850538333877
1772044134968078600,1.97807861328125,0.019757424393296242,-0.007001585857756436,0.018406009784340857
1772044134978064600,1.988064697265625,0.02245148578286171,-0.0008398118250072002,0.020645715002529322
1772044134988051700,1.9980517578125,0.01931084966957569,0.004653963285684585,0.018144052646216005
1772044134998037500,2.00803759765625,0.019309680625796317,-0.009673946872167289,0.010167310746526345
1772044135008023600,2.0180234375,0.0158639240860939,0.0007500877149403095,0.007578655093349516
1772044135018010600,2.0280107421875,0.030528409254550932,0.009407660618796944,0.007634842259995639
1772044135027996400,2.037996337890625,0.02424772154986858,0.004268872958235442,0.015031245254771784
1772044135037982500,2.047982421875,0.03950549643635749,-0.003828253051266074,0.01062191351307556
1772044135047968500,2.057968505859375,-0.002097264540195465,0.0011910364154726267,0.015367263142950833
1772044135057955600,2.06795556640625,0.04279226302206516,0.004539506593160331,0.016064168499084187
1772044135067941600,2.077941650390625,0.03695815004110336,0.011535320297256112,0.012891347149247303
1772044135077927700,2.087927734375,0.0179553434073925,0.008834500373341143,0.011343533185357227
1772044135087913500,2.09791357421875,0.015415595796704292,0.010133344544842838,0.009758474217308685
1772044135097900500,2.107900634765625,0.02709083602130413,0.0008324322361499071,0.011848934557382017
1772044135107886600,2.117886474609375,0.03068739920854568,0.003471000578813255,0.013171871990524232
1772044135117872400,2.127872314453125,0.03172901721596718,0.0044991745827719564,0.010303696143068372
1772044135127858700,2.137858642578125,0.03936404213905334,0.0027999694494530557,0.008887107343412935
1772044135137845500,2.147845458984375,0.025143793606758117,0.013070019051246344,0.010672045398270711
1772044135147831600,2.15783154296875,0.023055881416797635,0.003529379702545702,0.009087726215738803
1772044135157817600,2.167817626953125,0.027843700215220448,0.006874269683659076,-0.000020357801439240573
1772044135167804400,2.177804443359375,0.02261222930252552,0.010985358264297246,0.010464129135478287
1772044135177790700,2.187790771484375,0.02576046420037746,0.0029349574733525514,0.011240081944037228
1772044135187776500,2.197776611328125,0.02860650128126144,0.004063924970664084,0.016654544740822164
1772044135197762600,2.207762451171875,0.018584288960695267,0.005388305442221462,0.008851752902241423
1772044135207749600,2.21774951171875,0.02262275069653988,0.003337072000838816,0.0037274869573768227
1772044135217735400,2.2277353515625,0.02591828511059284,0.004966645964048802,0.010441551977489144
1772044135227721700,2.2377216796875,0.01589490374624729,0.005847228190861642,0.007977125492179766
1772044135237707500,2.24770751953125,0.026381226447224616,0.0028950273217633366,0.0075543061033822596
1772044135247694600,2.257694580078125,0.029977205112576483,0.002952420064806938,0.009784184047300368
1772044135257680600,2.2676806640625,0.01650982077419758,0.0037419995399191972,0.015363445484358817
1772044135267666700,2.277666748046875,0.009929857861995696,0.008790003644488752,0.01057273147595115
1772044135277652500,2.287652587890625,0.02563771460354328,0.010666574638709425,0.014169815253000706
1772044135287639600,2.2976396484375,0.02443769116401672,-0.0014209727138280869,0.008262810565764084
1772044135297625600,2.30762548828125,0.024297405910491943,0.0019998685803264376,0.0032661987217143178
1772044135307611400,2.317611328125,0.025796120035648344,0.0008066402077674866,0.006389454441936686
1772044135317597700,2.32759765625,0.029237200400233268,0.0018958602165803312,0.007943716412922366
1772044135327584500,2.33758447265625,0.020407412734627723,0.012886004253849387,0.006600768238212913
1772044135337570600,2.347570556640625,0.013225392276048659,0.006786810595914721,0.012295582346338778
1772044135347556600,2.357556640625,0.021158523362874982,0.0007975801184773445,0.0018347137470263986
1772044135357543400,2.36754345703125,0.02850245638489723,0.00045326019283384084,0.0024374106142204255
1772044135367529700,2.37752978515625,0.02401741992533207,0.003936535731330514,0.009259082460962235
1772044135377515500,2.387515625,0.022972879308462143,-0.0017841434704139827,0.005579243170749396
1772044135387501600,2.39750146484375,0.013844400957226752,0.007513627033121883,0.00809458699254319
1772044135397488600,2.407488525390625,0.020573416951298714,0.008074110460095107,0.0058164677264168855
1772044135407474400,2.417474365234375,0.01369593239724636,0.004061075426451862,0.009253666500328108
1772044135417460700,2.427460693359375,0.021031682112812995,-0.00424198495130986,0.001166020705224946
1772044135427446500,2.437446533203125,0.02372282089293003,0.0024328531701117754,0.006714065020112321
1772044135437433600,2.44743359375,0.024909400328993796,0.004465564574114978,0.006793760926509276
1772044135447419600,2.457419677734375,0.021913141122460365,0.005029518599808215,0.003072128321183845
1772044135457405400,2.467405517578125,0.02340659455060959,0.0031409283742308614,0.01130007763612084
1772044135467391500,2.4773916015625,0.023408932638168335,0.0028023440696299073,0.007532614861382171
1772044135477378600,2.487378662109375,0.015923545318841933,0.012909823520854114,0.000627785642677918
1772044135487364600,2.497364501953125,0.024753917506337163,0.013050693296268581,0.012222206582874059
1772044135497350700,2.5073505859375,0.02370762332379818,0.005092172039858996,0.014632336464524269
1772044135507336700,2.517336669921875,0.028045944789052007,0.003744812551513314,0.008256663952767848
1772044135517323500,2.527323486328125,0.027293665117025374,0.0014716069225221872,0.00980090685323812
1772044135527309600,2.5373095703125,0.023249358162283896,0.006197064541839063,0.004262050491804257
1772044135537295600,2.547295654296875,0.028937925192713737,0.0036370047954842446,0.006107440896471962
1772044135547281400,2.557281494140625,0.020112229180336,0.006608567952178419,0.013019037782680242
1772044135557268700,2.567268798828125,0.027140520381927487,0.012491999967582523,0.008236717143282293
1772044135567254500,2.577254638671875,0.023694763842225075,0.0057082215789705515,0.005490359310898929
1772044135577240600,2.587240478515625,0.0281768776923418,-0.002840849449113011,0.011053747325390577
1772044135587226600,2.5972265625,0.024430676901340483,0.006851875188760459,0.005351206568535417
1772044135597213400,2.60721337890625,0.020538930159807203,0.00988660324215889,0.009931364832492545
1772044135607199700,2.61719970703125,0.03220423351228237,-0.0006151727562770247,0.009486671538604424
1772044135617185500,2.627185546875,0.021878654330968854,0.004040763290785253,0.00947075245026499
1772044135627171600,2.637171630859375,0.026968086424469948,0.005947291031852364,0.008735433046193793
1772044135637158700,2.64715869140625,0.031017069554328917,0.0009790010999888182,0.013229063804168254
1772044135647144400,2.65714453125,0.024139000478386876,0.0062527037192136046,0.001718823149241507
1772044135657130500,2.667130615234375,0.030580431702733037,0.01347483699247241,0.009560056435223669
1772044135667117600,2.67711767578125,0.025348376268148422,0.0051656756674870845,0.009768338024197146
1772044135677103600,2.687103515625,0.01547404798567295,-0.0010125015107914806,0.0076935136446729295
1772044135687089700,2.697089599609375,0.016965163326263428,0.0028311683053150773,0.005915443722018972
1772044135697075700,2.70707568359375,0.03028057197332382,0.004862016545794904,0.008348963612411171
1772044135707062500,2.7170625,0.023844985967874526,-0.000034048400074243547,0.002729708091681823
1772044135717048600,2.727048583984375,0.0343202027529478,0.006536525629274547,0.0031835345400962976
1772044135727034600,2.73703466796875,0.025941081464290618,0.0030698358993977307,0.004595081838453188
1772044135737020400,2.7470205078125,0.02070610342025757,0.0123385995041579,-0.0007657419417984783
1772044135747007500,2.757007568359375,0.0317757789671421,0.0015102584324777125,0.0034676852437201884
1772044135756993500,2.76699365234375,0.0256412217348814,0.006168897893279791,0.004268699428299442
1772044135766979600,2.7769794921875,0.017415829703211785,0.010575791082717478,0.0070823138106148684
1772044135776965600,2.786965576171875,0.025344284614920616,0.0021058497054502368,0.006299584201397374
1772044135786952400,2.796952392578125,0.02788987744450569,0.006847673937678336,0.006493408006755635
1772044135796938800,2.806938720703125,0.026088965502381323,0.005711765242926776,0.010051484080823138
1772044135806924500,2.816924560546875,0.02803542339503765,0.0007309080904349684,0.01313701987285167
1772044135816910600,2.82691064453125,0.015762801799178123,0.004761953704804181,0.013142919890675692
1772044135826897700,2.836897705078125,0.025789690294861792,0.008072137698717416,0.0006049710226710886
1772044135836883500,2.846883544921875,0.028787118545174597,0.0027745427472516894,0.0019734189648181197
1772044135846869500,2.856869384765625,0.018164602243900298,0.0029318522008135914,0.007810664617782458
1772044135856855800,2.866855712890625,0.024895956325531005,0.009255575329624116,0.0042654023595154284
1772044135866842600,2.876842529296875,0.026990298256278036,0.007937441935762762,-0.0038860841857269405
1772044135876829000,2.886828857421875,0.022792846566438672,0.004379859052039682,0.006819616886973381
1772044135886814700,2.896814697265625,0.03057634004950523,0.009170235133729875,0.0015531385929789393
1772044135896800800,2.90680078125,0.019056582647562027,0.01019296577759087,-0.001950951404683292
1772044135906787800,2.916787841796875,0.015464111113548278,0.0042388796787709,0.0032533849059138446
1772044135916774000,2.92677392578125,0.012618074032664298,0.006715352794900536,0.0144001442770008
1772044135926759700,2.936759765625,0.018602993661165235,0.007765154108777642,0.005022750932304188
1772044135936746000,2.94674609375,0.02563596103787422,0.002681238440610468,0.012653108813427388
1772044135946732800,2.95673291015625,0.02369008766710758,0.00747782506737858,0.00889112593140453
1772044135956718800,2.96671875,0.018758476483821868,0.005726487888023257,0.009421506481058895
1772044135966705000,2.976704833984375,0.026092472633719443,0.010627265541628003,0.006565788256376982
1772044135976690700,2.986690673828125,0.023995792615413663,0.006877849880233406,0.005218492700112983
1772044135986677800,2.996677734375,0.019507249024510384,0.0031390652107074857,0.003391067210398614
1772044135996663800,3.006663818359375,0.025643559822440147,0.0052457186337560415,0.003403926691971719
1772044136006649900,3.01664990234375,0.02175999638736248,0.0004968801388517022,0.006295647811796516
1772044136016636000,3.026635986328125,0.027142858469486233,0.004800641747377813,0.005608350534224882
1772044136026622700,3.036622802734375,0.018156418937444685,0.005724113267846405,0.009030141676450148
1772044136036609000,3.046609130859375,0.024738135415315627,0.0011470876758918164,0.008379934139410032
1772044136046594800,3.0565947265625,0.026979776862263678,0.005811243562027811,0.0014506006671115754
1772044136056580900,3.066580810546875,0.030420272704958912,0.006470547720976174,0.005692412088485434
1772044136066568000,3.07656787109375,0.029668577554821968,0.007623224887438118,0.0018304028980899601
1772044136076553700,3.0865537109375,0.02742985871732235,0.005096227160468697,0.0035261556989978995
1772044136086539800,3.096539794921875,0.03296235840320587,-0.008179908922128378,0.008464397552469746
1772044136096525800,3.10652587890625,0.029218495699763296,0.0007091346500441431,0.006219221574719995
1772044136106513000,3.116512939453125,0.020849895805120467,0.006170797589421272,0.00949408766007982
1772044136116498700,3.126498779296875,0.01950432641506195,0.00003872457519173622,0.009832397970044985
1772044136126485000,3.136485107421875,0.0277414088845253,0.005343443387188017,0.002746796223800629
1772044136136470800,3.146470703125,0.02505611532330513,0.004460413474962115,0.009547699277149513
1772044136146457900,3.156457763671875,0.022066870379447937,0.002740165553614497,0.004765415170369669
1772044136156444000,3.16644384765625,0.023858429971337317,0.0007492839973419905,0.0022941570854745803
1772044136166429700,3.1764296875,0.027450316983461377,0.010318345722928642,-0.005052753344923258
1772044136176416000,3.186416015625,0.032841946893930433,0.00738101362939924,0.008861543643893674
1772044136186402800,3.19640283203125,0.035978491353988645,0.013007329078577459,0.009121043963450938
1772044136196388600,3.206388671875,0.029687282255291936,0.013422449218109249,0.006152202486805617
1772044136206375000,3.216375,0.021155016231536865,0.010182517448812723,0.009629870268423109
1772044136216360700,3.226360595703125,0.021906126859784124,0.002503141927346587,0.00437140175094828
1772044136226348000,3.23634814453125,0.02220657111108303,0.007760770194604992,0.009897955753235146
1772044136236333800,3.246333740234375,0.015923545318841933,0.005355718346871435,0.002500822106096893
1772044136246319900,3.25631982421875,0.02011865892112255,0.014393120881170033,0.007224818420689553
1772044136256306000,3.266305908203125,0.02101706906557083,0.00870992414560169,0.006442225808789954
1772044136266292700,3.276292724609375,0.021478256836533545,-0.0018595467941835522,0.003991645185742527
1772044136276278800,3.28627880859375,0.018339958810806273,0.0021355872565880416,-0.0004425470025744289
1772044136286264800,3.296264892578125,0.020284078615903853,0.003949979734793305,-0.0028306020497344433
1772044136296251000,3.3062509765625,0.018341712376475333,0.007434899241104721,0.0016548271354753523
1772044136306238000,3.316238037109375,0.019695465072989464,0.011532324622571468,0.005715372838964686
1772044136316223700,3.3262236328125,0.021942367216944692,0.009086465840414166,0.008714563788101077
1772044136326209800,3.336209716796875,0.02015314571261406,0.007654094949737191,0.00795332449148409
1772044136336195800,3.34619580078125,0.024646365478634833,0.008843012473359703,0.008469850045721978
1772044136346183000,3.356182861328125,0.024950316861271856,0.00890920957736671,0.011706292949989438
1772044136356168700,3.366168701171875,0.020908932515978813,0.00679645520709455,0.006749081534566357
1772044136366155000,3.376155029296875,0.0252490075469017,0.002892579636350274,0.003457081651315093
1772044136376140800,3.386140869140625,0.026145664125680923,0.00604589256811887,0.01278091817786917
1772044136386127600,3.396127685546875,0.025544191101193426,0.011049217280745505,0.0022943214822560547
1772044136396114000,3.406114013671875,0.029887773263454435,0.0012913549847900867,0.007797330212173983
1772044136406099700,3.416099609375,0.02240881568491459,0.005857859182730317,0.004546785717317834
1772044136416085800,3.426085693359375,0.026748890715837477,0.011801752681098877,0.005239882548013702
1772044136426071800,3.43607177734375,0.03154197021126747,0.006328801162727177,0.003291132233571261
1772044136436059000,3.446058837890625,0.02361117721199989,0.014001710410788654,0.00867182975807227
1772044136446045000,3.456044921875,0.026608605462312696,0.007185052665881812,-0.0010965995976701377
1772044136456030700,3.46603076171875,0.016289456021785734,0.006331614174321294,0.0034808826520107685
1772044136466016800,3.476016845703125,0.022730887246131894,-0.0021412863450124857,0.0030269009399693458
1772044136476003800,3.48600390625,0.026467151165008543,0.012336407547071576,0.001036923565994948
1772044136485990000,3.495989990234375,0.0156985043913126,-0.0009667261403053998,0.00802289172951132
1772044136495975700,3.5059755859375,0.026022330006957053,0.004278334906324744,0.01179308531745337
1772044136505962000,3.5159619140625,0.02796703433394432,0.010853585110791026,0.0036366942682303487
1772044136515948800,3.52594873046875,0.021834230667352676,-0.0002689896671101451,-0.0074224416183307764
1772044136525934800,3.535934814453125,0.019146014496684072,0.004709638995677233,0.006768635618407279
1772044136535921000,3.5459208984375,0.024980711999535558,0.009814159060455858,0.000977521528955549
1772044136545906700,3.55590673828125,0.014210311660170553,-0.0008544248722493648,0.008968237155070528
1772044136555894000,3.56589404296875,0.01646130545735359,0.0034019904632121324,0.00837483783918433
1772044136565879800,3.5758798828125,0.02648527134358883,0.005679543473757803,0.002836958725284785
1772044136575865900,3.585865966796875,0.029168811339139938,0.010199614714086055,0.0063499626817647365
1772044136585852000,3.595851806640625,0.010760463467240333,0.010534399626404047,0.00895791669045575
1772044136595838700,3.605838623046875,0.017637363499402998,0.009883278773911297,0.008771481607109308
1772044136605824800,3.61582470703125,0.03440028225183487,0.008467384093999861,0.005484788086637854
1772044136615810800,3.625810791015625,0.026317513561248777,0.0003668605510145426,0.00915053491941653
1772044136625796900,3.635796875,0.021080781951546668,0.005191394630633294,0.008383413871284573
1772044136635784000,3.645783935546875,0.019883681121468544,0.0026708997096866367,0.002911028608493507
1772044136645769700,3.655769775390625,0.022877602240443228,0.010159319236315786,0.006740450703538954
1772044136655755800,3.665755859375,0.02257774251103401,0.0164377419186756,0.011424379869224503
1772044136665741800,3.675741943359375,0.028116671937704084,0.01341583681423217,-0.00003229483440518379
1772044136675729000,3.68572900390625,0.012415244936943053,0.01188851764909923,-0.0010431432442273944
1772044136685714700,3.695714599609375,0.010616086560487747,0.006594137568026781,0.013285433633904904
1772044136695701000,3.705700927734375,0.019291560447216034,0.0005246083959937096,-0.001805944310268387
1772044136705686800,3.715686767578125,0.02886485995650291,0.008679163681156933,-0.00034621962178498503
1772044136715673900,3.725673828125,0.028114918372035023,0.00914846169333905,0.00017161197355017066
1772044136725660000,3.735659912109375,0.025267127725481984,0.008058109173364936,0.005975960003910586
1772044136735645700,3.745645751953125,0.027670097213983533,0.004760894258879125,0.009043165554804727
1772044136745632000,3.755632080078125,0.01929331401288509,0.009136515527218579,0.011160495635494589
1772044136755617800,3.76561767578125,0.01959317374229431,-0.003885353533364832,0.007523719168873504
1772044136765604600,3.7756044921875,0.020483985102176666,0.005694156520999968,0.007812180721433833
1772044136775591000,3.7855908203125,0.021080197429656982,0.01441664788722992,0.0030207360606640575
1772044136785576700,3.79557666015625,0.02721709274947643,0.009752784262038766,-0.0009009856940247118
1772044136795562800,3.805562744140625,0.023778934994339942,0.0084986925477162,-0.0007865016020368785
1772044136805549800,3.8155498046875,0.025126842471957206,-0.0006562719516456127,0.00038917284752242265
1772044136815535900,3.825535888671875,0.014651041164994239,0.002997976239584386,0.003580662365211174
1772044136825522000,3.83552197265625,0.02303425410687923,0.006694017745926976,-0.0033830300344154236
1772044136835508000,3.845508056640625,0.025881460231542586,0.007525171340443193,0.00043255533152259886
1772044136845494800,3.855494873046875,0.025729484540224074,0.00908204539362341,0.004734408110752701
1772044136855481300,3.8654814453125,0.025139117431640625,0.007216909108869731,0.004594460783945396
1772044136865467400,3.87546728515625,0.015558219137787817,0.014435717913880944,0.004609594420995563
1772044136875453200,3.885453125,0.028877719438076016,0.007372939920797943,0.002507388844201341
1772044136885440300,3.895440185546875,0.020645897665619847,-0.0003571794072166085,-0.0017461404144298283
1772044136895426300,3.90542626953125,0.008829787665605545,0.00303425312936306,0.01468940041400492
1772044136905412400,3.915412353515625,0.018409516915678978,0.005216602137126028,0.005542582688480615
1772044136915398400,3.9253984375,0.007785247048735618,0.003085398794710636,0.007456855344586074
1772044136925385200,3.93538525390625,0.018704115948081017,0.006038732174970209,0.006525757640087977
1772044136935371500,3.94537158203125,0.019445874226093292,0.005574329533614218,0.004862363605666905
1772044136945357300,3.955357421875,0.030519641426205633,0.008286145775578915,0.006730075439997017
1772044136955343400,3.96534326171875,0.024237200155854222,0.010188764526508748,0.016110957649722694
1772044136965329400,3.975329345703125,0.02723053675293922,0.011833937917649745,0.009064482337469235
1772044136975316200,3.985316162109375,0.0273795898348093,0.0033631197575479744,0.006194470725953578
1772044136985302300,3.99530224609375,0.019602526092529295,0.005251527320034801,0.0029869616552256045
1772044136995288300,4.005288330078125,0.0188572606831789,0.0040374753551557655,0.0005771149013657122
1772044137005274400,4.0152744140625,0.022602292430400846,0.0012579276392236352,0.0073494951131287956
1772044137015261400,4.025261474609375,0.020053776991367338,0.005960588904842734,-0.0009513459080830216
1772044137025247200,4.035247314453125,0.027526304829120635,0.012452033283375203,0.002303043644828722
1772044137035233300,4.0452333984375,0.014054828837513923,0.002215155298821628,0.003939540539169684
1772044137045219300,4.05521923828125,0.017947160100936888,0.004416391670145094,0.006485489561781287
1772044137055206400,4.065206298828125,0.018255203136801717,0.01508168766722083,0.002381753170536831
1772044137065192200,4.075192138671875,0.014520108261704445,-0.0032687560049816963,0.009761634288774803
1772044137075178500,4.085178466796875,0.020500936236977577,0.004161613191477954,0.005736433893302455
1772044137085164300,4.095164306640625,0.020210428857803345,0.0046388753144070505,0.002413563947752118
1772044137095151400,4.1051513671875,0.023652093744277954,0.0006221504863351583,0.006042778162425383
1772044137105137400,4.115137451171875,0.027245734322071075,0.007131715043447911,0.0022418515095021575
1772044137115123200,4.125123291015625,0.01871872899532318,0.004283047614060342,0.0018304302975535392
1772044137125109500,4.135109619140625,0.02096270852982998,0.0010058525742962956,0.003164409714518115
1772044137135095300,4.14509521484375,0.015580430969595908,0.0008947203500196337,0.005750261489255354
1772044137145082000,4.15508203125,0.013779519027471541,0.01087879261728376,-0.0014477419897448271
1772044137155068400,4.165068359375,0.021713234636187552,-0.000425933794490993,-0.0012297518575098364
1772044137165054200,4.17505419921875,0.022164485535025594,0.0028105639087036252,-0.002681905160890892
1772044137175040300,4.185040283203125,0.02561199564039707,0.005146276847273111,-0.0021270112244877962
1772044137185027300,4.19502734375,0.01917933224439621,0.003772065884619951,0.0011283007770311088
1772044137195013400,4.205013427734375,0.021425065344572065,0.0002816664855927229,0.004032342522311955
1772044137204999400,4.21499951171875,0.013193243572115897,0.0037881767692044374,0.0005137490752618759
1772044137214985500,4.2249853515625,0.016786884149909018,0.009885580328851938,0.011115587914688512
1772044137224972300,4.23497216796875,0.02352057631909847,0.0028142537031322717,0.01124012760980986
1772044137234958300,4.244958251953125,0.023215455892682074,-0.006020867724716663,0.004416272939136251
1772044137244944400,4.2549443359375,0.02545125212073326,0.0019014497071504592,0.0007976805831771343
1772044137254930200,4.26493017578125,0.03023614830970764,0.01064980616699904,0.00636635669413954
1772044137264916500,4.27491650390625,0.015269465324282645,0.010685279339179395,0.005535422295331955
1772044137274903300,4.2849033203125,0.021550153028964996,-0.00012859481573104857,0.0013889427409041672
1772044137284889300,4.294889404296875,0.01780804389119148,0.007670461562648415,0.002628412274830043
1772044137294875400,4.30487548828125,0.022889877200126647,0.009845869372971355,0.006657357263658195
1772044137304861200,4.314861083984375,0.013456278422474861,-0.002007723093219101,-0.0008073708601295948
1772044137314848500,4.3248486328125,0.019135493102669716,0.013496793095953762,0.0008892769899219273
1772044137324834300,4.334834228515625,0.017037644040584565,0.011454802406951785,0.0028479733096435666
1772044137334820400,4.3448203125,0.0257195476680994,0.007020290558226406,0.00625624738316983
1772044137344806400,4.354806396484375,0.027512276303768155,0.005084646320529282,-0.0013491221871692687
1772044137354793200,4.364793212890625,0.031844168028235434,0.0034364407220855353,0.000032367899641394614
1772044137364779300,4.374779296875,0.028104396978020665,0.005632818255200981,0.006833471882389858
1772044137374765300,4.384765380859375,0.02661094354987144,0.010482413710840046,0.004965093327779322
1772044137384751400,4.39475146484375,0.0195762226074934,0.006579268792457878,0.007385132682090624
1772044137394737200,4.404737060546875,0.02541150463223457,0.009107800889387726,0.008076119754090904
1772044137404724500,4.414724365234375,0.02137304289638996,0.01117839661836624,0.0006903112185653299
1772044137414710300,4.424710205078125,0.019124971708655358,0.01174074320886284,0.008358041968010365
1772044137424696300,4.4346962890625,0.014930442628264427,0.00418784361127764,0.004191387275233865
1772044137434682400,4.444682373046875,0.011783961296081542,0.005741941185481846,0.0035656474591698496
1772044137444669200,4.454669189453125,0.02345744795501232,0.008517104987241328,-0.001444243991561234
1772044137454655500,4.464655517578125,0.023605331993103027,0.014419935822859406,0.00012271306421607732
1772044137464641300,4.474641357421875,0.02120703867971897,0.011054770238697529,0.004178116801707074
1772044137474627300,4.48462744140625,0.02404430793225765,0.005214446712657809,0.00827814513221383
1772044137484614400,4.494614501953125,0.020001170021295547,0.005710340470820665,0.004289532153774053
1772044137494600200,4.50460009765625,0.019248305827379224,0.008074987242929637,0.005704129925742745
1772044137504586200,4.514586181640625,0.024634090518951414,0.00941398076172918,0.009543105300422757
1772044137514572300,4.524572265625,0.02058569191098213,0.00927113822493702,0.009702104387572035
1772044137524558300,4.534558349609375,0.015195231044292448,0.010992883983626961,0.0007208068215288221
1772044137534545400,4.54454541015625,0.019680267503857613,0.008825330686196684,0.007638477255497127
1772044137544531500,4.554531494140625,0.020867431461811064,-0.005542363492771983,0.0024193543677218255
1772044137554517200,4.564517333984375,0.01757540417909622,0.005199614469707012,0.0019432338891085235
1772044137564503600,4.574503662109375,0.018030162209272383,0.00450257211625576,0.0035231234916951507
1772044137574490400,4.584490478515625,0.018173370072245596,-0.002535729022696614,-0.006394623807398602
1772044137584476200,4.59447607421875,0.021460136657953263,0.007144830253347754,0.0028704682692419735
1772044137594462500,4.60446240234375,0.0228004453510046,0.005492533001676202,0.004778073722543194
1772044137604448300,4.6144482421875,0.02444704351425171,0.011464593148604034,0.005395493234833702
1772044137614435300,4.624435302734375,0.021599837389588355,0.002993592325411737,-0.004123646668111905
1772044137624421400,4.63442138671875,0.03117547498643398,0.007084807161800563,0.005395703297387808
1772044137634407200,4.6444072265625,0.018151158240437507,0.019886822926625608,-0.00017533830059692263
1772044137644393500,4.6543935546875,0.022489479705691335,0.007010901675373315,0.009809208890702574
1772044137654379300,4.664379150390625,0.01485620834827423,0.005728789442963898,0.012111412285314873
1772044137664366300,4.674366455078125,0.018293197059631346,0.01438263601977378,0.006446326595172286
1772044137674352400,4.684352294921875,0.026520927178859708,0.01323342945203185,0.003904505758406594
1772044137684338400,4.69433837890625,0.010953355690836906,0.010341653533279895,0.002605862516304478
1772044137694324200,4.70432421875,0.020981997752189636,0.00774495157096535,0.013358151810243725
1772044137704311300,4.714311279296875,0.020830022060871124,0.010203779432550072,0.005212802744843066
1772044137714297300,4.72429736328125,0.017083236747980117,0.0092466979034245,0.0011039335207547992
1772044137724283100,4.734283203125,0.02396422843337059,0.010780044950544833,-0.006947216188861057
1772044137734269400,4.74426953125,0.028604163193702695,0.00044624593015760183,0.005160095310071483
1772044137744255200,4.754255126953125,0.020665186887979508,0.015900822030380367,0.014342176145222037
1772044137754242300,4.7642421875,0.015724807876348494,0.007448197114095091,0.00736491187796928
1772044137764228400,4.774228271484375,0.021417466560006142,0.013288959031552076,0.0033457302313297985
1772044137774214100,4.784214111328125,0.01917348702549934,0.01081135340426117,0.0006145517017692328
1772044137784200400,4.794200439453125,0.02410977438390255,0.004851239423453808,0.009323809127090498
1772044137794187300,4.804187255859375,0.01782382598221302,0.006682071579806506,0.005376222278783097
1772044137804173300,4.81417333984375,0.016333879685401915,0.006317914442531764,0.003684168405458331
1772044137814159400,4.824159423828125,0.01902151133418083,0.006704027683287858,0.001836120252823457
1772044137824145400,4.8341455078125,0.019622399836778638,0.00546491434238851,0.001382184206554666
1772044137834131200,4.844131103515625,0.03024433161616325,0.005780300434492528,0.004780530541110784
1772044137844118300,4.8541181640625,0.03143558722734451,0.0016369170194491744,0.0024609193539712575
1772044137854104000,4.86410400390625,0.02620060918331146,-0.000540536617487669,0.004229828722635284
1772044137864090000,4.874090087890625,0.02590308754146099,0.006002163024246692,0.004693555510556325
1772044137874076200,4.884076171875,0.0300941094905138,0.010033427834324538,0.00806603675149381
1772044137884063000,4.89406298828125,0.021115268743038176,0.004575929613411426,0.005308162011252716
1772044137894049300,4.90404931640625,0.020825930407643318,0.004982135794125497,0.008561766112875192
1772044137904035000,4.91403515625,0.01918751555085182,0.01680573498085141,0.006310653584683313
1772044137914021000,4.924021240234375,0.03281155175566673,0.00636953503191471,-0.0014228724099695682
1772044137924007200,4.934007080078125,0.024732874718308446,-0.0005259235702455043,0.004932140906248241
1772044137933994000,4.943993896484375,0.023684242448210716,0.0128023810910061,0.006005907617602497
1772044137943980300,4.953980224609375,0.02592354580760002,0.007491196005605161,0.0031435678558889776
1772044137953966000,4.963966064453125,0.02427519407868385,0.012757226775027811,0.00664742952468805
1772044137963952000,4.9739521484375,0.021875147199630737,0.011337276974506675,-0.0011577552003785966
1772044137973939200,4.983939208984375,0.011250292810797691,0.008837642178498207,0.0015770217920653522
1772044137983925000,4.993925048828125,0.02456862406730652,0.0074773501433432095,0.0116191169900354
1772044137993911000,5.0039111328125,0.020829437538981435,0.008909757566638291,0.007219923049863427
1772044138003897000,5.01389697265625,0.022469605961441992,0.008858684966526925,0.00007922098236158489
1772044138013884200,5.02388427734375,0.02651040578484535,0.003168766229227185,0.00784321518051438
1772044138023870200,5.0338701171875,0.01469020413160324,0.003474215449206531,0.013584078653762117
1772044138033856300,5.043856201171875,0.017982231414318085,0.005580905404873192,0.009660283672995864
1772044138043842000,5.053842041015625,0.015592705929279327,0.008184000575356185,-0.00008135814052075148
1772044138053828000,5.063828125,0.018137129715085028,0.009240816151909529,0.001646123239211738
1772044138063815200,5.073815185546875,0.02218085214793682,0.007085428216308355,0.011194279174087569
1772044138073801000,5.083801025390625,0.018293197059631346,0.00045618280228227373,-0.0005335680205840617
1772044138083787300,5.093787353515625,0.01036065049469471,0.007733407263644039,0.0024318759225774554
1772044138093773000,5.10377294921875,0.017397125002741813,0.009948526029847561,0.007800672946730628
1772044138103760100,5.113760009765625,0.014406711015105246,0.006191986507922411,0.0026100455010775476
1772044138113746200,5.12374609375,0.014558102184534072,0.006153115802258253,0.0006656608344987034
1772044138123732000,5.13373193359375,0.015150807380676269,-0.0003331409445032477,0.0006218125596176833
1772044138133718000,5.143718017578125,0.026522096222639083,0.0058180386289954185,0.001840723362704739
1772044138143704000,5.1537041015625,0.021286533656716344,0.009522226909175514,0.004206721841683611
1772044138153691100,5.163691162109375,0.02277764899730682,0.01545724298134446,0.006043225686997175
1772044138163677200,5.17367724609375,0.016641922721266744,0.0122015656536445,-0.0006088891459628939
1772044138173663200,5.183663330078125,0.02277764899730682,0.007415756149217486,0.0020352686872705814
1772044138183649000,5.19364892578125,0.020237316864728926,0.012312259486503899,0.006282094210479408
1772044138193636000,5.203635986328125,0.02771393635571003,0.00716667675897479,0.007673402438405901
1772044138203622100,5.2136220703125,0.03025309944450855,0.007375095345266163,0.0022467103477101773
1772044138213608000,5.22360791015625,0.027114801418781278,0.00620751287061721,0.0010077066046651451
1772044138223594200,5.23359423828125,0.014989479339122772,0.005260477811470627,0.0005403539543971419
1772044138233580000,5.243580078125,0.019629998621344565,0.005585691177845001,0.006772772937407716
1772044138243567000,5.253567138671875,0.023065233767032622,0.005869330424815416,0.0034824078888166694
1772044138253553200,5.26355322265625,0.015126257461309432,0.006921396761015057,0.00321392967836
1772044138263539200,5.273539306640625,0.026645430341362953,0.010992299461737274,0.005292078526131809
1772044138273525200,5.283525146484375,0.018116671448946,0.004099763469025492,0.001674463417707011
1772044138283511000,5.293510986328125,0.02097439896762371,0.008923895689845085,0.008750932009425014
1772044138293498000,5.303498046875,0.023218963024020194,0.0016093348927795886,0.0023933705430943517
1772044138303484200,5.313484130859375,0.017384850043058394,0.0012740019911900162,-0.00793351467931643
1772044138313470200,5.32347021484375,0.019783727878332137,0.008387450725585222,0.0009836498756427318
1772044138323456000,5.3334560546875,0.026369536009430882,0.009860226691886782,0.005867905652709305
1772044138333443000,5.343443115234375,0.012902736192941664,0.013555208752304315,0.0014993717122823
1772044138343429000,5.35342919921875,0.023524667972326278,0.006113441378995776,0.0013582644748501478
1772044138353415000,5.363414794921875,0.02965980972647667,0.0071439534705132245,0.007718081830348819
1772044138363401200,5.373401123046875,0.018283260187506676,0.0046698184419423335,0.007159744694689289
1772044138373387000,5.383386962890625,0.028304303464293478,0.004033822093345224,-0.0018667893857229499
1772044138383374300,5.393374267578125,0.02425824294388294,0.019397285844013092,0.0008612564718350768
1772044138393360100,5.403360107421875,0.022308277919888497,0.008549984343536198,0.006038476446643471
1772044138403346200,5.41334619140625,0.03069499799311161,0.004227116175740957,0.006295392083469778
1772044138413332200,5.423332275390625,0.01588672043979168,0.017463833563402295,0.007960822811350226
1772044138423319000,5.433319091796875,0.018138883280754088,0.01644092025645077,0.01084591326098889
1772044138433305000,5.44330517578125,0.023530513191223144,0.006487937247194349,0.0068826447863597415
1772044138443291100,5.453291015625,0.019637012884020803,0.009853504690155387,0.0013199782910756767
1772044138453277200,5.463277099609375,0.01619651704132557,0.018192951555550098,0.006019570816773921
1772044138463263000,5.473262939453125,0.017690554991364477,0.005188946945220232,0.009394061351707205
1772044138473250000,5.48325,0.021283611047267913,0.009480397061444818,0.007960420952551067
1772044138483236000,5.493236083984375,0.023982933133840558,0.016114135987497866,0.00698048827080056
1772044138493222100,5.50322216796875,0.02203530619740486,0.016456008227728306,0.007144117867294699
1772044138503208200,5.513208251953125,0.019192776247859,0.008088613909482956,-0.0021828787307254967
1772044138513194000,5.523194091796875,0.026076106020808218,0.002265241518244147,0.0033164767373818904
1772044138523181300,5.533181396484375,0.022032383587956426,0.013229009005241096,0.00011160714831203222
1772044138533167000,5.5431669921875,0.015150807380676269,0.011707023602351546,0.0056069805610459295
1772044138543153200,5.553153076171875,0.020237901386618615,0.0021389847900718448,0.005913808887358755
1772044138553139200,5.56313916015625,0.017837854507565497,0.01453311387374997,0.0038253852407447993
1772044138563126000,5.5731259765625,0.02053133137524128,0.005530161598324776,0.006450189919536933
1772044138573112000,5.583112060546875,0.013796470162272452,0.00662782064191997,0.0006569660713896155
1772044138583098000,5.59309814453125,0.017088497444987295,0.007966229638829828,0.0011404022067785262
1772044138593084200,5.603084228515625,0.021871640068292616,0.006869228182360529,0.006418461340712383
1772044138603070000,5.613070068359375,0.026211715099215507,-0.0023933614099398252,0.00228048475314863
1772044138613057000,5.62305712890625,0.023373276802897452,0.005281995523534715,0.0012506028492935
1772044138623043000,5.63304296875,0.007362637722492218,0.009875789587199688,0.004215380072174594
1772044138633029000,5.643029052734375,0.019782558834552762,0.01137275014668703,-0.001460318343527615
1772044138643015200,5.65301513671875,0.02336860062777996,0.0026177812829613683,0.0004116952065844089
1772044138653001000,5.6630009765625,0.01154839897453785,0.014703721200302243,-0.00027372977430932223
1772044138662988300,5.67298828125,0.0269569805085659,0.015044497461989522,-0.0013217044572811573
1772044138672974000,5.68297412109375,0.021865210327506063,0.004023118036240339,0.009380242888908832
1772044138682960100,5.692960205078125,0.02560556589961052,0.006878032543323934,0.004756336814770475
1772044138692946200,5.7029462890625,0.025754618981480598,0.00936246977020055,0.003329619346745312
1772044138702933000,5.71293310546875,0.01976443865597248,0.00707837742101401,0.010314235803391783
1772044138712920000,5.722920166015625,0.027546763095259663,0.004823182372748851,0.006238903522724285
1772044138722906000,5.732906005859375,0.022011925321817397,0.008256079430878163,0.005712788156233727
1772044138732892200,5.74289208984375,0.02978957358598709,0.006262604058720171,0.006207878196798264
1772044138742878200,5.752878173828125,0.027543255963921546,0.005407265871018171,0.0012393690692260862
1772044138752864000,5.762864013671875,0.01752279720902443,0.0062946796974167225,0.005750508084427565
1772044138762851300,5.772851318359375,0.020219196686148643,0.0038145533194765447,0.0025302765294443813
1772044138772837000,5.782837158203125,0.014228431838750838,0.006754150435328483,0.0036333789331372823
1772044138782823200,5.7928232421875,0.026198855617642403,0.00914805983453989,0.012194843651913105
1772044138792809000,5.80280908203125,0.02799976755976677,0.006751520086824893,0.0060690999137703325
1772044138802796000,5.812796142578125,0.027103695502877233,0.012096972768008708,0.007747746316250413
1772044138812782000,5.822781982421875,0.016030512824654577,0.01033007269334048,0.008530804719030857
1772044138822768000,5.83276806640625,0.017678280031681058,0.003419270391575992,0.008053807457583025
1772044138832754200,5.842754150390625,0.017529811471700667,-0.006771759157255292,0.0015792137491516768
1772044138842740000,5.852739990234375,0.02381517535150051,0.005321889142505825,0.006591808613622561
1772044138852727600,5.8627275390625,0.024563363370299338,0.004261018445342779,0.003347858256334439
1772044138862713600,5.872713623046875,0.017543255475163458,0.008064283185824752,0.005027481906348839
1772044138872699400,5.882699462890625,0.031766426616907116,0.006294716230034828,-0.00237945161559619
1772044138882685700,5.892685791015625,0.016652444115281103,0.005587700471840798,-0.0024874968336429447
1772044138892671500,5.90267138671875,0.015908347749710082,0.004170709813386202,0.005085641834372654
1772044138902658600,5.912658447265625,0.020690905851125718,0.005612798380479216,0.006657138067949563
1772044138912644600,5.92264453125,0.01679331389069557,0.00695321667138487,0.005485582671081647
1772044138922630700,5.932630615234375,0.016195932519435883,0.002599551506526768,0.009206110164709388
1772044138932616400,5.942616455078125,0.02248538805246353,0.012653547204844653,0.0050679783135186875
1772044138942603500,5.952603515625,0.026520342656970022,0.009484488714672624,0.004135099643887951
1772044138952589600,5.962589599609375,0.017841361638903618,0.006623984717018902,0.0026940613895654678
1772044138962575600,5.97257568359375,0.023685411491990088,0.01097012416254729,0.0017122564111370592
1772044138972561700,5.982561767578125,0.030571079352498053,0.0016249343207105993,0.004010760878166183
1772044138982547500,5.99254736328125,0.020843466064333915,0.004616152025945485,-0.002630686430307105
1772044138992534500,6.002534423828125,0.013064064234495161,0.012234554607793689,0.008084640987263992
1772044139002520600,6.0125205078125,0.016653028637170792,0.012737864487431942,0.010432007831009104
1772044139012506400,6.02250634765625,0.02638064192533493,0.006407382824271917,0.002603570094518363
1772044139022492700,6.03249267578125,0.032815643408894535,0.0057925388615578405,0.007689668586617336
1772044139032478500,6.042478515625,0.018155834415555,0.007082030682824552,-0.00021660189274698495
1772044139042465800,6.0524658203125,0.023244681987166404,0.010180435089580714,-0.005538892894051969
1772044139052451600,6.06245166015625,0.026083704805374145,0.003812544025480747,0.0011051938960794359
1772044139062437600,6.072437744140625,0.02144844622015953,0.0038379341950640082,0.006199082968989387
1772044139072423700,6.082423583984375,0.019806524232029915,0.0051044469995424144,0.0062044258643873034
1772044139082409700,6.09240966796875,0.01576513988673687,0.009909180400148033,0.003545106994640082
1772044139092396500,6.102396484375,0.01860591627061367,0.0086127839140594,0.004878036098834127
1772044139102382600,6.112382568359375,0.026083120283484456,0.00017820611111819744,0.0011297986143734306
1772044139112368600,6.12236865234375,0.029221418309211728,0.004619074635393917,0.0015202409703750162
1772044139122354400,6.1323544921875,0.027872341787815093,0.005717500863969325,0.0033123394183814524
1772044139132341500,6.142341552734375,0.02352583701610565,0.0008905556315556168,0.019718645019177347
1772044139142327600,6.15232763671875,0.027272622328996656,0.00989369057007134,0.007931551051093265
1772044139152313300,6.162313232421875,0.02248538805246353,0.004309789490513504,-0.003666002561105415
1772044139162299600,6.172299560546875,0.02756663683950901,0.0025905279498547313,0.00950866417470388
1772044139172285400,6.182285400390625,0.023220716589689255,0.014225326566211878,0.011395628698775544
1772044139182272800,6.192272705078125,0.01722936722040176,0.007150858135335147,0.006471415370656177
1772044139192258600,6.202258544921875,0.021565935119986532,0.01347436206843704,0.003865863381605595
1772044139202244600,6.21224462890625,0.01213701251745224,0.005431669659912586,0.005783743633748963
1772044139212230700,6.222230712890625,0.019175825113058088,0.014636683846078812,0.010884345575235783
1772044139222216700,6.232216796875,0.027702830439805985,0.0106731505099684,0.008092988690501079
1772044139232203500,6.24220361328125,0.03398877884149551,0.006431823145784437,-0.0011153042981401084
1772044139242189600,6.252189453125,0.02620236274898052,0.006251790403760969,0.0020047822174616156
1772044139252175600,6.262175537109375,0.025599136158823966,0.0058749564480036496,0.004640236154431477
1772044139262161400,6.272161376953125,0.01737023699581623,0.010205167672038077,0.0005458795128855854
1772044139272147700,6.282147705078125,0.02485211718380451,0.004794723463244736,0.009760520043922588
1772044139282134500,6.292134521484375,0.020054361513257027,0.00752312551382929,0.007076751719508319
1772044139292120600,6.30212060546875,0.024238369199633597,0.016012611841782928,0.006959619012707844
1772044139302106600,6.312106689453125,0.01376256789267063,0.01965575411710888,0.003129575863154605
1772044139312092400,6.322092529296875,0.021240940949320792,0.018215346050448715,0.002268556853337213
1772044139322079700,6.332079833984375,0.026033435922861097,0.012590893764793873,0.005882153373770416
1772044139332065500,6.3420654296875,0.017805705803632735,-0.008421791386604309,0.006662462697038426
1772044139342051600,6.352051513671875,0.025436639073491096,-0.0034806451899930834,0.010159739361424
1772044139352037600,6.36203759765625,0.014211480703949928,0.013931750447116791,0.009675316845346242
1772044139362023700,6.372023681640625,0.01975216369628906,0.029714425990544257,-0.00007375022280029952
1772044139372010500,6.382010498046875,0.02244797865152359,-0.0008412731297314166,0.0016882636141963303
1772044139381996500,6.39199658203125,0.02065583453774452,-0.01184234041981399,0.006316325273644179
1772044139391982600,6.401982666015625,0.020059622210264205,0.002778159476444125,0.005404297595797107
1772044139401968400,6.411968505859375,0.01811316431760788,0.013717778902873396,0.004551534957671538
1772044139411954700,6.42195458984375,0.020510873109102247,0.0073639894293621175,0.0027375900040380657
1772044139421941500,6.43194140625,0.020807225707173346,-0.0012510229744017124,-0.0014494681559503078
1772044139431927800,6.441927734375,0.01362228263914585,-0.0004768967967480421,0.006078644060250372
1772044139441913600,6.45191357421875,0.0173585465580225,0.014903700751811265,0.0024499413022305815
1772044139451899600,6.461899658203125,0.018106734576821326,0.007701879614219069,0.004281083985837176
1772044139461885700,6.4718857421875,0.027825580036640166,0.0036120164847001433,0.007622585566621274
1772044139471872500,6.48187255859375,0.016447276932001112,0.013287826520390808,0.005270250286813825
1772044139481858600,6.491858642578125,0.011812602868676185,0.0006773147396743297,0.002006133924331516
1772044139491844600,6.5018447265625,0.01764905393719673,-0.00009202566500753164,0.005620004439400509
1772044139501830700,6.51183056640625,0.024829320830106735,0.007430442261695862,0.012518385651009156
1772044139511816400,6.52181640625,0.025129180559515952,0.007376958508789539,0.00847004184196703
1772044139521803500,6.531803466796875,0.02722586057782173,0.01942008219771087,0.010850735566578805
1772044139531789600,6.54178955078125,0.028571429967880247,0.029442440648749468,0.007353851627837866
1772044139541775400,6.551775390625,0.007920271605253219,-0.0013511588806286454,0.0017801157492678612
1772044139551761700,6.56176171875,0.015994856989383698,-0.008557546595484017,0.006409017658932134
1772044139561748500,6.57174853515625,0.019890695384144782,0.006035480771958828,0.005100428411550819
1772044139571734800,6.58173486328125,0.01973521256148815,0.012185600899532436,0.004506791633646935
1772044139581720600,6.591720458984375,0.02288110937178135,0.008687968042120338,0.001752213962189853
1772044139591706600,6.60170654296875,0.013451017725467682,0.006169592013023794,0.003507295734900981
1772044139601692700,6.611692626953125,0.022282558956742287,0.01209832447487861,0.0005006247322075068
1772044139611679500,6.621679443359375,0.0236281283468008,0.008392601824738085,0.009000011399667709
1772044139621665500,6.63166552734375,0.020488661277294158,0.007128573238290846,0.0003644311319105327
1772044139631651600,6.641651611328125,0.015991349858045577,0.0015462795939296483,0.00577548726205714
1772044139641637600,6.6516376953125,0.018083353701233863,0.002979490734823048,0.000013398337690159677
1772044139651623400,6.66162353515625,0.020030396115779874,0.0090441610686481,0.01044078479250893
1772044139661610500,6.671610595703125,0.02871171522140503,0.009904650355502963,0.007421016846224665
1772044139671596500,6.681596435546875,0.030058453655242918,0.006652918550558388,0.004901334776030853
1772044139681582600,6.69158251953125,0.018540449818968772,0.0073377224769443266,0.008126936625875531
1772044139691568600,6.701568603515625,0.01405365979373455,0.009973368210159242,0.0075817238332703705
1772044139701554400,6.711554443359375,0.013306056296825408,0.015340776994824409,0.011195037225913257
1772044139711541800,6.721541748046875,0.01988426564335823,0.01844422290287912,0.01149558194191195
1772044139721527600,6.731527587890625,0.02557809337079525,0.01471194103937596,0.009205160316638648
1772044139731513600,6.741513671875,0.020798457878828048,0.00526961096599698,0.003769727797061205
1772044139741499600,6.751499755859375,0.02274550029337406,0.006159070619009435,0.004909417617786675
1772044139751485700,6.761485595703125,0.020496260061860082,0.002648797475732863,0.012113138451520353
1772044139761472500,6.771472412109375,0.02962181580364704,0.0038922581981867548,0.008980740443617106
1772044139771458600,6.78145849609375,0.015558803659677505,0.006077858608961105,-0.0008944646216928958
1772044139781444600,6.791444580078125,0.025738836890459058,0.0073452116636559366,-0.0019850728699937464
1772044139791430400,6.801430419921875,0.026933599632978436,0.014267923598922788,0.006726029452541842
1772044139801416700,6.811416748046875,0.021401099947094916,0.0044380555126816035,0.008429938160441816
1772044139811403500,6.821403564453125,0.019308511582016945,0.006512085307762027,0.005203596525080502
1772044139821389600,6.8313896484375,0.02289747598469257,0.010179156447947025,0.006281509688589722
1772044139831375600,6.841375732421875,0.018110826230049133,0.013990531429648399,0.002405974296340719
1772044139841361400,6.851361328125,0.028290274938941,0.00535878708679229,0.005135298795532435
1772044139851347700,6.86134765625,0.02515022334754467,0.0026013416048139334,0.010011015073116868
1772044139861334500,6.87133447265625,0.01077799912393093,0.008963935439288615,0.011556381351593882
1772044139871320600,6.881320556640625,0.01586567765176296,0.007916545278206467,0.008557930187974124
1772044139881306600,6.891306640625,0.014821137034893034,0.014710077875852583,0.003291625423915684
1772044139891292700,6.901292724609375,0.020058453166484833,0.012125431677512824,0.004746628271508961
1772044139901278500,6.911278564453125,0.026781623941659925,0.011708557972311974,0.009629897667886689
1772044139911265500,6.921265625,0.026482348734140394,0.011873137416876851,0.01051397789288312
1772044139921251600,6.93125146484375,0.016154431465268133,0.010847082304768264,0.006143936981959268
1772044139931237400,6.9412373046875,0.01421089618206024,0.01587221699040383,0.007129861013079062
1772044139941223700,6.9512236328125,0.01316343295574188,0.010033537432178854,0.009968080113688483
1772044139951209500,6.96120947265625,0.01839899552166462,0.014097900794260203,0.001919743415666744
1772044139961196500,6.971196533203125,0.020637714359164238,0.009587510697729885,0.006244520412757993
1772044139971182600,6.9811826171875,0.01958849756717682,0.013778203853219746,0.01321827754867263
1772044139981168400,6.99116845703125,0.027663082951307295,0.011829225209914147,0.005080298938974738
1772044139991154700,7.00115478515625,0.019732289952039718,0.011973163725249468,0.004772694294527173
1772044140001140500,7.011140380859375,0.02660802094042301,0.0034603330543264746,0.006715635922690853
1772044140011127600,7.02112744140625,0.03317804698050022,-0.007316898884624242,-0.000058360857423394916
1772044140021113600,7.031113525390625,-0.008122516179084778,-0.011162285733781755,0.0056497876563109456
1772044140031099600,7.041099609375,0.006840659675002097,0.06364961148127914,0.004207406828273088
1772044140041085400,7.05108544921875,0.03242342922091484,0.0618084405940026,0.005293055773666128
1772044140051072500,7.061072509765625,0.028980595290660858,-0.02180920582395047,0.015595464141946284
1772044140061058600,7.07105859375,0.007439794611930847,-0.058345586789026856,-0.0018265030411072074
1772044140071044600,7.081044677734375,0.01941021839082241,0.01674874409660697,0.019395459213107823
1772044140081030700,7.09103076171875,0.02778524802625179,0.030771935686841605,0.0016919351423159241
1772044140091016400,7.101016357421875,0.0218026664853096,-0.019394801625981926,0.00731502658794634
1772044140101002800,7.111002685546875,0.021807342660427092,0.0034566797925159333,0.005062379689794033
1772044140110989600,7.120989501953125,0.018066987088322637,0.039212577904388306,0.007426925997203216
1772044140120975600,7.1309755859375,0.008784779480099678,-0.004243117462471128,0.0014772877446375787
1772044140130961700,7.140961669921875,0.02044891378879547,-0.0003324833573773503,0.006664225395862013
1772044140140947500,7.150947509765625,0.025535423272848128,0.01902629710715264,-0.0015276936244685202
1772044140150933500,7.16093359375,0.021789807003736495,0.003600252981670201,0.0071816003334708505
1772044140160920600,7.170920654296875,0.02837444609105587,0.0014872428830713033,0.009715347461635247
1772044140170906600,7.18090673828125,0.02074000568985939,0.019563363125920295,0.007586674003023654
1772044140180892400,7.190892333984375,0.0255278244882822,0.005378880026750266,0.0024327070396393535
1772044140190878700,7.200878662109375,0.012663666740059852,0.0012610329117625951,0.003878074409207329
1772044140200864500,7.210864501953125,0.021041618984937668,0.018930143256299197,0.006187748724222183
1772044140210851600,7.2208515625,0.022234628161787985,0.01259074763432145,0.00631880035852082
1772044140220837600,7.230837646484375,0.023435820645093915,0.010552191011421382,0.006779622803302482
1772044140230823400,7.240823486328125,0.024185177707672117,0.017121559464372695,0.009593876506434753
1772044140240809700,7.250809814453125,0.02508475689589977,0.012775273888371885,0.00533141502267681
1772044140250795500,7.26079541015625,0.02313888352513313,0.01591360844671726,0.011055820551468058
1772044140260782600,7.270782470703125,0.0253840321034193,0.014866218285635113,0.010143098753876983
1772044140270768600,7.2807685546875,0.027332828083634374,0.0035531989695504304,0.005384012859594076
1772044140280754700,7.290754638671875,0.0210445415943861,0.013621953845582901,0.0018894304757937788
1772044140290740500,7.300740478515625,0.021938275563716886,0.0047996918993070715,0.006923935777973384
1772044140300726500,7.3107265625,0.022092589342594147,0.0027281828548759222,0.006893220979301258
1772044140310713600,7.320713623046875,0.0162561382740736,0.00603036620542407,-0.004634080408280715
1772044140320699600,7.33069970703125,0.029722353568673133,0.003976027491502464,0.0010213515375275164
1772044140330685700,7.340685791015625,0.022383681243658065,0.008579575764201581,0.013636977884778752
1772044140340671500,7.35067138671875,0.0174456403195858,0.005902648172527551,0.0029619824775960293
1772044140350657500,7.360657470703125,0.031359014859795566,0.005309468052349984,0.0073012537909206
1772044140360644600,7.37064453125,0.020279986962676046,0.0013395415080711245,0.00014299780041910707
1772044140370630400,7.38063037109375,0.014137246423959731,0.0035960882632061837,0.006875347395893186
1772044140380616700,7.39061669921875,0.027008418434858322,0.007889839934371411,0.005948332211468369
1772044140390602500,7.4006025390625,0.02581716282367706,0.011528415632434189,0.0000754398563876748
1772044140400588500,7.410588623046875,0.017141688936948774,0.009766593591682613,0.0015483254205435513
1772044140410575600,7.42057568359375,0.03091068657040596,0.010927892456017434,0.005243727606069296
1772044140420561700,7.430561767578125,0.027615736678242683,0.007381780814379453,0.004412400481617078
1772044140430547500,7.44054736328125,0.0220727155983448,0.002878295382671058,0.01428204345582053
1772044140440533800,7.45053369140625,0.02267185053527355,0.011276450165361166,0.004302254638029262
1772044140450519600,7.46051953125,0.020580431213974952,0.009249072523601352,0.005675013429112732
1772044140460506600,7.470506591796875,0.02327449260354042,0.0035517011322081086,0.0023944299890194085
1772044140470492700,7.48049267578125,0.013248773151636122,0.004868080960400402,0.008904113277141005
1772044140480478500,7.490478515625,0.0241729027479887,0.005139847106486559,0.005505967871984467
1772044140490464800,7.50046484375,0.024023849666118622,0.009187807323038578,0.00619414193239063
1772044140500450600,7.510450439453125,0.02342646829485893,0.007216324586980044,0.013233858710294588
1772044140510437400,7.520437255859375,0.020730653339624403,0.00724924047589302,0.006118327616667375
1772044140520423700,7.530423583984375,0.023271569994091985,0.012542561111040412,0.004025437857490033
1772044140530409500,7.540409423828125,0.02311374908387661,0.006885485197417438,0.004420181929273531
1772044140540395500,7.5503955078125,0.017721534651517868,0.013144399461708962,0.0006443623181432485
1772044140550381600,7.560381591796875,0.02325754146873951,0.01152147443499416,0.005248741707904264
1772044140560368600,7.57036865234375,0.021450784307718275,0.00650967415496707,0.004941557188564911
1772044140570354400,7.5803544921875,0.025934651723504065,0.0068795303806662555,0.008793711705226451
1772044140580340700,7.5903408203125,0.01949263597726822,0.01107537463530898,0.012253816430689766
1772044140590326500,7.600326416015625,0.022186112844943998,0.0062554436655715105,0.009958061043173073
1772044140600312600,7.6103125,0.013960720813274383,0.0028666414774954317,0.009820625333860515
1772044140610299600,7.620299560546875,0.021892098334431648,0.004620609005354345,0.004825684857089072
1772044140620285400,7.630285400390625,0.02907061166167259,0.008409260698594153,0.008509095210721716
1772044140630271700,7.640271728515625,0.02293897703886032,0.01418050104379654,0.0056606195775792
1772044140640257500,7.650257568359375,0.019796002838015556,0.008339994854666292,0.007342206855816766
1772044140650243600,7.66024365234375,0.01859071870148182,0.005102693433873355,-0.0038269104775507
1772044140660230700,7.670230712890625,0.023073417073488235,0.013766111556626855,0.0027366310228127983
1772044140670216400,7.680216552734375,0.032201310902833936,0.009597666765563189,0.009264571486832573
1772044140680202500,7.690202392578125,0.023817513439059256,0.0024600334379822016,0.005049830735474824
1772044140690188500,7.7001884765625,0.0137900404214859,0.004431662304513156,0.005828432158846408
1772044140700174600,7.710174560546875,0.016036358043551444,0.003628346564993262,0.004544347165059298
1772044140710161700,7.72016162109375,0.01797989332675934,0.006211750654317438,0.013067196906497701
1772044140720147700,7.730147705078125,0.024113866037130356,0.010713226792030036,0.006205129117285832
1772044140730133500,7.740133544921875,0.019178163200616834,0.007682846120186149,0.0034935138047207143
1772044140740119800,7.750119873046875,0.017681202641129493,0.009515614505298435,0.0019101810028776525
1772044140750105600,7.760105712890625,0.017836685463786126,0.0055273851193487645,0.010362111799418925
1772044140760092400,7.770092529296875,0.019031448206305503,0.017511764358356594,0.0014732143577188253
1772044140770078700,7.78007861328125,0.01723521243929863,0.01605382063500583,0.008605879249237476
1772044140780064500,7.790064453125,0.015148469293117523,0.013975443458370864,0.011482430199394001
1772044140790050600,7.800050537109375,0.02008767926096916,0.00617065145894885,0.0009940982044208794
1772044140800036600,7.81003662109375,0.02263093400299549,0.008309782379493117,0.004349016389204189
1772044140810022700,7.820022705078125,0.019040800556540487,0.008318002218566834,0.006176341414218768
