time,seconds_elapsed,z,y,x
1772044133060701200,0.070701171875,0.0007179277017712593,0.00020690495148301125,0.0002678516320884228
1772044133070687000,0.08068701171875,0.001840716227889061,0.0021821714472025633,-0.0007212464697659016
1772044133080673300,0.09067333984375,-0.0006151534616947174,-0.00043863040627911687,-0.0016325267497450113
1772044133090659000,0.1006591796875,-0.00010728836059570312,0.002286316128447652,-0.001121998531743884
1772044133100646100,0.110646240234375,0.002083779312670231,0.00021166028454899788,-0.0022215929348021746
1772044133110632200,0.120632080078125,-0.00046273600310087204,0.0009301811223849654,-0.00011742929928004742
1772044133120618000,0.130617919921875,-0.0027949344366788864,0.0002660280151758343,-0.00019646389409899712
1772044133130604000,0.14060400390625,-0.001799711026251316,-0.00041254545794799924,0.0026280847378075123
1772044133140591000,0.150591064453125,-0.00025739893317222595,0.0020653880201280117,0.0015186972450464964
1772044133150577200,0.1605771484375,-0.0001223767176270485,0.00021742054377682507,0.0013703592121601105
1772044133160563200,0.170563232421875,0.003104652278125286,0.001604798249900341,0.0004079339560121298
1772044133170550000,0.180550048828125,-0.00033055897802114487,0.0005752200959250331,0.00039541698060929775
1772044133180536000,0.1905361328125,-0.0007338458672165871,-0.0008697580778971314,-0.00017931824550032616
1772044133190522000,0.200522216796875,0.0016355682164430618,0.0002727380197029561,-0.0010040993802249432
1772044133200508200,0.210508056640625,-0.00013730023056268692,0.0007657805108465254,-0.00017595919780433178
1772044133210495200,0.2204951171875,0.003070211037993431,-0.0005958937108516693,-0.00017329608090221882
1772044133220481300,0.230481201171875,0.0010329866781830788,0.0015215170569717884,-0.0011100831907242537
1772044133230467000,0.240467041015625,0.000010599382221698761,0.0010701112914830446,-0.00029116147197782993
1772044133240453000,0.250453125,0.0009463448077440262,0.001962064765393734,0.0014142580330371857
1772044133250440200,0.260440185546875,0.0007463414222002029,0.0017231793608516455,-0.0013588916044682264
1772044133260426000,0.270426025390625,-0.0009928792715072632,0.0013590642483904958,0.0013264426961541176
1772044133270412300,0.280412353515625,0.000030307099223136902,0.00023947132285684347,-0.00016945484094321728
1772044133280399000,0.290399169921875,-0.0004527922719717026,-0.0009255703189410269,0.000469067832455039
1772044133290385000,0.300385009765625,-0.0005846191197633743,-0.0022097465116530657,-0.000590337673202157
1772044133300371200,0.31037109375,-0.003977568820118904,0.001931522274389863,-0.000685171689838171
1772044133310357000,0.32035693359375,0.002502167597413063,0.0008987484034150839,0.00012043467722833157
1772044133320344300,0.33034423828125,0.002341940999031067,0.0030737752094864845,0.001965481787919998
1772044133330330000,0.340330078125,-0.001959863118827343,0.0020764213986694813,0.001223525032401085
1772044133340316200,0.350316162109375,-0.0006315503269433975,0.000417585571995005,0.00048451521433889866
1772044133350302200,0.36030224609375,0.002680356614291668,-0.001976330066099763,-0.0031730702612549067
1772044133360289000,0.3702890625,0.0027557937428355217,-0.00040688517037779093,0.0023685810156166553
1772044133370275000,0.380275146484375,0.0009046299383044243,0.00109487131703645,-0.0015313518233597279
1772044133380261000,0.39026123046875,0.0008400082588195801,-0.0016046606469899416,0.00119136949069798
1772044133390248000,0.400248046875,0.0017225798219442368,-0.0015764310956001282,0.000054199714213609695
1772044133400234200,0.410234130859375,0.0028552282601594925,-0.0005065550212748349,0.0012629483826458454
1772044133410220000,0.420219970703125,0.0008653141558170319,-0.0018075092229992151,-0.00035998178645968437
1772044133420206000,0.4302060546875,0.00036275293678045273,0.0008080943371169269,0.000023812055587768555
1772044133430193200,0.440193115234375,0.001466900110244751,0.0011018409859389067,-0.0011365273967385292
1772044133440179200,0.45017919921875,0.0026698634028434753,-0.0003030826919712126,-0.000719018978998065
1772044133450165000,0.4601650390625,0.0008533215150237083,0.001245811814442277,-0.0017214331310242414
1772044133460152000,0.470152099609375,0.0023981481790542603,-0.00010223314166069031,0.0016440210165455937
1772044133470138000,0.48013818359375,0.0008364701643586159,-0.00046868412755429745,0.0013042017817497253
1772044133480124200,0.490124267578125,0.002177719958126545,0.00020424267859198153,-0.00004333211109042168
1772044133490110200,0.500110107421875,0.0018687937408685684,-0.0009901849552989006,0.00020247767679393291
1772044133500097000,0.510096923828125,-0.0017845304682850838,-0.00413111736997962,-0.0006968718953430653
1772044133510083000,0.5200830078125,-0.0012849215418100357,0.002197086112573743,-0.0012047365307807922
1772044133520069000,0.530069091796875,0.0015444085001945496,-0.0010835640132427216,0.0005144539754837751
1772044133530055200,0.54005517578125,0.0000357283279299736,0.0017393867019563913,-0.0022810660302639008
1772044133540042200,0.550042236328125,-0.0018192455172538757,-0.00023236399283632636,-0.0007873247377574444
1772044133550028000,0.560028076171875,-0.001718577928841114,0.0012198577169328928,0.00038712937384843826
1772044133560014000,0.57001416015625,0.003849731758236885,-0.0019124005921185017,0.0009832389187067747
1772044133570001200,0.580001220703125,0.0001569921150803566,0.0010642146226018667,0.00007217167876660824
1772044133579987000,0.589987060546875,0.0015920912846922874,-0.0005177403218112886,0.0002272450365126133
1772044133589973200,0.59997314453125,0.0008045947179198265,0.0011754974257200956,-0.00039034197106957436
1772044133599959000,0.609958984375,-0.0011051585897803307,0.0010495299939066172,-0.002066269051283598
1772044133609946000,0.619946044921875,-0.001810896210372448,-0.0004583518602885306,0.0020981156267225742
1772044133619932200,0.62993212890625,-0.0015066815540194511,0.0011219141306355596,0.00017880136147141457
1772044133629918200,0.639918212890625,-0.0005202470347285271,0.0016388336662203074,-0.0009386611636728048
1772044133639905300,0.6499052734375,-0.0005446476861834526,-0.0025450598914176226,-0.0003044505137950182
1772044133649891000,0.65989111328125,0.0013022543862462044,0.0006326239090412855,0.001897983718663454
1772044133659877000,0.669877197265625,0.0029703574255108833,0.000021495972760021687,-0.001654784893617034
1772044133669863200,0.67986328125,-0.0024728765711188316,0.0009823644068092108,-0.0014214918483048677
1772044133679850000,0.68985009765625,-0.0009418409317731857,-0.0005809800932183862,-0.000884093577042222
1772044133689836000,0.6998359375,0.0012936163693666458,0.0011495420476421714,-0.0009717119392007589
1772044133699822000,0.709822021484375,-0.0009079864248633385,-0.0027861972339451313,0.002716244198381901
1772044133709808000,0.71980810546875,-0.00032741762697696686,-0.000505998672451824,0.0027295600157231092
1772044133719795200,0.729795166015625,0.001678292639553547,-0.001282188924960792,0.0028210352174937725
1772044133729781200,0.73978125,-0.0024520037695765495,0.0020795194432139397,0.0011259333696216345
1772044133739767000,0.74976708984375,-0.00012519210577011108,0.0009280529338866472,0.00029842881485819817
1772044133749754000,0.759754150390625,0.0015576593577861786,-0.0007452111458405852,0.002687550615519285
1772044133759740200,0.769740234375,0.000018256716430187225,-0.000404707679990679,-0.0005233283154666424
1772044133769726000,0.779725830078125,-0.00028507690876722336,-0.0007298796554096043,0.0016380933811888099
1772044133779712300,0.789712158203125,0.0010200468823313713,-0.000850460201036185,0.0005413349717855453
1772044133789699000,0.799698974609375,-0.0007498897612094879,0.00021001059212721884,0.0006300183013081551
1772044133799685000,0.80968505859375,0.0012861918658018112,0.00016272105858661234,-0.00001695798709988594
1772044133809671200,0.819671142578125,-0.001013181172311306,-0.0008641938329674304,0.001731673488393426
1772044133819658000,0.829657958984375,-0.001575816422700882,0.0006564105278812349,0.001012955093756318
1772044133829644300,0.839644287109375,0.00013526435941457748,0.0003019438008777797,0.002705393824726343
1772044133839630000,0.849630126953125,0.0006031710654497147,0.0006862444570288062,-0.0008750027045607567
1772044133849616100,0.8596162109375,0.002433828078210354,0.0008857152424752712,0.0019572689197957516
1772044133859603000,0.86960302734375,-0.000520496629178524,-0.0017686034552752972,0.0008941092528402805
1772044133869588700,0.879588623046875,0.00026300549507141113,0.001665809191763401,0.0018930610967800021
1772044133879575000,0.889574951171875,0.0007578013464808464,-0.0005629768129438162,0.0015755259664729238
1772044133889561900,0.899561767578125,0.0008411584421992302,0.0015539699234068394,-0.00012676650658249855
1772044133899548200,0.909548095703125,-0.0007854914292693138,0.002563567366451025,0.0037713453639298677
1772044133909534000,0.919533935546875,0.0027940627187490463,-0.0006596564780920744,0.001193405594676733
1772044133919520000,0.92952001953125,0.0031396476551890373,0.0012478511780500412,0.0007503500673919916
1772044133929507000,0.939507080078125,0.000538271851837635,0.0010683542350307107,0.001723735360428691
1772044133939492900,0.949492919921875,0.0005012871697545052,-0.0015058766584843397,0.00024793995544314384
1772044133949479000,0.95947900390625,-0.0010723751038312912,0.002120283432304859,0.0005320992786437273
1772044133959466000,0.969466064453125,0.000047635287046432495,-0.00007755018305033445,-0.00014423136599361897
1772044133969452000,0.9794521484375,0.0006154216825962067,-0.0007923426455818117,-0.0007178764790296555
1772044133979438000,0.98943798828125,0.0004767701029777527,-0.001801124308258295,0.0011103921569883823
1772044133989423900,0.999423828125,0.002260821871459484,-0.0003648814163170755,-0.0002882999833673239
1772044133999411000,1.009410888671875,-0.0003545740619301796,-0.0016180500388145447,-0.0003467176575213671
1772044134009397000,1.01939697265625,-0.0006310110911726952,-1.7980346456170082e-7,0.00045063276775181293
1772044134019383000,1.029383056640625,0.0037994133308529854,-0.001912323059514165,0.0008063882123678923
1772044134029368800,1.039368896484375,0.0005524875596165657,-0.0009224261739291251,-0.0005038869567215443
1772044134039356000,1.04935595703125,0.000361880287528038,-0.000929222151171416,-0.00008888076990842819
1772044134049342000,1.059342041015625,-0.0008373409509658813,-0.0010581191163510084,-0.000830038683488965
1772044134059327700,1.06932763671875,0.0004096589982509613,0.0011592456139624119,-0.0009152079001069069
1772044134069315000,1.079315185546875,0.0011076731607317924,0.0005935902590863407,-0.0016856607981026173
1772044134079300900,1.08930078125,0.0006390241906046867,-0.0008695066208019853,-0.0007222492713481188
1772044134089287200,1.099287109375,0.002155694179236889,-0.00045671663247048855,-0.0005227786023169756
1772044134099273000,1.10927294921875,-0.0004314826801419258,-0.00038033752935007215,-0.0011174371466040611
1772044134109259800,1.119259765625,0.001301703043282032,0.0030876309610903263,-0.0012141098268330097
1772044134119246000,1.12924609375,0.0007180375978350639,0.0010088746203109622,-0.0013465199153870344
1772044134129232000,1.13923193359375,0.000286872498691082,0.0007534774485975504,0.0024974867701530457
1772044134139218000,1.149218017578125,-0.001984882168471813,0.0017760943155735731,-0.0011989034246653318
1772044134149205000,1.159205078125,0.0018764343112707138,0.0007598320953547955,-0.0018399262335151434
1772044134159190800,1.169190673828125,-0.0003246702253818512,0.00009306747233495116,-0.0012077947612851858
1772044134169177000,1.179177001953125,-0.0002583581954240799,-0.0009407716570422053,0.00042978301644325256
1772044134179164000,1.189163818359375,-0.0011245207861065865,0.0031974066514521837,-0.001208276255056262
1772044134189150000,1.19914990234375,-0.0013311821967363358,0.001404300332069397,-0.000033555785194039345
1772044134199136000,1.209135986328125,0.0012606214731931686,0.0010605636052787304,-0.00034596165642142296
1772044134209122000,1.2191220703125,-0.0011340929195284843,0.001012094086036086,-0.0005366438999772072
1772044134219109000,1.229109130859375,-0.00036001764237880707,0.0003886314225383103,-0.0006498801521956921
1772044134229095000,1.239094970703125,-0.0029004067182540894,0.0002176564885303378,-0.001736183650791645
1772044134239081000,1.2490810546875,-0.00027673784643411636,0.002044722903519869,-0.0010558315552771091
1772044134249068000,1.259068115234375,-0.001837083138525486,0.00020873965695500374,-0.0011927178129553795
1772044134259053800,1.2690537109375,-0.002826463431119919,0.0003349875332787633,0.0009638231713324785
1772044134269039900,1.279039794921875,-0.00010924041271209717,0.000136315735289827,-0.0010473961010575294
1772044134279026000,1.28902587890625,-0.0004663504660129547,0.0012643258087337017,-0.00013374187983572483
1772044134289013000,1.299012939453125,0.0003685504198074341,0.0018102737376466393,-0.0008288270328193903
1772044134298999000,1.3089990234375,0.00013437122106552124,-0.0004947224515490234,0.0006660395301878452
1772044134308985000,1.318985107421875,-0.0017069391906261444,0.0030044049490243196,0.0003089096862822771
1772044134318972000,1.328971923828125,0.000656389631330967,-0.0004582696419674903,0.0010290367063134909
1772044134328958000,1.3389580078125,0.0013544047251343727,0.0011335017625242472,-0.0004330389201641083
1772044134338944000,1.348944091796875,-0.0007494436576962471,0.0006165924714878201,0.0017882741522043943
1772044134348929800,1.3589296875,0.0001730751246213913,7.066410034894943e-8,0.0004899832420051098
1772044134358917000,1.368917236328125,-0.0018689557909965515,0.000014914083294570446,0.00041301408782601357
1772044134368903000,1.37890283203125,0.001178499311208725,0.0002607238420750946,-0.00003253272734582424
1772044134378889000,1.388888916015625,-0.0012776702642440796,-0.0008429152658209205,-0.0021021366119384766
1772044134388875000,1.398875,0.00009758677333593369,-0.0005283958744257689,-0.0008901320397853851
1772044134398861800,1.40886181640625,0.0012947823852300644,0.0017602082807570696,-0.0013181471731513739
1772044134408848100,1.41884814453125,-0.001504732295870781,-0.002196982968598604,-0.0014307990204542875
1772044134418834000,1.428833984375,0.0014826767146587372,0.001379424356855452,-0.0002702525816857815
1772044134428820700,1.43882080078125,0.002227296121418476,-0.0003002313314937055,0.0011928882449865341
1772044134438807000,1.44880712890625,0.000007980503141880035,0.0014520238619297743,0.00014809705317020416
1772044134448792800,1.458792724609375,-0.0006769848987460136,0.0004642574058379978,-0.0009182326029986143
1772044134458779000,1.46877880859375,0.0013917488977313042,-0.0006058502476662397,0.00007307669147849083
1772044134468766000,1.478765869140625,-0.0006522266194224358,0.0011853919131681323,-0.0005650166422128677
1772044134478752000,1.488751953125,-0.000345572829246521,0.0008968205656856298,-0.0005843890830874443
1772044134488738000,1.498738037109375,0.0017388835549354553,0.0003868252388201654,0.0012651763390749693
1772044134498724000,1.50872412109375,0.0009108930826187134,0.0003764546709135175,-0.00002117757685482502
1772044134508711000,1.5187109375,0.0013444554060697556,-0.0001479217316955328,0.0005458095110952854
1772044134518697000,1.528697021484375,0.0012130485847592354,0.00039561616722494364,0.00042917043901979923
1772044134528683000,1.53868310546875,0.0017848294228315353,0.00008429260924458504,-0.0022592907771468163
1772044134538670000,1.548670166015625,-0.000777839682996273,0.001980532892048359,0.0018122057663276792
1772044134548655900,1.55865576171875,0.00025839637964963913,0.0017296629957854748,0.0008263036143034697
1772044134558642000,1.568641845703125,0.0032363412901759148,-0.0001895545283332467,-0.0008310338016599417
1772044134568627700,1.578627685546875,0.0002789003774523735,-0.0005418907385319471,-0.000763655873015523
1772044134578615000,1.588614990234375,0.0008272528648376465,0.00148516776971519,0.00003987504169344902
1772044134588600800,1.598600830078125,0.003410785458981991,-0.0010626784060150385,0.0014665303751826286
1772044134598587100,1.608587158203125,0.0021141422912478447,0.00047335238195955753,0.0007681336719542742
1772044134608573000,1.618572998046875,-0.00032824277877807617,-0.003896096022799611,-0.001658272696658969
1772044134618559700,1.628559814453125,0.00013405457139015198,-0.0037894085980951786,0.0009538230951875448
1772044134628546000,1.638546142578125,0.002048068679869175,-0.0009957525180652738,-0.0005346175748854876
1772044134638531800,1.64853173828125,0.0005269572138786316,0.0004245821910444647,-0.00014193798415362835
1772044134648519000,1.658518798828125,-0.0002663983032107353,0.0011955673107877374,-0.0011358298361301422
1772044134658505000,1.6685048828125,0.0010446421802043915,-0.0013379098381847143,-0.0007042307406663895
1772044134668491000,1.678490966796875,0.0007157418876886368,0.0018754602642729878,0.001502464758232236
1772044134678477000,1.68847705078125,-0.0024620695039629936,-0.001160063548013568,0.0004735433030873537
1772044134688464000,1.6984638671875,0.0022748950868844986,-0.0009842949220910668,0.0023835625033825636
1772044134698450000,1.708449951171875,0.0013017868623137474,-0.0005318480543792248,0.0025209030136466026
1772044134708436000,1.71843603515625,0.0011459914967417717,-0.0005670017562806606,0.00265699066221714
1772044134718422800,1.7284228515625,-0.0009275404736399651,0.0009032858652062714,0.0005473196506500244
1772044134728409000,1.7384091796875,-0.00009636767208576202,0.0015203403308987617,-0.0003653457388281822
1772044134738395000,1.748394775390625,-0.000606355257332325,0.002100382000207901,-0.000053313327953219414
1772044134748381000,1.758380859375,-0.0007459046319127083,0.0006793191423639655,0.00036693341098725796
1772044134758368000,1.768367919921875,-0.0011392747983336449,0.0005634548724628985,0.0019494200823828578
1772044134768354000,1.77835400390625,0.0020946012809872627,-0.0011470934841781855,-0.0005923006683588028
1772044134778339800,1.78833984375,-0.0004924926906824112,0.0010724733583629131,-0.0003527267836034298
1772044134788326100,1.798326171875,-0.0014453725889325142,0.0014775401214137673,0.0015820597764104605
1772044134798313000,1.80831298828125,-0.0002084551379084587,-0.001923565287142992,0.001109548844397068
1772044134808299000,1.818299072265625,-0.0005243057385087013,-0.0010670926421880722,0.0009561507031321526
1772044134818285000,1.82828515625,0.0007384931668639183,-0.000015834084479138255,-0.00018274784088134766
1772044134828270800,1.838270751953125,-0.0006825700402259827,-0.0004163734847679734,-0.0007108526770025492
1772044134838258000,1.8482578125,-0.0002851411700248718,0.0032445755787193775,-0.00028952304273843765
1772044134848243500,1.858243408203125,-0.0001911316066980362,-0.0005658753216266632,-0.0006269456353038549
1772044134858229800,1.868229736328125,-0.0010368023067712784,-0.0002265811199322343,0.0005132430233061314
1772044134868216600,1.878216552734375,0.001467367634177208,-0.0008700008038431406,-0.0019680242985486984
1772044134878202600,1.88820263671875,-0.0011946801096200943,0.0007637919625267386,0.00014010886661708355
1772044134888188700,1.898188720703125,0.002247988246381283,-0.0013307841727510095,0.0021180384792387486
1772044134898174500,1.908174560546875,-0.0017154710367321968,-0.0032910029403865337,0.0010429196991026402
1772044134908161500,1.91816162109375,-0.00008828006684780121,-0.0006936219288036227,0.0019800858572125435
1772044134918147600,1.928147705078125,-0.0014402158558368683,-0.000668477441649884,0.0013661948032677174
1772044134928133400,1.93813330078125,0.00002478901296854019,-0.0010666199959814548,-0.0005187906790524721
1772044134938119700,1.94811962890625,-0.001736900769174099,0.0021802536211907864,0.002036759629845619
1772044134948106500,1.9581064453125,-0.0005493964999914169,0.001236962154507637,0.0003280756063759327
1772044134958092800,1.9680927734375,-0.0014899922534823418,-0.0014011964667588472,0.0009956294670701027
1772044134968078600,1.97807861328125,0.00011189933866262436,0.0030247110407799482,0.0008448946755379438
1772044134978064600,1.988064697265625,0.000822683796286583,0.001137100043706596,0.00041326810605823994
1772044134988051700,1.9980517578125,0.00014277920126914978,-0.002007560571655631,-0.0010602590627968311
1772044134998037500,2.00803759765625,0.000405861996114254,0.0002432001056149602,0.0015979781746864319
1772044135008023600,2.0180234375,-0.0016013626009225845,-0.0010375140700489283,0.0008496299851685762
1772044135018010600,2.0280107421875,0.0001630093902349472,-0.00014472915790975094,-0.0007009629625827074
1772044135027996400,2.037996337890625,0.0005827238783240318,0.0028385438490659,0.0007608460728079081
1772044135037982500,2.047982421875,-0.0016142670065164566,-0.0002653464034665376,0.001808213535696268
1772044135047968500,2.057968505859375,0.00021985173225402832,-0.0006720110541209579,-0.0010269877966493368
1772044135057955600,2.06795556640625,-0.00004797428846359253,-0.0017208218341693282,0.0011575294192880392
1772044135067941600,2.077941650390625,0.0009334003552794456,-0.00140470452606678,0.0009263670071959496
1772044135077927700,2.087927734375,-0.00040132179856300354,0.0017101208213716745,-0.0003833062946796417
1772044135087913500,2.09791357421875,-0.0009075887501239777,0.00035483817919157445,0.0006878171116113663
1772044135097900500,2.107900634765625,-0.00023249071091413498,0.0008086010930128396,-0.0008372885640710592
1772044135107886600,2.117886474609375,0.001884988509118557,-0.00004121358506381512,0.0003696561325341463
1772044135117872400,2.127872314453125,-0.0008369684219360352,0.00018926836492028087,-0.0006830301135778427
1772044135127858700,2.137858642578125,0.00029860343784093857,0.001459596212953329,-0.00022336863912642002
1772044135137845500,2.147845458984375,0.0014053452759981155,-0.00020341743947938085,-0.0010482752695679665
1772044135147831600,2.15783154296875,0.0013723224401474,-0.0006899769650772214,0.0026202292647212744
1772044135157817600,2.167817626953125,0.00003219489008188248,0.0012033648090437055,0.0007362940814346075
1772044135167804400,2.177804443359375,-0.0004122871905565262,-0.002335443627089262,-0.0018682773225009441
1772044135177790700,2.187790771484375,-0.0005874941125512123,-0.002153903478756547,-0.001045749057084322
1772044135187776500,2.197776611328125,0.0026730140671133995,0.0016650694888085127,0.000271450262516737
1772044135197762600,2.207762451171875,-0.00001727323979139328,0.0005323492223396897,-0.0006986327935010195
1772044135207749600,2.21774951171875,-0.0014923987910151482,0.001616522204130888,0.001438021194189787
1772044135217735400,2.2277353515625,-0.0007066298276185989,0.001790299778804183,-0.00025185919366776943
1772044135227721700,2.2377216796875,-0.0018706973642110825,0.0012779076350852847,-0.0017671978566795588
1772044135237707500,2.24770751953125,0.00018160417675971985,0.0008014402119442821,0.00012668338604271412
1772044135247694600,2.257694580078125,-0.001585668884217739,0.00021661004575435072,-0.00035987584851682186
1772044135257680600,2.2676806640625,-0.0018122820183634758,0.0006103904452174902,-0.0006271721795201302
1772044135267666700,2.277666748046875,-0.000003462657332420349,0.0013408954255282879,-0.0018698032945394516
1772044135277652500,2.287652587890625,-0.0022337641566991806,-0.0009872002992779016,-0.00016085035167634487
1772044135287639600,2.2976396484375,-0.0015903441235423088,-0.0009576391894370317,-0.0022493014112114906
1772044135297625600,2.30762548828125,-0.0012554014101624489,0.0012024124152958393,-0.0002405429258942604
1772044135307611400,2.317611328125,-0.00003993511199951172,0.0002961387508548796,-0.0006546643562614918
1772044135317597700,2.32759765625,-0.0004132520407438278,0.0009361749980598688,-0.001112594734877348
1772044135327584500,2.33758447265625,-0.001051611267030239,0.0010128740686923265,0.00014255312271416187
1772044135337570600,2.347570556640625,0.000004494562745094299,0.0006130585679784417,-0.000334286829456687
1772044135347556600,2.357556640625,0.0006806710734963417,0.000530766905285418,-0.003274949500337243
1772044135357543400,2.36754345703125,-0.002995557151734829,0.0013686931924894452,-0.0021999292075634003
1772044135367529700,2.37752978515625,0.000783202238380909,-0.001554126269184053,-0.0005735368467867374
1772044135377515500,2.387515625,-0.0021639447659254074,0.0004877639003098011,-0.0007709281053394079
1772044135387501600,2.39750146484375,-0.0020443685352802277,-0.0009575336007401347,0.0028131541330367327
1772044135397488600,2.407488525390625,0.0007137889042496681,0.0007894180016592145,-0.0013791993260383606
1772044135407474400,2.417474365234375,0.0021801255643367767,-0.0008180660079233348,-0.0011557601392269135
1772044135417460700,2.427460693359375,-0.0005469825118780136,0.00023759710893500596,-0.0015264248941093683
1772044135427446500,2.437446533203125,-0.0009792130440473557,0.0012876815162599087,0.0030116017442196608
1772044135437433600,2.44743359375,-0.001499050296843052,0.0011238011065870523,0.0009624876547604799
1772044135447419600,2.457419677734375,-0.0011901231482625008,0.001319277100265026,0.0005832535680383444
1772044135457405400,2.467405517578125,-0.0019194455817341805,0.0000029452494345605373,-0.0006634497549384832
1772044135467391500,2.4773916015625,0.0020385440438985825,-0.0013651205226778984,-0.0007201752159744501
1772044135477378600,2.487378662109375,0.0009110858663916588,0.0010908382246270776,0.0015967097133398056
1772044135487364600,2.497364501953125,-0.0010886816307902336,-0.0003201044746674597,-0.0009522016625851393
1772044135497350700,2.5073505859375,0.0007718373090028763,-0.0002802380477078259,0.0002749478444457054
1772044135507336700,2.517336669921875,0.0002498580142855644,-0.0008791830041445792,-0.00004409882239997387
1772044135517323500,2.527323486328125,-0.0012343572452664375,0.001876207534223795,0.002161315642297268
1772044135527309600,2.5373095703125,-0.0005304841324687004,0.0009590148692950606,0.0006358572281897068
1772044135537295600,2.547295654296875,-0.00017313286662101746,-0.00027674686862155795,0.00009645428508520126
1772044135547281400,2.557281494140625,0.0010188976302742958,-0.0011324204970151186,0.002279713749885559
1772044135557268700,2.567268798828125,0.0021665412932634354,0.0012367683229967952,-0.0007798641454428434
1772044135567254500,2.577254638671875,-0.00042178481817245483,0.0022759337443858385,0.001473170006647706
1772044135577240600,2.587240478515625,0.0010330192744731903,-0.0011671993415802717,0.0006490298546850681
1772044135587226600,2.5972265625,0.0017507411539554596,0.000521777372341603,0.0008844533003866673
1772044135597213400,2.60721337890625,-0.00026533566415309906,0.001916566863656044,0.0004335737321525812
1772044135607199700,2.61719970703125,0.0008579855784773827,-0.0013729695929214358,0.002622958505526185
1772044135617185500,2.627185546875,0.0014347881078720093,-0.00045244101784192026,-0.0014365355018526316
1772044135627171600,2.637171630859375,-0.0004488658159971237,0.000009883748134598136,-0.000008016126230359077
1772044135637158700,2.64715869140625,0.0016222978010773659,-0.00019312332733534276,-0.0009297998622059822
1772044135647144400,2.65714453125,0.00011734571307897568,-0.0000892600801307708,-0.0019465945661067963
1772044135657130500,2.667130615234375,-0.00012341048568487167,-0.001291480497457087,-0.0019511706195771694
1772044135667117600,2.67711767578125,-0.0007191598415374756,0.0008936432423070073,-0.0005434234626591206
1772044135677103600,2.687103515625,-0.000758221372961998,-0.0016830128151923418,0.0018550914246588945
1772044135687089700,2.697089599609375,0.002100149169564247,0.00014551356434822083,0.0008220511954277754
1772044135697075700,2.70707568359375,-0.0006073005497455597,-0.0007899163756519556,0.00021602213382720947
1772044135707062500,2.7170625,-0.000013948418200016022,-0.0009792671771720052,0.0004956540651619434
1772044135717048600,2.727048583984375,0.0009461762383580208,-0.0011301243212074041,0.00034770648926496506
1772044135727034600,2.73703466796875,-0.0009483965113759041,-0.0010955032194033265,0.0011945916339755058
1772044135737020400,2.7470205078125,0.0011545028537511826,0.0015811582561582327,0.00040073972195386887
1772044135747007500,2.757007568359375,0.00045169517397880554,-0.0003762650885619223,0.003233544062823057
1772044135756993500,2.76699365234375,-0.002977549098432064,0.001681679510511458,-0.00012884149327874184
1772044135766979600,2.7769794921875,-0.0012179985642433167,0.00044277697452344,-0.0007874411530792713
1772044135776965600,2.786965576171875,-0.0007789814844727516,-0.000264972128206864,0.00033984030596911907
1772044135786952400,2.796952392578125,-0.0005640638992190361,-0.000440740812337026,-0.00045910803601145744
1772044135796938800,2.806938720703125,-0.0017801672220230103,0.0014556359965354204,-0.00024593458510935307
1772044135806924500,2.816924560546875,-0.001104523427784443,-0.0027684038504958153,0.0007359730079770088
1772044135816910600,2.82691064453125,-0.0017827916890382767,0.0006121712503954768,0.0008694003336131573
1772044135826897700,2.836897705078125,0.0017197979614138603,0.001746677909977734,0.0008923034183681011
1772044135836883500,2.846883544921875,0.0010365331545472145,0.0005796244950033724,0.00015178020112216473
1772044135846869500,2.856869384765625,-0.0008151624351739883,0.0009617881150916219,0.00026629609055817127
1772044135856855800,2.866855712890625,-0.00047680456191301346,-0.0018093071412295103,-0.0003382356371730566
1772044135866842600,2.876842529296875,-0.0006539039313793182,0.00205946690402925,0.0024176035076379776
1772044135876829000,2.886828857421875,0.0006051976233720779,0.002982931910082698,0.0012067023199051619
1772044135886814700,2.896814697265625,-0.0004550069570541382,-0.00010846543591469526,0.000870611285790801
1772044135896800800,2.90680078125,0.000452997162938118,0.0004295895341783762,-0.00028927624225616455
1772044135906787800,2.916787841796875,-0.000026372261345386505,0.0008554289815947413,0.0009440337307751179
1772044135916774000,2.92677392578125,-0.00247825775295496,0.0008233892731368542,0.0008406545966863632
1772044135926759700,2.936759765625,0.0001596035435795784,-0.0010440192418172956,0.0014308111276477575
1772044135936746000,2.94674609375,-0.00040359050035476685,0.0004143347032368183,0.0002365678083151579
1772044135946732800,2.95673291015625,-0.00045978277921676636,0.002659912221133709,0.000891971867531538
1772044135956718800,2.96671875,-0.0007097776979207993,0.00035735630081035197,-0.000844316091388464
1772044135966705000,2.976704833984375,-0.0014445437118411064,-0.0010876748710870743,-0.0004445756785571575
1772044135976690700,2.986690673828125,0.0004057595506310463,-0.0010394495911896229,0.0010938204359263182
1772044135986677800,2.996677734375,0.0011146925389766693,0.000590404961258173,-0.0007927629631012678
1772044135996663800,3.006663818359375,-0.0027534840628504753,0.0007530401344411075,0.0013494195882230997
1772044136006649900,3.01664990234375,0.0009224768728017807,-0.0002994411042891443,-0.000321713974699378
1772044136016636000,3.026635986328125,-0.0010308772325515747,0.0003870741347782314,0.00009642308577895164
1772044136026622700,3.036622802734375,0.0020626503974199295,0.0011271665571257472,0.0028112493455410004
1772044136036609000,3.046609130859375,0.0017752442508935928,0.0003178936312906444,-0.00038548652082681656
1772044136046594800,3.0565947265625,-0.003050670027732849,-0.00010767951607704163,-0.000060580670833587646
1772044136056580900,3.066580810546875,-0.001537105068564415,0.0017661468591541052,0.0011245494242757559
1772044136066568000,3.07656787109375,-0.002457759343087673,0.0007221876876428723,-0.00015749619342386723
1772044136076553700,3.0865537109375,-0.0018306970596313477,-0.0025484052021056414,-0.00008500204421579838
1772044136086539800,3.096539794921875,0.0009914543479681015,-0.0002807233831845224,0.0005440365057438612
1772044136096525800,3.10652587890625,-0.0011862171813845634,-0.0007902164361439645,0.0013298913836479187
1772044136106513000,3.116512939453125,0.0004686713218688965,0.0011328521650284529,-0.002141272649168968
1772044136116498700,3.126498779296875,0.002178037539124489,0.001776005607098341,0.0006211004219949245
1772044136126485000,3.136485107421875,0.00039318669587373734,0.0010332500096410513,-0.0021469893399626017
1772044136136470800,3.146470703125,-0.0005398988723754883,0.0007244014414027333,0.001088728429749608
1772044136146457900,3.156457763671875,0.001001538708806038,0.0007169446325860918,0.00121363066136837
1772044136156444000,3.16644384765625,0.0005439631640911102,0.0009520568419247866,0.0014421010855585337
1772044136166429700,3.1764296875,-0.00037642475217580795,-0.00017499295063316822,-0.0009579395409673452
1772044136176416000,3.186416015625,0.0011199163272976875,-0.0002105668536387384,-0.0010728903580456972
1772044136186402800,3.19640283203125,0.0006669126451015472,-0.0006023178575560451,0.0016259568510577083
1772044136196388600,3.206388671875,0.0014987420290708542,-0.0004285393806640059,-0.0012607667595148087
1772044136206375000,3.216375,-0.00046800263226032257,-0.002090085530653596,-0.0008727442473173141
1772044136216360700,3.226360595703125,0.0042148781940341,0.0029030342120677233,0.002015224890783429
1772044136226348000,3.23634814453125,-0.0005367342382669449,-0.0011425740085542202,-0.00015897979028522968
1772044136236333800,3.246333740234375,-0.00043715909123420715,0.0005093390354886651,-0.0013424360658973455
1772044136246319900,3.25631982421875,-0.002306431531906128,0.0012907104101032019,-0.0009821101557463408
1772044136256306000,3.266305908203125,0.0008396664634346962,0.0007874140865169466,-0.00006897910498082638
1772044136266292700,3.276292724609375,-0.0015172315761446953,0.0003317472292110324,-0.0014959010295569897
1772044136276278800,3.28627880859375,0.00037926528602838516,-0.0007639570394530892,0.0013102530501782894
1772044136286264800,3.296264892578125,-0.0009105037897825241,0.0006930584786459804,-0.0012242775410413742
1772044136296251000,3.3062509765625,0.0026125842705368996,0.0002745201054494828,-0.0015781312249600887
1772044136306238000,3.316238037109375,0.0011587636545300484,0.0010452389251440763,-0.00018556439317762852
1772044136316223700,3.3262236328125,-0.0008257338777184486,-0.0004279721761122346,-0.0020791245624423027
1772044136326209800,3.336209716796875,0.0008355462923645973,0.0006396890385076404,-0.000691617839038372
1772044136336195800,3.34619580078125,0.001962834969162941,0.0009036035044118762,-0.0009440896101295948
1772044136346183000,3.356182861328125,-0.0004963278770446777,-0.0010325144976377487,-0.00034780800342559814
1772044136356168700,3.366168701171875,-0.00007482524961233139,-0.0010524361860007048,0.00045261369086802006
1772044136366155000,3.376155029296875,0.0006223907694220543,0.0010131115559488535,0.0002637954894453287
1772044136376140800,3.386140869140625,-0.0016105463728308678,-0.0006214353488758206,0.00011594709940254688
1772044136386127600,3.396127685546875,-0.0013767210766673088,0.0005602092132903636,-0.0019836891442537308
1772044136396114000,3.406114013671875,-0.0024958904832601547,0.0009795136284083128,-0.0009284166153520346
1772044136406099700,3.416099609375,-0.00034592021256685257,-0.0011635321425274014,-0.0016163114923983812
1772044136416085800,3.426085693359375,-0.00035762879997491837,-0.0018680868670344353,-0.0012582498602569103
1772044136426071800,3.43607177734375,-0.0005107605829834938,0.0025034919381141663,-0.001354922540485859
1772044136436059000,3.446058837890625,-0.0006238631904125214,0.0009677920606918633,-0.0003417874686419964
1772044136446045000,3.456044921875,-0.000928262248635292,-0.0004926854744553566,-0.0017308923415839672
1772044136456030700,3.46603076171875,-0.00039330311119556427,-0.0012681797379627824,-0.0011421861127018929
1772044136466016800,3.476016845703125,0.0010930076241493225,0.001380866626277566,-0.0006148801185190678
1772044136476003800,3.48600390625,-0.0006577605381608009,-0.0010735744144767523,-0.00036180601455271244
1772044136485990000,3.495989990234375,0.0005475860089063644,-0.002566276118159294,-0.0020718215964734554
1772044136495975700,3.5059755859375,-0.00020910892635583878,-0.002108239335939288,0.0015563196502625942
1772044136505962000,3.5159619140625,0.0017046388238668442,0.0020548137836158276,-0.0013742230366915464
1772044136515948800,3.52594873046875,0.00015449244529008865,0.0009038588614203036,0.0003752827178686857
1772044136525934800,3.535934814453125,-0.00269455648958683,-0.00006579805631190538,0.00008979183621704578
1772044136535921000,3.5459208984375,-0.00248720683157444,0.0016560632502660155,-0.0005590664222836494
1772044136545906700,3.55590673828125,0.001599147915840149,0.00007760770677123219,-0.000719388946890831
1772044136555894000,3.56589404296875,-0.0029114484786987305,0.0026811878196895123,-0.00047859083861112595
1772044136565879800,3.5758798828125,-0.0007194001227617264,-0.00009755449718795717,0.00026256684213876724
1772044136575865900,3.585865966796875,-0.0004011085256934166,-0.002711810637265444,0.00022350065410137177
1772044136585852000,3.595851806640625,-0.00020962674170732498,0.0005047551821917295,0.0005654506385326385
1772044136595838700,3.605838623046875,0.0014097429811954498,-0.0017760309856384993,0.0019692829810082912
1772044136605824800,3.61582470703125,-0.00011544954031705856,-0.002247676718980074,-0.0026670140214264393
1772044136615810800,3.625810791015625,0.0029283910989761353,0.001167935086414218,-0.00016867462545633316
1772044136625796900,3.635796875,-0.001062888652086258,-0.00023608340416103601,0.0016068549593910575
1772044136635784000,3.645783935546875,-0.0012267744168639183,-0.001102175796404481,-0.000247385585680604
1772044136645769700,3.655769775390625,-0.0005743000656366348,0.0005662946496158838,-0.0003275466151535511
1772044136655755800,3.665755859375,0.0025864364579319954,-0.0009117008303292096,-0.0012142786290496588
1772044136665741800,3.675741943359375,-0.00027459766715765,0.0017099149990826845,-0.002697658957913518
1772044136675729000,3.68572900390625,0.00017957855015993118,0.0014282960910350084,-0.0012893849052488804
1772044136685714700,3.695714599609375,-0.0015381602570414543,-0.0012955849524587393,-0.00023290910758078098
1772044136695701000,3.705700927734375,-0.0011539701372385025,0.0010751746594905853,0.0010546627454459667
1772044136705686800,3.715686767578125,-0.0004940386861562729,-0.00005427200812846422,-0.0012377863749861717
1772044136715673900,3.725673828125,-0.00019471067935228348,-0.000364525243639946,0.0010969126597046852
1772044136725660000,3.735659912109375,0.0003190133720636368,0.0026301993057131767,0.0003863810561597347
1772044136735645700,3.745645751953125,-0.0007839435711503029,-0.0021501961164176464,-0.000508865574374795
1772044136745632000,3.755632080078125,0.0011337986215949059,-0.0006351236952468753,-0.000448411563411355
1772044136755617800,3.76561767578125,-0.0006769867613911629,-0.0009794861543923616,0.002940690377727151
1772044136765604600,3.7756044921875,0.0007701748982071877,0.0007789992378093302,0.0009800712577998638
1772044136775591000,3.7855908203125,0.0008851205930113792,-0.00022308004554361105,0.0002014592755585909
1772044136785576700,3.79557666015625,0.0021868739277124405,0.0014728209935128689,0.00013754330575466156
1772044136795562800,3.805562744140625,-0.0019140494987368584,0.00013707003381568938,-0.00044634309597313404
1772044136805549800,3.8155498046875,0.0031563425436615944,-0.0003673326864372939,-0.0005773708689957857
1772044136815535900,3.825535888671875,0.000546271912753582,-0.00025205168640241027,0.0027488230261951685
1772044136825522000,3.83552197265625,0.0007414817810058594,0.0006347809685394168,-0.0003846525214612484
1772044136835508000,3.845508056640625,-0.0017276983708143234,0.0005572717636823654,-0.000272128963842988
1772044136845494800,3.855494873046875,0.00037087220698595047,-0.0008273057173937559,-0.0025555233005434275
1772044136855481300,3.8654814453125,0.002130339853465557,-0.002985424129292369,-0.00019277282990515232
1772044136865467400,3.87546728515625,0.002280275337398052,-0.00042852311162278056,-2.2631138563156128e-7
1772044136875453200,3.885453125,0.0010598832741379738,0.0018533377442508936,0.0010525959078222513
1772044136885440300,3.895440185546875,-0.0006906120106577873,0.0010203010169789195,0.0007830839604139328
1772044136895426300,3.90542626953125,0.0009698746725916862,0.002102802973240614,-0.0014269014354795218
1772044136905412400,3.915412353515625,0.0002329787239432335,-0.0005598253919743001,0.0003227952402085066
1772044136915398400,3.9253984375,0.001986744813621044,-0.0010164773557335138,-0.0003485491033643484
1772044136925385200,3.93538525390625,0.0006964430212974548,0.0018919608555734158,0.0021918402053415775
1772044136935371500,3.94537158203125,0.0009847544133663177,0.001311547588557005,0.0007972391322255135
1772044136945357300,3.955357421875,-0.0008229995146393776,0.0005157950799912214,-0.0006195623427629471
1772044136955343400,3.96534326171875,0.00014889147132635117,-0.002353721298277378,0.00016742083244025707
1772044136965329400,3.975329345703125,-0.0018889596685767174,-0.0002514218504074961,0.0009884731844067574
1772044136975316200,3.985316162109375,0.000273706391453743,0.0009801110718399286,0.0015117451548576355
1772044136985302300,3.99530224609375,0.00045773014426231384,0.0014685348141938448,-0.00027124094776809216
1772044136995288300,4.005288330078125,0.00025396235287189484,0.00017994217341765761,-0.00193449342623353
1772044137005274400,4.0152744140625,0.00009949877858161926,-0.0008416464552283287,0.002257588319480419
1772044137015261400,4.025261474609375,0.0009157219901680946,0.0005084709264338017,0.00208094110712409
1772044137025247200,4.035247314453125,0.0009607290849089622,-0.0012864995514973998,0.0031584559474140406
1772044137035233300,4.0452333984375,-0.00038750842213630676,-0.0014568311162292957,-0.000863201217725873
1772044137045219300,4.05521923828125,0.0016817683354020119,-0.0006954334094189107,-0.00036172824911773205
1772044137055206400,4.065206298828125,0.0011351807042956352,0.0012158957542851567,-0.0006362255662679672
1772044137065192200,4.075192138671875,-0.0008518034592270851,-0.0007188907475210726,0.0010378374718129635
1772044137075178500,4.085178466796875,-0.0008384678512811661,-0.00006749384920112789,0.0004458450712263584
1772044137085164300,4.095164306640625,-0.0013239625841379166,0.0028180410154163837,0.0004690145142376423
1772044137095151400,4.1051513671875,-0.0015398627147078514,-0.0022242506965994835,0.00045362068340182304
1772044137105137400,4.115137451171875,-0.0010583633556962013,-0.00016216502990573645,0.0006357808597385883
1772044137115123200,4.125123291015625,0.0016364455223083496,-0.0005223458865657449,0.00030091055668890476
1772044137125109500,4.135109619140625,-0.0004631904885172844,0.0026510769966989756,0.0010905377566814423
1772044137135095300,4.14509521484375,-0.0018276218324899673,-0.000055433280067518353,0.000011768192052841187
1772044137145082000,4.15508203125,-0.0018180347979068756,-0.0010293512605130672,0.00022562011145055294
1772044137155068400,4.165068359375,-0.0011217501014471054,-0.0001671105856075883,-0.000646569300442934
1772044137165054200,4.17505419921875,-0.0019507920369505882,0.0005090660415589809,-0.0032394230365753174
1772044137175040300,4.185040283203125,0.0005948543548583984,0.0005023280973546207,-0.0004378699231892824
1772044137185027300,4.19502734375,-0.0007985113188624382,0.002177989110350609,0.0023792218416929245
1772044137195013400,4.205013427734375,0.002072693780064583,-0.0002597981656435877,0.0005381621886044741
1772044137204999400,4.21499951171875,0.0007903818041086197,0.0024515660479664803,0.0009102057665586472
1772044137214985500,4.2249853515625,-0.0002918839454650879,-0.0023103889543563128,0.00015292875468730927
1772044137224972300,4.23497216796875,-0.0011510197073221207,0.000022540101781487465,6.332993507385254e-8
1772044137234958300,4.244958251953125,-0.0004945965483784676,0.00119694450404495,0.0014878204092383385
1772044137244944400,4.2549443359375,-0.00035318266600370407,-0.0012094879057258368,0.00014931568875908852
1772044137254930200,4.26493017578125,-0.00011011585593223572,0.0011931511107832193,-0.00020914641208946705
1772044137264916500,4.27491650390625,0.000784972682595253,-0.0012550927931442857,0.001260385848581791
1772044137274903300,4.2849033203125,0.0009315172210335732,0.0019288092153146863,-0.0001545401755720377
1772044137284889300,4.294889404296875,0.0005232552066445351,-0.001332764164544642,-0.00007571070455014706
1772044137294875400,4.30487548828125,0.0033220909535884857,-0.0009425587486475706,0.0018224249361082911
1772044137304861200,4.314861083984375,0.0002511991187930107,-0.000048535584937781096,0.0005446402356028557
1772044137314848500,4.3248486328125,-0.0024916641414165497,-0.0011535488301888108,0.0017046649008989334
1772044137324834300,4.334834228515625,0.0002607125788927078,-0.001832654932513833,-0.0009624911472201347
1772044137334820400,4.3448203125,0.00018049217760562897,-0.0007384381024166942,-0.0013254215009510517
1772044137344806400,4.354806396484375,-0.0008813096210360527,-0.0014090221375226974,-0.0003701453097164631
1772044137354793200,4.364793212890625,0.002071837894618511,0.0012515836860984564,0.0027273776941001415
1772044137364779300,4.374779296875,0.000788726843893528,-0.0013963973615318537,-0.0011315424926578999
1772044137374765300,4.384765380859375,-0.002413218840956688,0.00018489756621420383,-0.00041778478771448135
1772044137384751400,4.39475146484375,0.0025519784539937973,-0.003405576106160879,0.0007998126093298197
1772044137394737200,4.404737060546875,0.001293049193918705,-0.00034166607656516135,-0.0009179911576211452
1772044137404724500,4.414724365234375,-0.0004398701712489128,0.0015092308167368174,0.001721734181046486
1772044137414710300,4.424710205078125,0.002177647314965725,0.002032861113548279,0.0017786507960408926
1772044137424696300,4.4346962890625,0.00014512334018945694,0.0005976836546324193,0.0010382919572293758
1772044137434682400,4.444682373046875,-0.0009159548208117485,-0.001140779466368258,-0.000776754692196846
1772044137444669200,4.454669189453125,0.0017096549272537231,0.0005857477663084865,-0.00031469669193029404
1772044137454655500,4.464655517578125,0.001989627256989479,0.0006203156663104892,0.0009050241205841303
1772044137464641300,4.474641357421875,0.0011443393304944038,-0.001245494931936264,-0.0009013980161398649
1772044137474627300,4.48462744140625,0.00128850806504488,0.002065689768642187,0.0014339520130306482
1772044137484614400,4.494614501953125,0.002004099078476429,-0.002473402302712202,0.0011777561157941818
1772044137494600200,4.50460009765625,0.0005795918405056,0.0007064603851176798,0.0006166321691125631
1772044137504586200,4.514586181640625,-0.000010297633707523346,-0.00033803138649091125,-0.001081931870430708
1772044137514572300,4.524572265625,0.0016750162467360497,-0.0003977642336394638,-0.00011289818212389946
1772044137524558300,4.534558349609375,0.0003050863742828369,-0.0009503701003268361,0.0005180046427994967
1772044137534545400,4.54454541015625,-0.00039767753332853317,-0.00023177691036835313,0.002026098547503352
1772044137544531500,4.554531494140625,-0.00045626796782016754,-0.0016762753948569298,0.0011706913355737925
1772044137554517200,4.564517333984375,0.0008942568674683571,-0.0007360696326941252,-0.002835811348631978
1772044137564503600,4.574503662109375,-0.00034038443118333817,0.0007233425276353955,0.0025006309151649475
1772044137574490400,4.584490478515625,-0.0007320055738091469,-0.00035538917290978134,0.0011470336467027664
1772044137584476200,4.59447607421875,-0.000973820686340332,0.002774890512228012,0.00021892203949391842
1772044137594462500,4.60446240234375,0.001037808135151863,-0.001957597443833947,0.0023601267021149397
1772044137604448300,4.6144482421875,-0.0019044522196054459,0.00032846000976860523,0.0003654190804809332
1772044137614435300,4.624435302734375,0.00044626835733652115,0.000041315361158922315,-0.00047016912139952183
1772044137624421400,4.63442138671875,-0.00033084210008382797,0.0017388141714036465,0.001872081309556961
1772044137634407200,4.6444072265625,-0.0018975669518113136,-0.0011020069941878319,-0.0021065736655145884
1772044137644393500,4.6543935546875,0.00012164190411567688,0.000715600443072617,-0.000873796408995986
1772044137654379300,4.664379150390625,0.000027953647077083588,0.0037459125742316246,0.002060906495898962
1772044137664366300,4.674366455078125,-0.002467161975800991,-0.000122328958241269,0.0003671359736472368
1772044137674352400,4.684352294921875,-0.0017710858955979347,-0.000664843712002039,0.0011756911408156157
1772044137684338400,4.69433837890625,-0.0005726628005504608,-0.0009633841109462082,-0.00014630192890763283
1772044137694324200,4.70432421875,0.0005818801000714302,-0.00046894251136109233,0.0001666469033807516
1772044137704311300,4.714311279296875,-0.0003070831298828125,-0.0011376622132956982,0.005130246747285128
1772044137714297300,4.72429736328125,0.0004963129758834839,-0.001768162241205573,0.0008079542312771082
1772044137724283100,4.734283203125,-0.0008986508473753929,0.0017203124007210135,0.0009610860142856836
1772044137734269400,4.74426953125,-0.0008833678439259529,0.0005531333736144006,0.0009732446633279324
1772044137744255200,4.754255126953125,-0.00033209286630153656,0.0015249208081513643,0.0024816589429974556
1772044137754242300,4.7642421875,0.00017651543021202087,0.0014866155106574297,0.0008993525989353657
1772044137764228400,4.774228271484375,-0.0007705045863986015,-0.001508375396952033,-0.0021449069026857615
1772044137774214100,4.784214111328125,0.0009427964687347412,-0.0024708404671400785,0.00020263460464775562
1772044137784200400,4.794200439453125,0.0018360204994678497,0.0005995180108584464,0.0012231580913066864
1772044137794187300,4.804187255859375,-0.001925264485180378,0.002670880174264312,0.00010615936480462551
1772044137804173300,4.81417333984375,-0.00038462597876787186,0.0003648489946499467,0.0005993768572807312
1772044137814159400,4.824159423828125,-0.00026290491223335266,0.0012782578123733401,0.0013657452072948217
1772044137824145400,4.8341455078125,-0.0000842064619064331,-0.0017124720616266131,0.0020853313617408276
1772044137834131200,4.844131103515625,-0.0006924942135810852,-0.0013138388749212027,0.00009368802420794964
1772044137844118300,4.8541181640625,-0.0003787735477089882,-0.0020392839796841145,-0.001351076876744628
1772044137854104000,4.86410400390625,0.0002685217186808586,0.001535194693133235,-0.0013914566952735186
1772044137864090000,4.874090087890625,0.0014086216688156128,-0.0007311553927138448,-0.0010678826365619898
1772044137874076200,4.884076171875,-0.0012562023475766182,0.001772576360963285,0.0023748809471726418
1772044137884063000,4.89406298828125,-0.001031697727739811,0.0008436656789854169,-0.001949826255440712
1772044137894049300,4.90404931640625,-0.00008166301995515823,0.0017869292059913278,-0.0033869545441120863
1772044137904035000,4.91403515625,-0.000040650367736816406,0.0006199320778250694,-0.0004044806119054556
1772044137914021000,4.924021240234375,0.00099283829331398,0.0038692874368280172,0.0003562548663467169
1772044137924007200,4.934007080078125,0.00041679665446281433,-0.0003470292140264064,0.0012097980361431837
1772044137933994000,4.943993896484375,-0.001224493607878685,-0.00007358400034718215,0.002643017563968897
1772044137943980300,4.953980224609375,0.0000940375030040741,-0.002784149255603552,0.00011621043086051941
1772044137953966000,4.963966064453125,-0.0007999055087566376,-0.002340468345209956,0.0016368129290640354
1772044137963952000,4.9739521484375,-0.0014012474566698074,0.0005437351646833122,-0.0008119635749608278
1772044137973939200,4.983939208984375,0.0006213504821062088,0.0008462495170533657,0.0011296879965811968
1772044137983925000,4.993925048828125,-0.001074284315109253,-0.0021229088306427,-0.0030855631921440363
1772044137993911000,5.0039111328125,-0.002127452753484249,-0.0007220602128654718,0.00023580039851367474
1772044138003897000,5.01389697265625,0.00008084066212177277,-0.0010091488948091865,0.0010672393254935741
1772044138013884200,5.02388427734375,0.0026280898600816727,0.0010678990511223674,-0.00025750184431672096
1772044138023870200,5.0338701171875,0.0012429794296622276,0.001409050077199936,0.001160897547379136
1772044138033856300,5.043856201171875,0.000591471791267395,0.0015122132608667016,0.0015054603572934866
1772044138043842000,5.053842041015625,0.003176867961883545,0.000609135371632874,-0.00021760468371212482
1772044138053828000,5.063828125,0.0003394549712538719,-0.0009771132608875632,0.0010279128327965736
1772044138063815200,5.073815185546875,0.0010166969150304794,0.00146021181717515,-0.001387308118864894
1772044138073801000,5.083801025390625,-0.0029221931472420692,0.0015930127119645476,-0.0006745443679392338
1772044138083787300,5.093787353515625,0.000269073061645031,0.0026311129331588745,0.0008650291711091995
1772044138093773000,5.10377294921875,-0.00044304877519607544,0.0007645993027836084,0.0005976071115583181
1772044138103760100,5.113760009765625,-0.0006262743845582008,0.0007731214864179492,0.0012159931939095259
1772044138113746200,5.12374609375,-0.00014024600386619568,-0.0029846441466361284,0.0011983211152255535
1772044138123732000,5.13373193359375,0.0011367397382855415,0.0017227595672011375,0.0004089600406587124
1772044138133718000,5.143718017578125,-0.00023187603801488876,-0.0012899748980998993,0.002717329654842615
1772044138143704000,5.1537041015625,-0.0003882031887769699,0.000493011437356472,0.00038892775774002075
1772044138153691100,5.163691162109375,0.0008399337530136108,-0.0015544992638751864,0.0016243471764028072
1772044138163677200,5.17367724609375,-0.001872495748102665,0.0014759117038920522,0.0010232715867459774
1772044138173663200,5.183663330078125,0.0003214161843061447,-0.00048498925752937794,0.00021631899289786816
1772044138183649000,5.19364892578125,0.00046922173351049423,0.0014924078714102507,0.0008341723587363958
1772044138193636000,5.203635986328125,0.0005828244611620903,-0.0003496281860861927,0.0013667023740708828
1772044138203622100,5.2136220703125,-0.0010137399658560753,0.000832016346976161,-0.000054892851039767265
1772044138213608000,5.22360791015625,0.0011765547096729279,-0.0008387207635678351,0.0017465668497607112
1772044138223594200,5.23359423828125,-0.00009217578917741776,0.0010065834503620863,0.0016602803952991962
1772044138233580000,5.243580078125,-0.0019122781231999397,0.001563618192449212,0.0012911113444715738
1772044138243567000,5.253567138671875,-0.0016369074583053589,0.001170801930129528,0.0012514302507042885
1772044138253553200,5.26355322265625,0.0018768338486552238,-0.0023264987394213676,0.0018488721689209342
1772044138263539200,5.273539306640625,0.0008635018020868301,-0.0015187619719654322,0.00050397589802742
1772044138273525200,5.283525146484375,-0.0004175584763288498,0.0006619174964725971,-0.0008349050767719746
1772044138283511000,5.293510986328125,-0.0012668408453464508,0.0004709688655566424,-0.0026916605420410633
1772044138293498000,5.303498046875,-0.000523250550031662,0.0007848747773095965,0.0017072786577045918
1772044138303484200,5.313484130859375,0.002052558586001396,0.0006154977600090206,0.0007530681323260069
1772044138313470200,5.32347021484375,-0.0009399596601724625,0.0010279292473569512,0.000670161098241806
1772044138323456000,5.3334560546875,-0.0014664661139249802,0.0004830464895348996,-0.00032506207935512066
1772044138333443000,5.343443115234375,-0.0002489835023880005,0.00032677644048817456,-0.00047825160436332226
1772044138343429000,5.35342919921875,-0.00023300480097532272,-0.0003960054600611329,0.0004338810686022043
1772044138353415000,5.363414794921875,0.000859077088534832,-0.0024439499247819185,-0.0002803278621286154
1772044138363401200,5.373401123046875,-0.0013095354661345482,-0.001198389334604144,0.000007559778168797493
1772044138373387000,5.383386962890625,0.0008169868960976601,0.002132404362782836,0.0015719172079116106
1772044138383374300,5.393374267578125,-0.0016293926164507866,-0.0020793848671019077,0.0014076000079512596
1772044138393360100,5.403360107421875,-0.0017456142231822014,-0.002166267018765211,-0.00038818130269646645
1772044138403346200,5.41334619140625,-0.002398088574409485,0.0004146022838540375,-0.0011341329663991928
1772044138413332200,5.423332275390625,-0.00033872853964567184,0.0004110412555746734,-0.000292719341814518
1772044138423319000,5.433319091796875,0.002693546935915947,0.0012917486019432545,-0.0014482648111879826
1772044138433305000,5.44330517578125,0.002173100598156452,0.0015729648293927312,0.0017734576249495149
1772044138443291100,5.453291015625,-0.0008399998769164085,-0.00016208464512601495,-0.00003562774509191513
1772044138453277200,5.463277099609375,-0.001119028776884079,-0.001362494076602161,0.00026875128969550133
1772044138463263000,5.473262939453125,0.0007877945899963379,-0.00031427390058524907,-0.00006387755274772644
1772044138473250000,5.48325,-0.0012927530333399773,-0.0012491469969972968,-0.0010822480544447899
1772044138483236000,5.493236083984375,0.0003869021311402321,0.0022087013348937035,0.00013321847654879093
1772044138493222100,5.50322216796875,0.0013884129002690315,0.0006854288512840867,0.0003439809661358595
1772044138503208200,5.513208251953125,-0.0001708678901195526,-0.0006112642586231232,-0.00007147225551307201
1772044138513194000,5.523194091796875,-0.001608181744813919,0.00039141305023804307,0.00039092451333999634
1772044138523181300,5.533181396484375,-0.0007290719076991081,-0.0015777281951159239,0.00061622797511518
1772044138533167000,5.5431669921875,0.0005674175918102264,-0.0006212609587237239,0.0011702077463269234
1772044138543153200,5.553153076171875,-0.0009865360334515572,-0.0014598903944715858,0.0008223990444093943
1772044138553139200,5.56313916015625,0.0018526725471019745,0.0010816780850291252,0.0008433433249592781
1772044138563126000,5.5731259765625,-0.002421700395643711,0.0008158945711329579,0.0018116687424480915
1772044138573112000,5.583112060546875,0.0006320010870695114,-0.0009735797066241503,0.0005718490574508905
1772044138583098000,5.59309814453125,0.002362789586186409,-0.0023339225444942713,0.0009367021266371012
1772044138593084200,5.603084228515625,0.002935183234512806,0.00010050892160506919,-0.0003119476605206728
1772044138603070000,5.613070068359375,-0.0008395807817578316,0.0005713558057323098,-0.00008504628203809261
1772044138613057000,5.62305712890625,0.0003142915666103363,-0.0004140661039855331,-0.0010567354038357735
1772044138623043000,5.63304296875,0.0022046035155653954,-0.0040327697061002254,-0.0019081481732428074
1772044138633029000,5.643029052734375,-0.0006596427410840988,0.001165428664535284,0.0007489474955946207
1772044138643015200,5.65301513671875,0.0011667534708976746,-0.001667642267420888,-0.0007149919401854277
1772044138653001000,5.6630009765625,-0.0010503940284252167,-0.0009899841388687491,-0.0021565190982073545
1772044138662988300,5.67298828125,0.0007618870586156845,0.000025479195755906403,-0.0009029691573232412
1772044138672974000,5.68297412109375,0.00020104926079511642,-0.00025626219576224685,0.00043726107105612755
1772044138682960100,5.692960205078125,0.0013693785294890404,-0.0008365650428459048,-0.0010650281328707933
1772044138692946200,5.7029462890625,0.003025844693183899,-0.0009584367508068681,-0.000039609381929039955
1772044138702933000,5.71293310546875,-0.0008482560515403748,0.000752910622395575,0.001947641372680664
1772044138712920000,5.722920166015625,0.0001406557857990265,0.0003126020892523229,0.00047695799730718136
1772044138722906000,5.732906005859375,-0.0003664102405309677,0.0014052970800548792,-0.00020827329717576504
1772044138732892200,5.74289208984375,-0.0000062175095081329346,0.0017220324371010065,0.0006827176548540592
1772044138742878200,5.752878173828125,0.0002912571653723717,-0.0018282276578247547,0.0023439975921064615
1772044138752864000,5.762864013671875,0.0017155949026346207,-0.001350195612758398,-0.0028559931088238955
1772044138762851300,5.772851318359375,0.0010705776512622833,0.0012700885999947786,0.00048680673353374004
1772044138772837000,5.782837158203125,0.0012239683419466019,-0.0009970697574317455,-0.0010212981142103672
1772044138782823200,5.7928232421875,-0.00017445720732212067,-0.0007115789921954274,-0.0024655302986502647
1772044138792809000,5.80280908203125,0.0005046455189585686,-0.0017931342590600252,-0.0020467909052968025
1772044138802796000,5.812796142578125,-0.0018253540620207787,0.0016564582474529743,-0.00002917996607720852
1772044138812782000,5.822781982421875,-0.00037066731601953506,0.0010215144138783216,0.00040032947435975075
1772044138822768000,5.83276806640625,-0.00020768214017152786,0.0017413669265806675,-0.0013962388038635254
1772044138832754200,5.842754150390625,-0.0021451832726597786,0.0008739791228435934,-0.001099238870665431
1772044138842740000,5.852739990234375,-0.00004554633051156998,-0.0003864949685521424,0.000056839315220713615
1772044138852727600,5.8627275390625,0.0007112985476851463,-0.00021219634800218046,-0.0017026078421622515
1772044138862713600,5.872713623046875,-0.00048312917351722717,0.0005587887717410922,-0.0009342862758785486
1772044138872699400,5.882699462890625,-0.00042635854333639145,0.0015448229387402534,0.0006115881260484457
1772044138882685700,5.892685791015625,-0.004037604667246342,0.00034560158383101225,0.0009612611029297113
1772044138892671500,5.90267138671875,0.0000741761177778244,0.001528559485450387,0.0001168171875178814
1772044138902658600,5.912658447265625,-0.0012917593121528625,-0.000993453897535801,0.0005346671678125858
1772044138912644600,5.92264453125,0.0011375173926353455,-0.0013422351330518723,0.002588312141597271
1772044138922630700,5.932630615234375,-0.0007730340585112572,-0.0007853681454434991,-0.0016778057906776667
1772044138932616400,5.942616455078125,0.0007428107783198357,0.0009115894790738821,0.0012376708909869194
1772044138942603500,5.952603515625,0.0000650361180305481,-0.00003170220588799566,-0.000028129667043685913
1772044138952589600,5.962589599609375,-0.00010157842189073563,-0.000777351320721209,0.001588282990269363
1772044138962575600,5.97257568359375,0.0017413292080163956,0.0011483804555609822,-0.00009669899009168148
1772044138972561700,5.982561767578125,0.0029956651851534843,-0.0017447638092562556,-0.0008857285138219595
1772044138982547500,5.99254736328125,0.0003844359889626503,-0.0020480977836996317,-0.001635408727452159
1772044138992534500,6.002534423828125,-0.0008378848433494568,0.002561343600973487,0.0023535138461738825
1772044139002520600,6.0125205078125,-0.001665063202381134,-0.000939115125220269,-0.0015682568773627281
1772044139012506400,6.02250634765625,-0.0002946928143501282,-0.0020074467174708843,0.00013844389468431473
1772044139022492700,6.03249267578125,-0.00154105294495821,-0.0010724107269197702,-0.0015486686024814844
1772044139032478500,6.042478515625,0.0022561298683285713,0.0015287064015865326,-0.0007500103674829006
1772044139042465800,6.0524658203125,-0.002432364970445633,0.0003284196136519313,0.0016218009404838085
1772044139052451600,6.06245166015625,-0.00022576842457056046,-0.0008581815054640174,-0.0007687967736274004
1772044139062437600,6.072437744140625,0.001263204962015152,-0.0024483550805598497,0.001586236758157611
1772044139072423700,6.082423583984375,-0.0014843251556158066,0.0007518938509747386,-0.000004846835508942604
1772044139082409700,6.09240966796875,0.0011761728674173355,-0.000907255569472909,0.0019592344760894775
1772044139092396500,6.102396484375,-0.0007683737203478813,-0.000544500770047307,0.00014710822142660618
1772044139102382600,6.112382568359375,0.00024336110800504684,-0.002260375302284956,-0.0005626240745186806
1772044139112368600,6.12236865234375,-0.0016394639387726784,-0.00027794038760475814,0.0023518127854913473
1772044139122354400,6.1323544921875,-0.000606955960392952,-0.002402876503765583,0.0038314650300890207
1772044139132341500,6.142341552734375,0.0004166075959801674,-0.0012499052099883556,-0.00045131612569093704
1772044139142327600,6.15232763671875,-0.000763971358537674,-0.00014682390610687435,-0.0002776780165731907
1772044139152313300,6.162313232421875,-0.0010865209624171257,-0.00137821095995605,0.0011731046251952648
1772044139162299600,6.172299560546875,0.00009112898260354996,-0.0024128491058945656,0.00022288854233920574
1772044139172285400,6.182285400390625,0.0016299281269311905,0.0011889892630279064,0.0016282424330711365
1772044139182272800,6.192272705078125,0.000535634346306324,0.0003631430445238948,0.0007635140791535378
1772044139192258600,6.202258544921875,-0.00019918661564588547,0.0004131884779781103,-0.0003002735320478678
1772044139202244600,6.21224462890625,-0.0018538087606430054,0.002657434204593301,0.0008616636041551828
1772044139212230700,6.222230712890625,0.0022138310596346855,-0.0011822429951280355,0.00018704752437770367
1772044139222216700,6.232216796875,-0.0013263095170259476,0.00027503882301971316,0.001172683434560895
1772044139232203500,6.24220361328125,0.0023581888526678085,-0.00031271358602680266,0.0006861984729766846
1772044139242189600,6.252189453125,0.0011493796482682228,-0.0021084831096231937,0.0015762269031256437
1772044139252175600,6.262175537109375,0.001528448425233364,0.0006711449241265655,0.0005988085176795721
1772044139262161400,6.272161376953125,0.0019279224798083305,-0.001145130954682827,0.0018366457661613822
1772044139272147700,6.282147705078125,-0.0010501127690076828,-0.000020632942323572934,0.002508374396711588
1772044139282134500,6.292134521484375,-0.0011044414713978767,-0.000967919360846281,0.0029363445937633514
1772044139292120600,6.30212060546875,-0.0005941065028309822,0.0011931369081139565,0.0017374649178236723
1772044139302106600,6.312106689453125,0.0017196480184793472,0.00216119596734643,0.002435212954878807
1772044139312092400,6.322092529296875,0.0016544777899980545,-0.0008827006677165627,0.0004288400523364544
1772044139322079700,6.332079833984375,0.00039320439100265503,-0.00033542103483341634,-0.0009078006260097027
1772044139332065500,6.3420654296875,-0.0007627289742231369,-0.0011557055404409766,-0.0012320505920797586
1772044139342051600,6.352051513671875,0.00002237129956483841,0.001199594116769731,0.0007496073376387358
1772044139352037600,6.36203759765625,0.0021603619679808617,0.00037744882865808904,0.0031722714193165302
1772044139362023700,6.372023681640625,-0.0017211958765983582,0.00031060350011102855,0.0005740916822105646
1772044139372010500,6.382010498046875,0.0008471878245472908,-0.0005211576353758574,0.0020053558982908726
1772044139381996500,6.39199658203125,0.0010615726932883263,0.00019709693151526153,-0.0017654136754572392
1772044139391982600,6.401982666015625,-0.0005204705521464348,-0.0024078853894025087,0.001412128796800971
1772044139401968400,6.411968505859375,-0.0004906430840492249,-0.0021149376407265663,-0.0003415627870708704
1772044139411954700,6.42195458984375,0.0004337867721915245,0.0007414704887196422,-0.00015462166629731655
1772044139421941500,6.43194140625,0.0012974496930837631,0.001181158353574574,0.0005436593201011419
1772044139431927800,6.441927734375,-0.0012349290773272514,0.0005816298653371632,0.00048726238310337067
1772044139441913600,6.45191357421875,-0.0006423750892281532,0.0004932129522785544,0.0001908524427562952
1772044139451899600,6.461899658203125,-0.001279451884329319,-0.00023325622896663845,0.0007803973276168108
1772044139461885700,6.4718857421875,-0.0009691929444670677,-0.0015920009464025497,-0.0009208300616592169
1772044139471872500,6.48187255859375,0.00016854889690876007,-0.0004981280653737485,0.0012640163768082857
1772044139481858600,6.491858642578125,-0.0007369257509708405,0.001363155199214816,-0.00014719273895025253
1772044139491844600,6.5018447265625,-0.0009622946381568909,0.0003636048932094127,0.001944992458447814
1772044139501830700,6.51183056640625,0.0008886028081178665,-0.0021861055865883827,-0.00012561515904963017
1772044139511816400,6.52181640625,0.00007485318928956985,-0.00026203584275208414,-0.0014423357788473368
1772044139521803500,6.531803466796875,0.00005061831325292587,-0.0017022733809426427,-0.0002503048162907362
1772044139531789600,6.54178955078125,0.00008957087993621826,-0.00022081524366512895,0.0009344180580228567
1772044139541775400,6.551775390625,0.0007471051067113876,0.00030782222165726125,0.0015781042166054249
1772044139551761700,6.56176171875,-0.0029588257893919945,-0.00023296776635106653,0.0009783913847059011
1772044139561748500,6.57174853515625,-0.0010698456317186356,0.00131912250071764,-0.001554008573293686
1772044139571734800,6.58173486328125,-0.0013404181227087975,-0.00025100650964304805,-0.001176952850073576
1772044139581720600,6.591720458984375,-0.0017193853855133057,-0.0007282449514605105,-0.00008345884270966053
1772044139591706600,6.60170654296875,0.000005294568836688995,-0.0002441324177198112,-0.00006256788037717342
1772044139601692700,6.611692626953125,0.0013320818543434143,-0.0007051255670376122,-0.0006194349844008684
1772044139611679500,6.621679443359375,0.0010779974982142448,-0.0013728903140872717,0.0009430444333702326
1772044139621665500,6.63166552734375,0.0009078206494450569,0.00035763182677328587,0.0005949691403657198
1772044139631651600,6.641651611328125,0.001827954314649105,0.00039260415360331535,0.0009502805769443512
1772044139641637600,6.6516376953125,-0.0031281886622309685,-0.000414866313803941,0.00043655699118971825
1772044139651623400,6.66162353515625,-0.00003724917769432068,0.0005980775458738208,-0.0015896586701273918
1772044139661610500,6.671610595703125,-0.0004987744614481926,0.0023589597549289465,0.0006231621373444796
1772044139671596500,6.681596435546875,-0.0024153823032975197,0.0018020885763689876,-0.0004021951463073492
1772044139681582600,6.69158251953125,0.00007707066833972931,0.00009846439934335649,-0.00041045108810067177
1772044139691568600,6.701568603515625,0.0033158259466290474,-0.0006111939437687397,-0.0006931694224476814
1772044139701554400,6.711554443359375,0.0013799751177430153,0.0022040335461497307,-0.0010188738815486431
1772044139711541800,6.721541748046875,-0.0005633151158690453,0.00026697537396103144,0.00024049333296716213
1772044139721527600,6.731527587890625,-0.0016123345121741295,-0.00033623058698140085,-0.0020865765400230885
1772044139731513600,6.741513671875,-0.00030830688774585724,-0.0003763494314625859,-0.001438554609194398
1772044139741499600,6.751499755859375,0.00013244617730379105,-0.001063444884493947,0.001519418554380536
1772044139751485700,6.761485595703125,-0.001451338641345501,0.00005398454959504306,-0.000976859824731946
1772044139761472500,6.771472412109375,0.000295163132250309,0.0005980683490633965,-0.00027032289654016495
1772044139771458600,6.78145849609375,0.0007633259519934654,0.0015829869080334902,-0.001260246615856886
1772044139781444600,6.791444580078125,-0.0006689215078949928,0.0006245152908377349,-0.0005979184061288834
1772044139791430400,6.801430419921875,0.0000742422416806221,-0.001119885011576116,0.00031420239247381687
1772044139801416700,6.811416748046875,-0.0009316336363554001,-0.000384852581191808,-0.0010762338060885668
1772044139811403500,6.821403564453125,0.00036141835153102875,0.0004596149374265224,0.0012513988185673952
1772044139821389600,6.8313896484375,0.0004314593970775604,0.00028784104506485164,0.00013047433458268642
1772044139831375600,6.841375732421875,-0.001375722698867321,-0.0018828291213139892,-0.0009429631754755974
1772044139841361400,6.851361328125,0.004495481960475445,-0.0011376765323802829,-0.0011134054511785507
1772044139851347700,6.86134765625,0.000615186057984829,-0.0018101533642038703,-0.0011551615316420794
1772044139861334500,6.87133447265625,-0.0010913675650954247,-0.001877531292848289,-0.0011873857583850622
1772044139871320600,6.881320556640625,0.0006396714597940445,-0.003139146603643894,0.0000680331140756607
1772044139881306600,6.891306640625,0.0006428677588701248,-0.002364965621381998,-0.0010907084215432405
1772044139891292700,6.901292724609375,0.0017337147146463394,-0.0010927417315542698,0.0012795589864253998
1772044139901278500,6.911278564453125,0.0004575280472636223,-0.0004415988805703819,0.001324832672253251
1772044139911265500,6.921265625,0.00034577585756778717,-0.0008527982281520963,-0.00011793384328484535
1772044139921251600,6.93125146484375,0.002469380386173725,-0.0021425671875476837,-0.0021083804313093424
1772044139931237400,6.9412373046875,-0.00045788101851940155,0.0004936727927997708,-0.0009164139628410339
1772044139941223700,6.9512236328125,0.0001381346955895424,-0.0007098097121343017,0.0012689759023487568
1772044139951209500,6.96120947265625,-0.001801121048629284,-0.0005956728709861636,0.00023399991914629936
1772044139961196500,6.971196533203125,0.0008247550576925278,-0.0004518621717579663,0.0003032421227544546
1772044139971182600,6.9811826171875,-0.0006800545379519463,0.0007086446858011186,0.0012343444395810366
1772044139981168400,6.99116845703125,0.00006962474435567856,0.0002686904917936772,0.00032567395828664303
1772044139991154700,7.00115478515625,0.0019155023619532585,0.0008759672055020928,-0.0010005435906350613
1772044140001140500,7.011140380859375,-0.0017085270956158638,0.0012908877106383443,0.004282901994884014
1772044140011127600,7.02112744140625,-0.0005788858979940414,-0.0002003394765779376,-0.0007329790387302637
1772044140021113600,7.031113525390625,0.0012818649411201477,-0.0006099336314946413,0.0016255166847258806
1772044140031099600,7.041099609375,0.0008319728076457977,-0.000670512265060097,-0.002244429662823677
1772044140041085400,7.05108544921875,-0.0010199891403317451,-0.00001430939300917089,0.002031541895121336
1772044140051072500,7.061072509765625,-0.00013022217899560928,0.0010589489247649908,-0.0017645547632128
1772044140061058600,7.07105859375,-0.0007075956091284752,-0.00007475880556739867,-0.0005131356883794069
1772044140071044600,7.081044677734375,-0.001708032563328743,0.0007024141377769411,-0.001014971872791648
1772044140081030700,7.09103076171875,-0.00029362738132476807,0.00019375038391444832,0.000027655623853206635
1772044140091016400,7.101016357421875,-0.0013731699436903,0.0013831407995894551,-0.0013251390773802996
1772044140101002800,7.111002685546875,0.0007616197690367699,0.0011583699379116297,-0.0010636167135089636
1772044140110989600,7.120989501953125,0.0029545696452260017,0.0008858431247062981,0.0012608745601028204
1772044140120975600,7.1309755859375,0.0003729015588760376,0.002557509345933795,0.000834236154332757
1772044140130961700,7.140961669921875,0.0013152854517102242,0.0005595918046310544,0.0007270723581314087
1772044140140947500,7.150947509765625,0.0003075450658798218,0.0007665193406865001,0.0023278985172510147
1772044140150933500,7.16093359375,0.000829027034342289,0.001250257482752204,-0.00012544519267976284
1772044140160920600,7.170920654296875,-0.0005390383303165436,0.0016683735884726048,0.0013712511863559484
1772044140170906600,7.18090673828125,-0.0013737771660089493,-0.002036689082160592,0.0016271494096145034
1772044140180892400,7.190892333984375,0.0008643427863717079,0.0015612415736541152,-0.0009044515900313854
1772044140190878700,7.200878662109375,-0.000527646392583847,-0.0023017115890979767,-0.0006183856166899204
1772044140200864500,7.210864501953125,0.001302477903664112,0.0012232483131811023,-0.0008543417789041996
1772044140210851600,7.2208515625,-0.00483077485114336,0.0018115680431947112,0.001846728497184813
1772044140220837600,7.230837646484375,-0.00033162999898195267,-0.001220440841279924,-0.00042015407234430313
1772044140230823400,7.240823486328125,0.0013295076787471771,0.002521911170333624,0.001814376562833786
1772044140240809700,7.250809814453125,-0.002876955084502697,-0.0005218156147748232,-0.0005273409187793732
1772044140250795500,7.26079541015625,-0.0015916209667921066,-0.0007206827867776155,-0.000848663505166769
1772044140260782600,7.270782470703125,0.00037325918674468994,0.00035816372837871313,-0.0002561102155596018
1772044140270768600,7.2807685546875,0.0008029770106077194,0.0005085575394332409,-0.0009823921136558056
1772044140280754700,7.290754638671875,-0.002202932722866535,-0.0003178213373757899,0.0023923655971884727
1772044140290740500,7.300740478515625,0.002425113692879677,-0.0012390406336635351,0.000616337638348341
1772044140300726500,7.3107265625,0.0014674412086606026,-0.00038949219742789865,-0.0008595860563218594
1772044140310713600,7.320713623046875,0.001838558353483677,0.0016948592383414507,0.0013521630316972733
1772044140320699600,7.33069970703125,0.00021695904433727264,-0.0007757552084513009,0.0011569533962756395
1772044140330685700,7.340685791015625,-0.0013602320104837418,-0.00002587467315606773,0.0010762340389192104
1772044140340671500,7.35067138671875,0.005023364908993244,-0.00163176073692739,0.0014741101767867804
1772044140350657500,7.360657470703125,0.003301086835563183,-0.00098789285402745,-0.001066775992512703
1772044140360644600,7.37064453125,0.000011283904314041138,0.0008749882690608501,0.0036022779531776905
1772044140370630400,7.38063037109375,-0.00048590730875730515,-0.0003030191583093256,0.0008411516901105642
1772044140380616700,7.39061669921875,0.001946091651916504,0.0005068480968475342,-0.0007583426777273417
1772044140390602500,7.4006025390625,-0.001606406643986702,0.0006243030074983835,-0.00014701858162879944
1772044140400588500,7.410588623046875,0.0032874178141355515,-0.0014630826190114021,-0.0011925753206014633
1772044140410575600,7.42057568359375,-0.0010262029245495796,-0.0005736054154112935,0.002038290724158287
1772044140420561700,7.430561767578125,-0.0006483001634478569,-0.001500119105912745,0.0008907346054911613
1772044140430547500,7.44054736328125,-0.0005544275045394897,0.0015110820531845093,0.0029654684476554394
1772044140440533800,7.45053369140625,0.0008064480498433113,-0.0015118720475584269,0.0000775365624576807
1772044140450519600,7.46051953125,-0.0004776930436491966,-0.0014697260921820998,-0.001212101662531495
1772044140460506600,7.470506591796875,0.0023641660809516907,-0.0004539964720606804,-0.000005423557013273239
1772044140470492700,7.48049267578125,-0.0003541950136423111,0.0005768921691924334,0.0001321581657975912
1772044140480478500,7.490478515625,0.001901768147945404,-0.0006665377295576036,-0.0002979421988129616
1772044140490464800,7.50046484375,-0.00010265223681926727,0.0018600281327962875,0.0012726201675832272
1772044140500450600,7.510450439453125,0.00009815022349357605,-0.001452411524951458,0.001656381762586534
1772044140510437400,7.520437255859375,0.0009875716641545296,0.0005583325400948524,0.0006854792591184378
1772044140520423700,7.530423583984375,0.0014317873865365982,-0.001181244384497404,0.0009885469917207956
1772044140530409500,7.540409423828125,0.0008295727893710136,0.0019906931556761265,0.003651061560958624
1772044140540395500,7.5503955078125,-0.0006767110899090767,0.0015526032075285912,0.0011506194714456797
1772044140550381600,7.560381591796875,-0.00020239781588315964,0.0011924449354410172,0.0038012806326150894
1772044140560368600,7.57036865234375,0.0015949700027704239,-0.0008946744492277503,0.0008667432703077793
1772044140570354400,7.5803544921875,0.0011081760749220848,-0.0014561368152499199,0.003705439157783985
1772044140580340700,7.5903408203125,0.0005971156060695648,-0.0021419008262455463,0.0015442839358001947
1772044140590326500,7.600326416015625,0.0020381780341267586,-0.001703696558251977,-0.0011979015544056892
1772044140600312600,7.6103125,0.00010339170694351196,0.00034906785003840923,0.0012167866807430983
1772044140610299600,7.620299560546875,0.0007749861106276512,-0.0025208047591149807,0.0018215066520497203
1772044140620285400,7.630285400390625,-0.00024607032537460327,0.0007490243879146874,0.00048353453166782856
1772044140630271700,7.640271728515625,0.0029275482520461082,0.00023420387879014015,0.0003281866665929556
1772044140640257500,7.650257568359375,0.0018806606531143188,-0.000025720626581460238,0.00182861159555614
1772044140650243600,7.66024365234375,-0.00034683384001255035,0.0005851505557075143,0.0010930427815765142
1772044140660230700,7.670230712890625,0.0008803512901067734,0.000530289369635284,-0.00021936302073299885
1772044140670216400,7.680216552734375,0.00023738574236631393,-0.0009352883789688349,-0.00014609494246542454
1772044140680202500,7.690202392578125,0.00022620055824518204,0.00015208027616608888,0.0012600540649145842
1772044140690188500,7.7001884765625,-0.00032292213290929794,-0.0007118610665202141,0.0005964438896626234
1772044140700174600,7.710174560546875,-0.0004691295325756073,-0.0029025771655142307,0.0020183054730296135
1772044140710161700,7.72016162109375,-0.0007114531472325325,-0.0010999493533745408,0.002725977450609207
1772044140720147700,7.730147705078125,-0.0000954633578658104,-0.0009761123219504952,0.00006840890273451805
1772044140730133500,7.740133544921875,-0.0008048107847571373,0.002230552490800619,0.0010663752909749746
1772044140740119800,7.750119873046875,0.0004069274291396141,0.002687018131837249,0.0009521257597953081
1772044140750105600,7.760105712890625,0.00012421980500221252,0.0001124292757594958,-0.0002327116671949625
1772044140760092400,7.770092529296875,-0.0004342449828982353,0.0007052489090710878,-0.000011935597285628319
1772044140770078700,7.78007861328125,-0.0016539748758077621,0.0015926118940114975,0.0007430787663906813
1772044140780064500,7.790064453125,-0.0008254647254943848,-0.00013524698442779481,-0.00014615082181990147
1772044140790050600,7.800050537109375,0.0005996031686663628,-0.0009738808730617166,0.0006455329712480307
1772044140800036600,7.81003662109375,-0.00007124710828065872,0.0011542511638253927,-0.001147573348134756
1772044140810022700,7.820022705078125,0.0006683748215436935,-0.0002783601521514356,0.0014762136852368712
