time,seconds_elapsed,z,y,x
1772094051825685000,0.08168505859375,0.141539052978158,-0.054949290847661904,-0.014467209030687808
1772094051835634000,0.091634033203125,-0.012689970225095748,0.006569016826502047,0.008919219514727591
1772094051845582800,0.101582763671875,-0.10373626880645752,0.06692201161491684,-0.0816607767291367
1772094051855532000,0.111531982421875,-0.12154781982898712,0.04212040990879759,-0.11561755299717187
1772094051865482000,0.12148193359375,-0.07753156796991825,0.009006436573877,-0.0337375805594027
1772094051875431200,0.13143115234375,0.01530453663766384,-0.011514190744259394,0.017003741770982742
1772094051885380000,0.141380126953125,0.13953414289653301,-0.014772731315903365,0.006864332811534405
1772094051895329000,0.1513291015625,0.24196342075765132,0.008302169895195402,-0.013868220224231481
1772094051905278000,0.16127783203125,0.26860183683633804,0.028332205251371485,-0.007315875971317291
1772094051915228200,0.171228271484375,0.2590723764687776,0.029755210092081687,-0.014831658428907393
1772094051925177000,0.181177001953125,0.13333353469073772,-0.003896482282155193,0.014956599982827902
1772094051935126000,0.1911259765625,-0.002587678405642509,0.01918545602450613,0.04919482354074716
1772094051945075000,0.201074951171875,-0.021808511704206467,-0.003414406986790709,0.02304112223908305
1772094051955024100,0.211024169921875,0.011400514936447143,-0.04343115914722439,-0.000535568181425333
1772094051964973000,0.22097314453125,0.04344108231961727,-0.011113697351701557,0.007332534845173358
1772094051974923000,0.230923095703125,0.05116437004804611,-0.006730637129000388,-0.02521963532194495
1772094051984872200,0.2408720703125,0.06258651229441166,-0.013733446829463354,-0.0671821695216
1772094051994821000,0.250821044921875,0.06572071866691112,0.018183978231227957,-0.05325681228265166
1772094052004770000,0.26077001953125,0.03638824119865894,-0.010342863676254636,-0.013128215511888265
1772094052014719000,0.270718994140625,0.026108839246630666,-0.06208698354074731,0.019818945322185755
1772094052024669000,0.2806689453125,0.06545359216332436,-0.08960883139045908,0.03386588311418891
1772094052034618000,0.2906181640625,0.0805184748262167,-0.08597059361911379,0.027604192370921373
1772094052044567000,0.300567138671875,0.05823766943514347,-0.01560306292651221,-0.054889089659601445
1772094052054516000,0.310515869140625,0.07639818002581596,0.018048191056307405,-0.10807006022706628
1772094052064465200,0.320465087890625,0.09755962599813937,-0.0003542293983045965,-0.07413432674705982
1772094052074414800,0.330414794921875,0.0678653294801712,-0.005068535435944795,-0.028276392544060943
1772094052084364000,0.340364013671875,0.031181320205330848,-0.023845497424528,0.026990152125805616
1772094052094313200,0.350313232421875,0.0751759447544813,-0.06959259166419506,0.04112696015834808
1772094052104262100,0.36026220703125,0.0898509513169527,-0.06308774894797242,0.02075944104269147
1772094052114211000,0.370211181640625,0.08326514318585396,0.025328758252225816,-0.014601649065315723
1772094052124160000,0.380159912109375,0.032981063103675844,0.04671213074638508,-0.03272182764559984
1772094052134110000,0.39010986328125,0.05615092628896236,-0.020928331336192787,0.0035498014360666272
1772094052144059000,0.400058837890625,0.11666881561577319,-0.09191162844011559,0.021985329575836658
1772094052154007800,0.4100078125,0.12640052055716514,-0.0904735675941687,-0.017516075207293032
1772094052163957000,0.41995703125,0.09889935016930103,-0.034203608902264385,-0.03834405144155025
1772094052173906200,0.42990625,0.08058043414652347,0.023256299359723925,-0.010294453390687703
1772094052183856000,0.439856201171875,0.06747136172652245,0.021143663720460608,-0.039365941835194825
1772094052193805000,0.44980517578125,0.00012859481573104857,0.03471753150746226,-0.07637392236739396
1772094052203754000,0.45975390625,-0.06586451105177402,0.04898111685798503,-0.06040405368879437
1772094052213703000,0.469702880859375,-0.05942775600254535,-0.02571882614889182,-0.01011120577827096
1772094052223652000,0.479652099609375,0.009651625442504882,-0.10604606185248121,0.0068313073247671125
1772094052233602000,0.48960205078125,0.09324468540847301,-0.1329249538898468,0.00405336704403162
1772094052243551000,0.499551025390625,0.14731003759503364,-0.09098953602598048,-0.048296851787716144
1772094052253500000,0.5095,0.15187106190025806,-0.08056414973200299,-0.08270400217175483
1772094052263448800,0.51944873046875,0.14083528862297534,-0.08655107865449972,-0.030901480350643395
1772094052273398000,0.52939794921875,0.025672785916924474,-0.10288905912628397,0.01841682343930006
1772094052283348000,0.539347900390625,-0.14694529593586922,-0.057149052214529365,-0.015553835223615168
1772094052293297200,0.549297119140625,-0.13801146337389944,0.01966632117689587,-0.03010565379783511
1772094052303246000,0.55924609375,-0.05438391661643981,0.03201568410366308,-0.11122282516956329
1772094052313195000,0.569195068359375,-0.014516601130366324,0.13317311996463685,-0.08077493380531668
1772094052323144000,0.57914404296875,-0.07252046180963516,0.11601208700640127,-0.013147650864720344
1772094052333092900,0.5890927734375,-0.027017770785093306,-0.09148646183060481,-0.0718767570786178
1772094052343043000,0.59904296875,0.07013035180270671,-0.03428587807494914,-0.03623158933222294
1772094052352992000,0.608991943359375,0.24516017097234724,-0.015173137943493202,-0.09632672320231794
1772094052362941000,0.61894091796875,0.3755640819519758,-0.1761182537271641,-0.3280360225796699
1772094052372890000,0.62889013671875,0.3922136034578085,-0.14882478953953832,-0.33621889064386484
1772094052382839000,0.638839111328125,0.16726561490893363,0.04116552033675834,-0.1600453082665801
1772094052392789200,0.648789306640625,-0.13886486533284187,0.13457368921125307,0.06796440594047308
1772094052402738200,0.65873828125,-0.34971184781491754,-0.06406264012842439,0.11258066951930522
1772094052412687000,0.66868701171875,-0.2925496986567974,-0.2211456005912274,0.20620748611316084
1772094052422636000,0.678635986328125,-0.11589081698060034,-0.16888980031097306,0.2962045679025352
1772094052432585000,0.6885849609375,0.03804711432158947,-0.12529111627684905,0.30151991770640013
1772094052442535000,0.698534912109375,0.1438824012339115,-0.1847737990707159,-0.06713935329318046
1772094052452484000,0.708484130859375,-0.06364975761175155,0.025233563382597638,-0.04653057276755571
1772094052462433000,0.71843310546875,-0.2862497217297554,0.10138117531398311,-0.0643994069352746
1772094052472382000,0.7283818359375,-0.2258557510435581,0.2240143426942639,-0.12547113075256347
1772094052482331100,0.7383310546875,-0.170856917399168,0.22386932646669447,0.029390491265803575
1772094052492280000,0.748280029296875,0.041081951972842215,0.02063943139221519,0.007834493017941712
1772094052502230000,0.75822998046875,0.040789106506109236,-0.02124450287958607,0.0356264630459249
1772094052512179200,0.76817919921875,-0.012003741526603698,0.02281613611048087,0.2777583722382784
1772094052522128100,0.778128173828125,-0.03494681021869182,0.049966867359168825,0.213086285841465
1772094052532077000,0.7880771484375,-0.04540858300030231,0.08504484794316813,0.03526186751723289
1772094052542026000,0.79802587890625,0.00859948604106903,0.12856354380995033,-0.01973608934432268
1772094052551976000,0.807975830078125,0.19056231934428214,0.14079762349370867,0.08277312188521027
1772094052561924900,0.8179248046875,0.3031476650387048,-0.03464322416223586,0.08268105968758463
1772094052571874000,0.8278740234375,0.28434827202260493,-0.04107954082004726,0.16794029930010437
1772094052581823200,0.8378232421875,0.3016027736842632,-0.0364345645584166,-0.0030262159533798695
1772094052591772200,0.847772216796875,0.244146025493741,0.09655673256590962,-0.030313159068673847
1772094052601722000,0.85772216796875,0.2382178044885397,0.16302268010955304,-0.04103080630749464
1772094052611671000,0.867671142578125,0.3586778290808201,0.08582651810646057,-0.15033669193983076
1772094052621620000,0.877619873046875,0.46762160340249537,0.04037416902966797,-0.19383169640377163
1772094052631569200,0.887569091796875,0.5668231513887644,0.08371431172545998,-0.1295765202447772
1772094052641518000,0.89751806640625,0.5746539911448956,0.007548661813884973,-0.08979396043270826
1772094052651467000,0.907467041015625,0.24865736543834208,-0.12210549024436622,0.07611161816939711
1772094052661417000,0.9174169921875,-0.004814706805348396,-0.15296722310651092,0.20775953786075113
1772094052671366000,0.927365966796875,-0.17003274153470993,-0.15867266820650547,0.17117840443849563
1772094052681315000,0.937315185546875,-0.13962474378943443,-0.1047231609519571,0.022670389230549336
1772094052691264000,0.947263916015625,-0.08079553820192813,-0.025260917180404064,-0.0982099066004157
1772094052701213200,0.957213134765625,-0.014295651856064795,-0.0025199469316750764,-0.16053016917407512
1772094052711164000,0.967163818359375,0.04989186589419842,-0.024770905173756182,-0.14171908572018146
1772094052721113000,0.977113037109375,0.11249649836719035,-0.04706968461293727,-0.10513634486272931
1772094052731062000,0.98706201171875,0.11432955901324748,-0.07959887576326727,-0.08142813701704144
1772094052741011000,0.997010986328125,0.11357435673177242,-0.07687036411482841,-0.03948182329982519
1772094052750959900,1.0069599609375,0.13050035709142685,-0.08570961372852325,0.0076487611874938004
1772094052760909800,1.016909912109375,0.14397650925815106,-0.1469708322359249,-0.08855652759224177
1772094052770859000,1.02685888671875,0.12206161457002163,-0.07929413892934098,-0.10255231971889733
1772094052780808000,1.036807861328125,0.0012537994533777237,-0.046171639794670045,-0.08847747100666165
1772094052790756900,1.0467568359375,-0.08282090654969215,0.009737056969944388,-0.11475874421074986
1772094052800705800,1.056705810546875,-0.03067570877075195,0.044833413460850714,-0.09983385454043746
1772094052810655000,1.066655029296875,0.10575637645721435,0.008869279425777494,-0.11438903411552309
1772094052820605000,1.07660498046875,0.1947597710341215,-0.006560052635334432,-0.15320421020016073
1772094052830554000,1.08655419921875,0.11947919686138629,-0.03661467036567628,-0.0894992152698338
1772094052840503000,1.0965029296875,0.05197568643093109,-0.07584368794821203,-0.026363252399116754
1772094052850452000,1.106451904296875,0.015425532668828963,-0.07187432765951379,-0.04567497885152697
1772094052860401000,1.11640087890625,-0.016329203510284423,-0.029265933304373173,-0.08125964858233928
1772094052870350800,1.126350830078125,-0.03317863150238991,-0.049776130560040474,0.005739858826249837
1772094052880299800,1.1362998046875,0.014073533537983893,-0.03551691999053582,-0.04847863809540868
1772094052890249000,1.1462490234375,-0.016813772156834602,0.05571722931312397,-0.14232260457128285
1772094052900198000,1.156197998046875,0.001755319234728813,0.11526680333074181,-0.15461451538950205
1772094052910147000,1.16614697265625,0.06983516824841499,-0.030665388306137173,-0.14520663557499647
1772094052920096800,1.1760966796875,0.07363046887814999,-0.01899504345236346,0.020795389138907192
1772094052930046000,1.1860458984375,0.14453823479413985,-0.02131236221771687,0.11848317156136035
1772094052939995000,1.195994873046875,0.2630652454972267,-0.13211783875804395,-0.07281359953731298
1772094052949944000,1.205944091796875,0.31032267123460766,-0.08441783861862495,-0.07024725618064404
1772094052959893000,1.21589306640625,0.21824586056172846,-0.042859245577361434,-0.049630730739980936
1772094052969843000,1.225843017578125,0.0504284569889307,-0.034166555694350974,-0.06493804385662079
1772094052979792000,1.2357919921875,-0.08044248698055743,-0.06943181161191314,-0.12315043272003531
1772094052989740800,1.24574072265625,-0.14977379736006258,0.030173147809784858,-0.06543795620277523
1772094052999689700,1.255689697265625,-0.18310089742243288,0.020111799922073258,-0.017757190486788747
1772094053009639000,1.265638916015625,-0.16295885762572287,-0.06367733060526662,-0.006875000336021185
1772094053019588000,1.275588134765625,-0.07528758843541145,-0.047200836711935694,-0.0016268705494701862
1772094053029537800,1.285537841796875,0.06631985360383987,-0.07201343473610468,-0.027725919054448604
1772094053039487000,1.295487060546875,0.15963234355151654,-0.11088901750477961,-0.030354806253314017
1772094053049436000,1.305435791015625,0.16346505358219146,-0.10847821176969445,-0.019556933385133743
1772094053059384800,1.315384765625,0.1418126092225313,-0.06221928641721606,-0.03320478885695338
1772094053069333800,1.325333740234375,0.09121990158259868,-0.023934244287060574,-0.07347454766407609
1772094053079284000,1.335283935546875,0.06034603989124298,-0.007978705527912825,-0.09482201772779225
1772094053089233000,1.34523291015625,0.019010405418276786,-0.0019403934780508278,-0.05029284791052341
1772094053099181800,1.355181884765625,-0.046053310644626616,-0.0014512217216193675,0.0083535484559834
1772094053109130800,1.365130859375,-0.0753115538328886,-0.025903151473542673,0.032585780175775285
1772094053119080000,1.375079833984375,-0.013722235882282257,-0.04148287005708553,0.034058336946368215
1772094053129030000,1.38502978515625,0.06980535763204097,-0.039739213860686864,-0.004544657692313194
1772094053138979000,1.39497900390625,0.10798340485692023,0.0018916680986527353,-0.058949617096781724
1772094053148928000,1.404927978515625,0.13866612789034843,0.026947007103823122,-0.05655146991387009
1772094053158877000,1.414876953125,0.18648820177316663,0.009482579885376617,-0.05655059313103556
1772094053168825900,1.424825927734375,0.22533435751795766,-0.005896711622085422,-0.05577142545208335
1772094053178774800,1.43477490234375,0.24224749839603898,-0.005640983295347541,-0.05675415287911892
1772094053188725000,1.44472509765625,0.21006430767178536,0.012097904349770396,-0.0643218116544187
1772094053198674000,1.454673828125,0.19105156416594982,0.0026503409788478163,-0.04638824168741703
1772094053208622800,1.464622802734375,0.13782324732542037,-0.02536601695611607,-0.016532763258367777
1772094053218571800,1.47457177734375,0.08002104669809341,-0.054196075027296314,-0.009559417114406823
1772094053228521000,1.48452099609375,0.021496961537003517,-0.044976452360465186,-0.0232709854722023
1772094053238471000,1.494470947265625,-0.008019640326499938,-0.04071362555052619,-0.03689239132851362
1772094053248420000,1.504420166015625,-0.07249766545593739,-0.031879280440811994,-0.015477993508428335
1772094053258369000,1.514369140625,-0.10927402918934821,-0.01604641821326222,-0.00601078472211957
1772094053268318000,1.52431787109375,-0.07327917122244834,-0.022298459778772664,-0.012031214055418968
1772094053278267000,1.534266845703125,0.01872398969233036,0.02389736460908316,-0.04881956048756837
1772094053288216800,1.544216796875,0.028698855739831924,0.06853107251306063,-0.05988821312114596
1772094053298165800,1.554165771484375,0.009670330142974854,0.05930254958714358,-0.0162953012406826
1772094053308115000,1.564114990234375,-0.003691255733370781,0.010257971004932188,0.0008557400465011596
1772094053318063900,1.57406396484375,-0.03038520139157772,-0.02040584183204919,0.044848464899510145
1772094053328013000,1.584012939453125,-0.028477906465530393,-0.02480796751482412,0.06234890414625406
1772094053337962800,1.593962646484375,0.06228431447744369,-0.01048180178948678,0.04326002666428685
1772094053347912000,1.603911865234375,0.13689970273971558,0.039570031306240705,-0.003274491626024246
1772094053357860900,1.61386083984375,0.1511509309321642,0.07222798166908323,-0.028386574920266864
1772094053367810000,1.62381005859375,0.12424655739367008,0.06057316317800432,-0.0117836690351367
1772094053377759000,1.633759033203125,0.06492343080937862,0.03331357157722814,0.023304303219914436
1772094053387708000,1.6437080078125,0.03202653885781765,-0.004861432023905217,0.03660319912359118
1772094053397657900,1.653657958984375,0.024084639942646025,-0.01535978308939375,0.037397856632620095
1772094053407606800,1.663606689453125,0.08221709543764591,-0.010682975500950124,0.03354907224997878
1772094053417555700,1.6735556640625,0.14375146833062172,-0.00022720776844071223,0.027319237949699163
1772094053427505000,1.6835048828125,0.14471125327348708,0.03565265693310648,0.0010952478908002375
1772094053437454000,1.6934541015625,0.09447568850815295,0.06624329036944546,-0.01957256934568286
1772094053447404000,1.703404052734375,0.07783551935255527,0.045534255206584925,-0.03101400081440806
1772094053457353000,1.71335302734375,0.022885201025009155,0.039622693075239655,-0.021806027486175297
1772094053467302000,1.723302001953125,-0.0675426733970642,0.034070353894436266,-0.003217062350362539
1772094053477250800,1.733250732421875,-0.11328268030881881,0.049039454882522114,0.019994155758619306
1772094053487200000,1.743199951171875,-0.043155835637450214,0.05103557430291548,0.03368234324082732
1772094053497150000,1.75314990234375,0.10352934805750846,-0.01145505356870126,0.018350187943875787
1772094053507099000,1.763098876953125,0.2713344766706228,-0.04875893004124518,-0.02012406574860215
1772094053517047800,1.7730478515625,0.3375356723308563,-0.07363698538390454,-0.02455547232478857
1772094053526996700,1.782996826171875,0.27572540510594845,-0.07243841411594766,-0.014837942039221525
1772094053536946000,1.79294580078125,0.16605390103161333,-0.05014007763476111,-0.05044716168940067
1772094053546896000,1.802895751953125,0.028138299247622487,0.013272966877976432,-0.06959463749080896
1772094053556845000,1.812844970703125,-0.04964695122241974,0.07068037776774726,-0.03336319428905844
1772094053566794000,1.8227939453125,-0.05708674583435058,0.06345585160800256,-0.017191957819461822
1772094053576743000,1.832742919921875,-0.09663841949999331,0.032663822981202975,-0.002363660391420126
1772094053586691800,1.84269189453125,-0.09943886387348175,0.005812755099101923,0.02540960493609309
1772094053596640800,1.852640869140625,-0.059713002684712406,-0.03372960959878983,0.07542685077562927
1772094053606591000,1.862591064453125,-0.028927988320589064,-0.019251009241119027,0.071869888946414
1772094053616540000,1.872539794921875,0.020851064848899842,0.03711133130881935,0.020810002186149357
1772094053626488800,1.88248876953125,0.11751871044337749,0.04892036311407573,-0.01676218810006976
1772094053636438000,1.89243798828125,0.1901929015100002,0.03841140845618211,-0.027689532566815615
1772094053646387000,1.902386962890625,0.20909283229112624,0.020224491632485294,-0.022016309235990045
1772094053656337000,1.9123369140625,0.15651158118247985,0.014111643908533733,-0.014703794265538453
1772094053666286000,1.9222861328125,0.07691139024496078,0.00133038437901414,-0.00005246083959937095
1772094053676235000,1.932235107421875,0.014507833302021026,0.009016447652882197,0.009145575616508722
1772094053686184000,1.942183837890625,0.002218260571360588,-0.010859544494119472,0.0013460077814757823
1772094053696132900,1.9521328125,0.0030529578298330307,-0.010448538840701804,-0.01633168772831559
1772094053706082800,1.962082763671875,0.03716331722438335,0.018996271861647256,-0.07793488807380199
1772094053716031700,1.97203173828125,0.09101648796498775,0.012520207715337165,-0.0965524947822094
1772094053725981000,1.98198095703125,0.12236381238698958,-0.02800908337738365,-0.0994764194048941
1772094053735929900,1.991929931640625,0.08546937523186206,-0.05159877940993756,-0.06427110438048839
1772094053745879000,2.001879150390625,0.03225917856991291,-0.06804391461720224,-0.025907909847050905
1772094053755828700,2.011828857421875,0.008214870637655258,-0.10063418373842722,-0.002862403693795204
1772094053765778000,2.02177783203125,0.03503858015537262,-0.11073681348459795,-0.018939093747735024
1772094053775726800,2.031726806640625,0.04760287817418575,-0.09346193575519136,-0.04041355119198561
1772094053785676000,2.041676025390625,0.020123335096240043,-0.02350746339248726,-0.0842065156891942
1772094053795625000,2.051625,-0.03432955510318279,-0.016263611477764787,-0.10729907585456967
1772094053805575000,2.061574951171875,-0.017725626304745674,-0.016062638695701025,-0.07754705779999495
1772094053815523800,2.07152392578125,0.03110240975022316,-0.024295124905148985,-0.03709989659935236
1772094053825472800,2.08147265625,0.09107377111017703,-0.026836628364794887,-0.05005158650055527
1772094053835421700,2.091421630859375,0.12840484611690042,-0.02556307389817666,-0.0648320992641151
1772094053845371000,2.101370849609375,0.08381868541538715,-0.05121591757219284,-0.03800838974639773
1772094053855320000,2.111320068359375,0.05562368754446506,-0.03920586503581144,-0.012111878076195716
1772094053865270000,2.12127001953125,0.05450315908193588,-0.026360048945166636,0.007276566874235868
1772094053875219000,2.131218994140625,0.04387479756176471,0.02580261370851658,0.004557371043413877
1772094053885167900,2.14116796875,-0.021823709273338317,0.08995372670483776,0.002302431723475456
1772094053895116800,2.15111669921875,-0.0651420419961214,0.13179401363115756,0.017151187417656182
1772094053905066000,2.16106591796875,-0.021980945661664007,0.09774798817709088,0.06067395667135715
1772094053915016000,2.171015869140625,0.04868599723577499,0.011185228217951954,0.08905337119847535
1772094053924964900,2.18096484375,0.0943558615207672,0.017695400129840708,0.05886383850947022
1772094053934913800,2.190913818359375,0.1424713653922081,0.05460400280763861,0.04248421998620033
1772094053944862700,2.20086279296875,0.1937888801753521,0.06960079780353698,0.015264350757747888
1772094053954812000,2.21081201171875,0.23518179779350756,0.09795918324235826,-0.024170418529957532
1772094053964761900,2.220761962890625,0.24213117853999136,0.10003430901598184,-0.015368980176001787
1772094053974711000,2.2307109375,0.2539589789777994,0.060079479643236844,-0.004329261375963687
1772094053984660000,2.240659912109375,0.22164368630647657,0.023912164885993115,-0.01666091968268156
1772094053994609000,2.25060888671875,0.14012275643944738,0.0312427863352932,-0.036270752298831935
1772094054004557800,2.260557861328125,0.05531798259615898,0.04192430281480774,-0.058782589966803786
1772094054014508000,2.270508056640625,-0.005092354702949524,0.038138747260952365,-0.08498407593294978
1772094054024457000,2.28045703125,-0.0508686019718647,0.015217972599063068,-0.08487053255587816
1772094054034406000,2.290406005859375,-0.10006488681733608,-0.0184330393551616,-0.06675999858677387
1772094054044354800,2.300354736328125,-0.08426584466099739,-0.04450175208738073,-0.05351823969781398
1772094054054304000,2.310303955078125,-0.007193710896372794,-0.03961785250334069,-0.036964141390472646
1772094054064253700,2.320253662109375,0.0185217451184988,-0.048602981427707706,-0.035727000810950996
1772094054074203100,2.330203125,-0.05058393981158733,-0.06681397553002462,0.014556494749337434
1772094054084152000,2.340152099609375,-0.0060714288681745525,-0.002336776951071806,-0.0029300621025264264
1772094054094101000,2.35010107421875,0.07457271816432476,0.006470620786212384,-0.08823197181299328
1772094054104050000,2.3600498046875,0.1099240175306797,-0.0034907966912491243,-0.13419745804369448
1772094054113998800,2.369998779296875,0.07270341716110706,0.00524788775795605,-0.1047137355364859
1772094054123948800,2.37994873046875,0.04411211344897747,-0.029117049185861832,-0.008500994102656841
1772094054133898000,2.38989794921875,0.03626315351426601,-0.0500292605043156,-0.001713672050088644
1772094054143847000,2.399846923828125,0.05726327144503593,-0.024422237866558134,-0.01906768856346607
1772094054153795800,2.4097958984375,0.08190612979233264,0.0046416426602285355,-0.04758139699473977
1772094054163745000,2.4197451171875,0.08690437647104263,0.00994024225869216,-0.07012362980097532
1772094054173695000,2.429695068359375,0.11107318756580352,-0.03207812291458249,-0.034062720860540865
1772094054183644000,2.439643798828125,0.16410042887628076,-0.08990491912704891,0.022924656252563
1772094054193592800,2.4495927734375,0.1954664579987526,-0.11184134066039696,0.02001212980672717
1772094054203542000,2.4595419921875,0.1605354298710823,-0.09328085270039736,0.0324731135815382
1772094054213491000,2.469490966796875,0.1371814422905445,-0.024549695604550652,0.02902735704183578
1772094054223441000,2.47944091796875,0.10244798256158828,0.06409915904679801,-0.03208192230686545
1772094054233389800,2.489389892578125,0.09041910659372807,0.06178603239937219,-0.036866087843477724
1772094054243338800,2.4993388671875,0.036707974672317505,-0.03805847139924299,0.04729761161729693
1772094054253287700,2.50928759765625,0.08102233269512653,-0.09802536208005622,0.07519085006266832
1772094054263237000,2.519237060546875,0.08542085991501808,-0.06607137243521866,0.026551614578068254
1772094054273186800,2.529186767578125,0.0908487301826477,-0.06362487433224451,-0.05305266801267862
1772094054283136000,2.539135986328125,0.038137715214490886,-0.006559276317199692,-0.0876657162323594
1772094054293085000,2.5490849609375,0.05264964016973972,0.028818906489503568,-0.0574115938745439
1772094054303033900,2.559033935546875,0.09528583584725857,-0.01489180481804069,-0.07200856676474213
1772094054312982800,2.568982666015625,0.08596095814108848,-0.05632596319545991,-0.03386544472277164
1772094054322933000,2.57893310546875,0.05992050795555114,-0.02443351731239818,-0.0180370303414762
1772094054332882000,2.5888818359375,-0.032090251743793485,0.017324968515406363,-0.020113836615532635
1772094054342830800,2.598830810546875,-0.05662789615094661,0.02149557329751551,-0.027348756305128334
1772094054352779800,2.60877978515625,-0.039409634846448896,0.0213325601889519,-0.035412966425716876
1772094054362729000,2.61872900390625,-0.0061906713336706155,0.03240225400214549,-0.04370134069100022
1772094054372678000,2.628677978515625,0.03723813602626323,0.019576254573534242,-0.02846095533072948
1772094054382627800,2.6386279296875,0.02917173394858837,-0.0021258513138629493,0.021657558926194906
1772094054392577000,2.648576904296875,0.03872632875740528,-0.004547580301761627,0.01164879060909152
1772094054402526000,2.65852587890625,0.08042027514874935,-0.012817112869257106,-0.002155132207274437
1772094054412475000,2.668474853515625,0.08564765440821648,-0.008550338253274094,-0.005983458323776721
1772094054422423800,2.678423828125,0.06709142249822617,0.0188470977654797,-0.012357669530808925
1772094054432374000,2.6883740234375,0.041050972312688824,0.037237190744769756,-0.014596388368308543
1772094054442323000,2.698322998046875,0.010297522130608559,0.051254285954358055,-0.030517157208174467
1772094054452271900,2.70827197265625,-0.03607318390011787,0.026444594556617084,-0.017477058371156453
1772094054462220800,2.718220703125,-0.07075286761522293,-0.012112999170913826,0.00833484375551343
1772094054472170000,2.728169921875,-0.06760580176115036,-0.03745653486716328,0.03432385601475835
1772094054482119700,2.73811962890625,-0.005129764103889465,-0.052233940074895506,0.06835106717050075
1772094054492069000,2.748069091796875,0.0871451994895935,-0.05618151779004838,0.053882104574143885
1772094054502018000,2.75801806640625,0.17865268584191799,-0.034367055835667994,0.025304390995949506
1772094054511967000,2.767967041015625,0.22387655992507932,-0.010911078318534419,-0.012333850263804196
1772094054521916000,2.777916015625,0.19366437701284883,0.012626001610793173,-0.014809738858044147
1772094054531865900,2.787865966796875,0.16065408781468868,0.010781643252586945,-0.005734013607352971
1772094054541814800,2.797814697265625,0.09640870239734649,0.0012274320362601428,0.00962649100124836
1772094054551764000,2.807763916015625,0.046234512430429454,-0.01320801188298501,0.010993541570752859
1772094054561713000,2.817712890625,-0.018786533534526823,-0.027593830807111225,0.010410919377207756
1772094054571661800,2.827661865234375,-0.03777764973044395,-0.04267068246901035,0.03192395526617765
1772094054581611800,2.83761181640625,-0.04238017508983612,-0.037288203979376704,0.04973974407240748
1772094054591561000,2.84756103515625,-0.017184359034895895,-0.004416291205445304,0.0352430166862905
1772094054601510000,2.857510009765625,0.05240881715118885,0.028637987831491043,0.019514409417659043
1772094054611459000,2.867458984375,0.12445230909883975,0.05613283350984566,-0.031211423082649705
1772094054621408000,2.877407958984375,0.11924012740850448,0.07036228826190345,-0.07614654335230589
1772094054631357000,2.88735693359375,0.05067454070448875,0.05957573593875858,-0.05711787162497639
1772094054641307000,2.897306884765625,0.0032546178817749022,0.03307001546218526,-0.028586481406539677
1772094054651255800,2.907255859375,0.006994973453879356,-0.017933200074243358,0.02769903104752302
1772094054661204700,2.917204833984375,0.04590601112842559,-0.03605287633102853,0.0638464492276311
1772094054671154000,2.92715380859375,0.09484802895188331,0.013169045279198325,0.05321224248856306
1772094054681103000,2.93710302734375,0.10935586225390434,0.057257293795398435,-0.01893953213915229
1772094054691052800,2.947052734375,0.14073065920472144,0.08966257087169215,-0.08157719009891153
1772094054701002000,2.957001953125,0.11736907283961773,0.08738067961274645,-0.08953764758408068
1772094054710951000,2.966950927734375,0.032145781323313714,0.03530113094854168,-0.054780953110009425
1772094054720900000,2.976900146484375,-0.02882452794611454,-0.0270209217234049,-0.011950111643224954
1772094054730849000,2.98684912109375,-0.0531254409879446,-0.04721651833825744,-0.006538315727561712
1772094054740799000,2.996799072265625,-0.04743453586995602,-0.03767537209948059,-0.03924041575938463
1772094054750748000,3.006747802734375,0.026335633739829063,-0.038402800458041016,-0.061211570679396386
1772094054760696800,3.01669677734375,0.12033844403922557,-0.0714422929177992,-0.0741761200621724
1772094054770645800,3.026645751953125,0.18174422211647032,-0.0800483548301272,-0.10542071476206183
1772094054780595000,3.036594970703125,0.19885025521814823,-0.04997691382914781,-0.15486542141065002
1772094054790545000,3.046544921875,0.16897592595815658,-0.0112950726674404,-0.19814692925438285
1772094054800494000,3.056494140625,0.12158230662047863,0.00923325389996171,-0.21501593872979283
1772094054810443000,3.066443115234375,0.07237140872776508,-0.012480044668307527,-0.21707301739007234
1772094054820392000,3.076391845703125,0.05848959836959838,-0.05737080977300647,-0.18385946070477366
1772094054830340900,3.0863408203125,0.05071195010542869,-0.12615719505427406,-0.1431963186658919
1772094054840291000,3.096291015625,0.03683481592237949,-0.17556531428582967,-0.08683335706144571
1772094054850240000,3.106239990234375,0.002407645663619041,-0.16439166690781712,-0.07086611873134971
1772094054860189000,3.11618896484375,-0.023150573962926864,-0.07926989040407352,-0.08778685839399696
1772094054870137900,3.126137939453125,0.011062661284208297,0.0013870887105353175,-0.10434095670133829
1772094054880086800,3.136086669921875,0.03853635914325714,0.06692059597596525,-0.11370412059128283
1772094054890036000,3.146035888671875,0.03628711891174316,0.1093272572139278,-0.10842106562182306
1772094054899986000,3.15598583984375,0.03852642227113247,0.07975417592283338,-0.04669438502714038
1772094054909935000,3.16593505859375,0.02483984222412109,0.012553393032308667,0.023358371494710446
1772094054919884000,3.175884033203125,0.02811024219691753,-0.05023275175374001,0.07343450791463256
1772094054929833000,3.1858330078125,0.05008592716157436,-0.05808613213524222,0.07551613649427891
1772094054939782000,3.195781982421875,0.14088029680848121,-0.031477289210911835,0.04785992167517542
1772094054949732000,3.205732177734375,0.23154022642076014,0.002005101877870038,-0.0013563830450177192
1772094054959681000,3.215680908203125,0.26893209170401094,0.05314955251589417,-0.06227116273492574
1772094054969630000,3.2256298828125,0.1845160249173641,0.11664767236304469,-0.10690803071036935
1772094054979579000,3.235578857421875,0.048752048209309576,0.1156418928539846,-0.0767110453672707
1772094054989528000,3.245528076171875,-0.024634090518951414,0.028277488522604106,0.03581789396479726
1772094054999477800,3.255477783203125,-0.02672960149347782,-0.07085214500492439,0.10464797682389616
1772094055009427000,3.265427001953125,0.026987375646829605,-0.07486209759891499,0.10689341766312718
1772094055019376000,3.275376220703125,0.08285130168795585,-0.03287569846648257,0.0741761200621724
1772094055029325000,3.285324951171875,0.08627484639585017,-0.019722042552661148,0.029574469530582428
1772094055039274000,3.29527392578125,0.10709668515026569,-0.01346766289959196,-0.006981383319944143
1772094055049224000,3.305223876953125,0.0967050549954176,0.021538033332908525,-0.04316401894390583
1772094055059172900,3.3151728515625,0.08417465924620628,0.04370950573114678,-0.06108049164563417
1772094055069121800,3.325121826171875,0.08201134373247623,0.016632401407673022,-0.022988076877593994
1772094055079071000,3.335071044921875,0.06878653597831726,-0.015287325207958929,-0.0006261690743267536
1772094055089020000,3.34502001953125,0.053364510440826414,-0.04774900408003013,-0.010206482846289873
1772094055098969000,3.354968994140625,-0.014460487028956413,-0.06330538745375816,0.00010915946289896965
1772094055108918800,3.364918701171875,-0.06814940711855888,-0.058137615727307274,0.023670652314275502
1772094055118868000,3.374867919921875,-0.06678630207180976,-0.030338878031820057,-0.01032177978903055
1772094055128817000,3.38481689453125,0.0004167641073465347,0.002627147332928143,-0.03770648419037461
1772094055138766000,3.39476611328125,0.05972469312250614,0.013319509433442726,-0.03472410737872123
1772094055148715000,3.404715087890625,0.09285539382994175,0.022554599097464233,-0.05674450826793909
1772094055158665000,3.4146650390625,0.061522682455182075,0.03396854890421964,-0.10134718171283602
1772094055168614000,3.42461376953125,-0.019753332740068436,0.017206744396639988,-0.0822805160626769
1772094055178562800,3.434562744140625,-0.10220715954303741,-0.022051818940788507,-0.012087182026356459
1772094055188511700,3.44451171875,-0.12160334940850734,-0.031454967781249434,0.03126169196516275
1772094055198461000,3.4544609375,-0.06818681651949882,-0.010718852815218269,0.050017830361425875
1772094055208411000,3.464410888671875,0.017288403931260108,-0.021367152011720462,0.022824264618009328
1772094055218360000,3.474360107421875,0.13145838846862315,-0.029647900092974303,-0.03621741467639804
1772094055228309000,3.48430908203125,0.19663082560300826,-0.03383029121099971,-0.06047755731642246
1772094055238258000,3.4942578125,0.24379589688181877,-0.04442439426854253,-0.04269888565018773
1772094055248206800,3.504206787109375,0.23549860865771768,-0.06166410935302265,-0.0604332797832787
1772094055258157000,3.514156982421875,0.19645722260177134,-0.05372792779258452,-0.044489276198297734
1772094055268106000,3.52410595703125,0.17484277216494082,-0.03292349683069624,-0.044411242526024575
1772094055278055000,3.534054931640625,0.18898177215456963,-0.027113705440238115,-0.05229264342561364
1772094055288003800,3.54400390625,0.1348281571626663,-0.02017570460429415,0.0058529638119041915
1772094055297952800,3.553952880859375,0.03342354617416859,-0.011784326622262597,-0.10321677497699856
1772094055307903000,3.563903076171875,-0.007644377273321151,0.0455207290047314,-0.14683087577596307
1772094055317852000,3.573851806640625,-0.10177812047600746,0.08028261111057362,-0.14563129072785377
1772094055327801000,3.583801025390625,-0.1057411788880825,0.0023570571206975727,-0.1989838184699416
1772094055337750000,3.59375,-0.062432198515534394,-0.007790937004005536,-0.1338335931673646
1772094055347699000,3.603698974609375,-0.004345920249819756,-0.0634021851920057,-0.10888283791467547
1772094055357649000,3.61364892578125,0.06321545784771442,-0.05148950121602974,-0.06556231323480606
1772094055367598000,3.62359814453125,0.133957804068923,-0.03005174078666605,-0.03859904911592602
1772094055377547000,3.633547119140625,0.21690146021544932,-0.07032168225687928,-0.049886312936246395
1772094055387496000,3.643495849609375,0.22163141134679315,-0.026354621568089348,-0.06015519349426031
1772094055397444900,3.65344482421875,0.14533318456411362,0.004294500589836389,-0.1337561440169811
1772094055407394000,3.66339404296875,0.025991350346803662,-0.008128836322017014,-0.09232084856182336
1772094055417343700,3.67334375,-0.045409167522192,0.000627575580123812,-0.026657559170573948
1772094055427293200,3.683293212890625,-0.043992286461591715,-0.02271319632581435,0.005765285528451204
1772094055437242000,3.6932421875,0.00850011731982231,-0.048638815359491855,-0.005111205533891916
1772094055447191000,3.70319091796875,-0.0022638532787561416,-0.021593645110819487,-0.02064955092743039
1772094055457140000,3.713139892578125,-0.0017880524605512619,-0.0060137621304951604,-0.026456483640521763
1772094055467090000,3.72308984375,0.02217792953848839,-0.017603123303083702,-0.02105973916351795
1772094055477038800,3.733038818359375,0.04406009100079536,-0.012175536163244396,-0.04105111844316125
1772094055486987800,3.74298779296875,0.10827157414853572,0.0008940627628937363,-0.02613558112308383
1772094055496937000,3.75293701171875,0.17477087597250937,-0.03595794175630435,-0.008143558967113494
1772094055506886000,3.762885986328125,0.13986205967664717,-0.05858408085317351,0.023305326133221387
1772094055516835800,3.7728359375,0.019251812958717345,-0.028897556649707255,0.035222996811568735
1772094055526785000,3.782784912109375,-0.028001521125435826,0.003241338275093585,0.0052251873023808
1772094055536734000,3.79273388671875,-0.026633155381679534,0.022248181763105092,-0.01271773501485586
1772094055546683000,3.802682861328125,0.01567746160328388,0.027565193801093846,-0.014075725495070218
1772094055556632000,3.812632080078125,0.03758943368196487,0.028834355220384893,-0.013876841922104357
1772094055566582000,3.82258203125,0.06988426808714866,0.050584999257512385,0.005802110407501459
1772094055576531000,3.832531005859375,0.13332009068727493,0.005798722007172182,0.027651392513513562
1772094055586479900,3.84247998046875,0.16518588602542877,-0.03919321561679244,0.03676102003380656
1772094055596428800,3.8524287109375,0.16868366501331328,-0.05062864660299383,0.0029972821198403833
1772094055606377700,3.862377685546875,0.12863280965387822,-0.039351666714670136,-0.013587941978126763
1772094055616327200,3.8723271484375,0.07506663916110992,-0.028551921549811957,-0.030306583197414874
1772094055626276900,3.88227685546875,0.003509469425678253,-0.0012454152175225316,-0.03611030104011297
1772094055636226000,3.89222607421875,-0.043048283609747884,0.023927750614192337,-0.014688596696406602
1772094055646175000,3.902175048828125,-0.049344168883562085,0.01342161810104735,-0.015298837549239396
1772094055656124000,3.9121240234375,-0.035814240702986715,-0.02664751270059496,-0.0073087155781686305
1772094055666072800,3.92207275390625,-0.023170447707176207,-0.04215935367969796,0.015248130275309085
1772094055676023000,3.93202294921875,-0.008161094623804092,-0.03996712259873748,0.002397416530549526
1772094055685972000,3.941971923828125,0.0820084211230278,-0.02390097220512107,-0.025799919427931306
1772094055695921000,3.9519208984375,0.16382979524135588,-0.024048573115421457,-0.039959816075116394
1772094055705869800,3.961869873046875,0.2073912890702486,-0.03468376623517833,-0.03520034658834338
1772094055715819000,3.971819091796875,0.2131593510776758,-0.044025503744604066,0.005658464153110981
1772094055725768700,3.981768798828125,0.1920405752032995,-0.057021882170904425,0.03783858613744378
1772094055735718000,3.9917177734375,0.1486830795139074,-0.03975099563002586,0.040309944687038655
1772094055745666800,4.001666748046875,0.11955869183838366,-0.05614649670901708,0.029208558827638623
1772094055755615700,4.01161572265625,0.040862756264209744,-0.022236162531748413,-0.024248890593647956
1772094055765565000,4.02156494140625,0.03617313714325428,0.03546945498646237,-0.04125555497407913
1772094055775515000,4.031514892578125,0.0219768540084362,0.02082334572491236,-0.04166661999300122
1772094055785463800,4.0414638671875,0.007241641691327095,-0.01469128184383735,-0.028264994367212054
1772094055795412700,4.051412841796875,-0.012774141377210616,-0.039514154666848475,-0.009285714739561081
1772094055805361700,4.061361572265625,-0.028236498925089833,-0.045766483926726505,0.006963993793725967
1772094055815310600,4.071310546875,-0.024808862563967703,-0.05359552445141598,0.023561785112321376
1772094055825260800,4.0812607421875,0.0005915361523628235,-0.05352773817852139,0.009981295788288116
1772094055835209700,4.091209716796875,0.03791384333074092,-0.035859385885810474,-0.014639058466255664
1772094055845159000,4.101158935546875,0.061897945508360856,-0.004940762604121118,-0.05295607577040791
1772094055855107800,4.11110791015625,0.04725274956226349,0.0006825937029905617,-0.05398951047137379
1772094055865056800,4.121056884765625,0.043595980620384216,-0.04978060580575838,-0.02328077621385455
1772094055875005700,4.131005615234375,0.05281856699585914,-0.08044998530042358,-0.00342222953364253
1772094055884956000,4.140955810546875,0.07670154688656329,-0.056977531572524456,-0.013674305087327957
1772094055894904800,4.15090478515625,0.08485504272580147,-0.025133628405770287,-0.02015314571261406
1772094055904853800,4.160853759765625,0.10219430006146431,0.01438554036291316,-0.04627031439617276
1772094055914802700,4.170802734375,0.12366963428854942,0.04100023763929494,-0.0754904175311327
1772094055924752000,4.180751953125,0.1470540170073509,0.02909956376152113,-0.08394815701395272
1772094055934701800,4.190701904296875,0.15160919609367846,-0.02703704174114391,-0.05460618106499314
1772094055944651000,4.200651123046875,0.11651041018366813,-0.07815614787535742,-0.025567133585363624
1772094055954600000,4.210599853515625,0.03256780612766742,-0.09335009114486165,-0.0059137540884315965
1772094055964548900,4.220548828125,-0.029850363862514495,-0.058211566879507154,0.00791764125674963
1772094055974497800,4.230497802734375,-0.01100070196390152,-0.001255078095011413,-0.022883739720284936
1772094055984447700,4.24044775390625,0.048775429084897036,0.0033415929123293605,-0.05034063257500529
1772094055994397000,4.25039697265625,0.09916939928233623,-0.01773702448159456,-0.05786737481802701
1772094056004345900,4.260345947265625,0.08786474593579768,-0.04595155817004852,-0.04534063233062625
1772094056014294800,4.270294677734375,0.030085926184058188,-0.06015548575520515,-0.0624200696863234
1772094056024243700,4.28024365234375,-0.03825345054864883,-0.044049386943690476,-0.040850335174053905
1772094056034193000,4.29019287109375,-0.015287000980973242,-0.039448971342993897,-0.029118104065209625
1772094056044142800,4.300142822265625,0.03264554753899574,-0.06223638368248939,-0.016235972268879413
1772094056054092000,4.310092041015625,0.0772241094559431,-0.07513155762348324,-0.03807371006757021
1772094056064041000,4.320041015625,0.09293664237260818,-0.05158409329745918,-0.05833294650316238
1772094056073990000,4.329989990234375,0.0813368054717779,-0.037957518075685946,-0.06142302147299051
1772094056083938800,4.339938720703125,0.09610299744904041,-0.04993232576875016,-0.058721215168386694
1772094056093888800,4.349888671875,0.10468787044286727,-0.013435217368137091,-0.0658718175753951
1772094056103837700,4.359837646484375,0.06619125878810882,0.008759142715344205,-0.04241875353455543
1772094056113787000,4.369786865234375,0.06991817035675048,-0.0013175032061990349,-0.03960924907177686
1772094056123735800,4.37973583984375,0.07668108862042426,-0.03539846297632902,-0.0313207286760211
1772094056133685000,4.38968505859375,0.07999240512549877,-0.05860261202370748,-0.006490823324024677
1772094056143634700,4.399634765625,0.04392506644427776,-0.07755074759442358,-0.0018378829516470432
1772094056153583900,4.409583984375,0.04662848018407821,-0.06299864589241333,0.006083996088802814
1772094056163532800,4.41953271484375,0.06424421637356281,-0.04041082037878223,-0.013854191698879003
1772094056173481700,4.429481689453125,0.08895955543518066,-0.014888083057571201,-0.005173164854198694
1772094056183431000,4.439430908203125,0.09588906243741512,0.010886437067622318,0.003533434823155403
1772094056193380900,4.449380859375,0.08615443488657475,0.03187575047658756,-0.008929010256379842
1772094056203329800,4.459329833984375,0.05273556488752365,0.01582415833128616,-0.014288491462916135
1772094056213278700,4.46927880859375,0.011857026532292366,-0.014311077754059806,-0.00877878813073039
1772094056223227600,4.4792275390625,-0.050073067680001256,-0.05562037220937199,0.0012282266207039355
1772094056233176800,4.4891767578125,-0.035626024654507635,-0.08114600474056788,-0.0022531857542693614
1772094056243126000,4.4991259765625,0.02667991713285446,-0.08067237761314026,-0.03737535253986716
1772094056253075700,4.50907568359375,0.09302665874361991,-0.056090108612971375,-0.054440907500684255
1772094056263025000,4.51902490234375,0.11744213807582854,-0.025676448311889543,-0.027006810999661682
1772094056272973800,4.528973876953125,0.12325287018120289,-0.011618258473509922,-0.026103286288678643
1772094056282922800,4.5389228515625,0.07483049231767654,-0.01485503017134033,-0.04636339950710535
1772094056292871700,4.54887158203125,0.004566869524121284,-0.022827826548274605,-0.050799920649826524
1772094056302822000,4.55882177734375,-0.03543371695280075,-0.03027578620035201,-0.053440059895068406
1772094056312770800,4.568770751953125,-0.010773907470703125,-0.03862144361082464,-0.05279942390397191
1772094056322719700,4.5787197265625,0.01589841087758541,-0.03015901881973259,-0.03971533979475498
1772094056332668700,4.588668701171875,0.07039981639385223,-0.040845430670073256,-0.0052712184011936185
1772094056342617900,4.598617919921875,0.1407639769524336,-0.03644855655115097,0.022240911772102117
1772094056352567800,4.60856787109375,0.15786299579143523,-0.03460797931891866,0.029084055665135382
1772094056362517000,4.61851708984375,0.1513765563815832,-0.011115560515224932,0.03657704176902771
1772094056372466000,4.6284658203125,0.12997019573748111,0.03472039018482901,0.01648234824538231
1772094056382414800,4.638414794921875,0.10250994188189506,0.02637443138025701,0.009142945268005132
1772094056392363800,4.64836376953125,0.06974573639929295,-0.02784633056372404,-0.00008402502164244651
1772094056402313700,4.658313720703125,0.04081599451303482,-0.02463924161810428,0.016740268529206515
1772094056412263000,4.668262939453125,0.04158522531986236,-0.022527619758993384,-0.0002443301498889923
1772094056422211800,4.6782119140625,0.025424948635697362,0.01304333197372034,-0.038624621948599815
1772094056432160800,4.688160888671875,0.052960021293163295,0.03560884519084356,-0.04187397913336754
1772094056442109700,4.698109619140625,0.0813110865086317,0.01879683573283255,-0.016799305240064857
1772094056452059600,4.7080595703125,0.05837970825433731,-0.017372830811701715,-0.013950930071622132
1772094056462008800,4.7180087890625,0.009053659549355506,-0.02029094674810767,-0.02457519993856549
1772094056471958000,4.7279580078125,-0.06927344271242618,-0.004163567686546594,-0.019743249737471342
1772094056481907000,4.737906982421875,-0.11712357364594936,0.034328011600067834,0.01750000085532665
1772094056491856000,4.74785595703125,-0.09074293172061443,0.006611636692099273,0.07059738479256629
1772094056501805800,4.757805908203125,-0.004549918389320374,-0.012156265207193791,0.1067025712661445
1772094056511754800,4.767754638671875,0.14963175854086874,-0.01986402657292783,0.09871551803499459
1772094056521703700,4.77770361328125,0.28421207842230795,-0.043082258944585915,0.010908785896748303
1772094056531652900,4.78765283203125,0.3345306452959776,-0.0738955678214319,-0.06093246147707104
1772094056541601800,4.797601806640625,0.2510533206641674,-0.0029851715569384394,-0.06294847747460007
1772094056551551000,4.807551025390625,0.1695838287234306,-0.031219661188032478,-0.05431143590211868
1772094056561500700,4.817500732421875,0.14376257424652575,-0.012521746651874855,-0.0288391409933567
1772094056571449900,4.827449951171875,0.06424421637356281,-0.092230439465167,-0.07198708558529615
1772094056581398800,4.837398681640625,-0.04086158722043037,-0.09706104709254577,-0.05818477020412683
1772094056591348000,4.847347900390625,-0.10304244132339954,-0.030246350043313577,-0.06403539592847228
1772094056601297000,4.857296875,-0.12207213596403597,-0.026035344752157106,-0.050681993358582256
1772094056611246800,4.867246826171875,-0.05446633420288562,0.004387658766005188,-0.036692046450823544
1772094056621195800,4.87719580078125,-0.02522913380265236,0.048254364352859555,-0.07650967757627368
1772094056631144700,4.887144775390625,-0.09253566035628319,0.07053387283599004,-0.09256649388596415
1772094056641093600,4.89709375,-0.1119412025719881,0.08569025144092739,-0.008956628915667533
1772094056651042800,4.907042724609375,-0.0703968937844038,0.04635947225065901,0.043667292290925974
1772094056660992800,4.91699267578125,0.04944003047347068,0.0012730156105011702,0.08699965353906154
1772094056670942000,4.92694189453125,0.18528525572419166,0.024384919797163455,0.05733443698510527
1772094056680891000,4.936890869140625,0.29193711971640585,0.0225186144686304,0.02031754249408841
1772094056690839800,4.94683984375,0.3711164548933506,0.09661286493362858,-0.013313508950918911
1772094056700788700,4.956788818359375,0.3790069158822298,0.1479511119775474,-0.04495528627485037
1772094056710738400,4.966738525390625,0.3161088534206152,0.13140079479617997,-0.0076480305351316925
1772094056720687400,4.976687255859375,0.2813414914220571,0.02817833899706602,0.03496405361443758
1772094056730636300,4.98663623046875,0.15729951668977737,-0.06182657903889194,-0.0810511203981936
1772094056740585200,4.996585205078125,-0.06661737524569034,0.0702162947867997,0.22089199115633965
1772094056750534400,5.006534423828125,-0.2518681441783905,0.11641016467958688,0.3682105043187737
1772094056760484400,5.016484375,-0.26905542582273484,0.019350158766657112,0.2281754261627793
1772094056770433500,5.02643359375,-0.09080898269414901,-0.011810374378971755,0.08577244983166456
1772094056780382500,5.036382568359375,0.15147475605905056,0.004151036998536438,0.04791676642894745
1772094056790331400,5.046331298828125,0.2932324202239513,0.036644079123251135,0.03602320727854967
1772094056800280300,5.0562802734375,0.29264906737804414,0.09492955148918554,-0.0665562927082181
1772094056810230500,5.06623046875,0.18912907167077064,0.120352107238397,-0.12414163571447133
1772094056820179500,5.076179443359375,0.07460720495581627,0.08372669628299773,-0.08916983718499541
1772094056830128400,5.08612841796875,0.07903320470452309,0.05508190881796181,-0.04350377229228616
1772094056840077300,5.096077392578125,0.09237667040228843,0.0018190960527863353,-0.025648820519447325
1772094056850026500,5.106026611328125,0.08791267673075198,-0.008577155478252097,-0.08730345879122614
1772094056859976200,5.11597607421875,0.08961421995162963,0.01438847210551612,-0.07329626848772168
1772094056869925400,5.12592529296875,0.01963058314323425,-0.0205127271394711,-0.07306786655932665
1772094056879874600,5.13587451171875,-0.11550269444584846,-0.035213781458651644,-0.02640460732281208
1772094056889823500,5.145823486328125,-0.13111936577260494,-0.024075132328784093,-0.061087505908310406
1772094056899772400,5.1557724609375,-0.12031214055418968,-0.07173495572144165,-0.12972425815239547
1772094056909721300,5.165721435546875,-0.07743395281434058,-0.06176113998671062,-0.14107231224924324
1772094056919671300,5.17567138671875,-0.06515490147769451,-0.02129531061821617,-0.1361243344530463
1772094056929620500,5.185620361328125,-0.028909283620119092,-0.023069033159315584,-0.10567352047935127
1772094056939569400,5.1955693359375,0.04979015908539295,-0.002967252307757735,-0.07571180519685149
1772094056949518300,5.205518310546875,0.17158289358615875,-0.009722169928066432,-0.0899265007711947
1772094056959467500,5.215467529296875,0.2532446932286024,-0.004156023700907827,-0.07515534035786986
1772094056969417200,5.225417236328125,0.2680564779132604,-0.01693115145880729,-0.13207608197554946
1772094056979366400,5.235366455078125,0.22693887010514735,-0.0028680297169834373,-0.09414747946709394
1772094056989315600,5.245315673828125,0.1262672495663166,0.03649280668483115,-0.07494272052049636
1772094056999264500,5.255264404296875,0.11527063925564289,0.03050665408046916,-0.03649593935683369
1772094057009213400,5.26521337890625,0.15875439167320726,-0.026320911094732582,-0.0480636275537312
1772094057019163400,5.275163330078125,0.15275895065069198,-0.030536409897916016,-0.09228431594371796
1772094057029112300,5.2851123046875,0.18677929367423057,-0.09803037618189119,-0.3308000804655254
1772094057039061200,5.295061279296875,0.03141162182986736,0.11435003554569556,-0.10311536042913794
1772094057049010400,5.305010498046875,-0.0453437010705471,0.16540508173406124,0.19643647207468748
1772094057058959400,5.31495947265625,-0.05003916541039943,-0.11040089606111869,0.01712108454033732
1772094057068909300,5.324909423828125,-0.027618659287691114,-0.17304244474470615,-0.024998978308588264
1772094057078858500,5.3348583984375,-0.10125614242851734,-0.08180156430616042,0.01648059467971325
1772094057088807400,5.344807373046875,-0.2952981205821037,-0.10804548290823586,0.0026189503267407418
1772094057098756400,5.35475634765625,-0.21709084530770778,-0.009655004709679633,0.112305067448318
1772094057108705500,5.36470556640625,-0.03136953625380993,0.0477225316316355,0.06607420827969908
1772094057118655500,5.374655517578125,0.17174422162771225,-0.03110883949100971,-0.10698825633972883
1772094057128604400,5.3846044921875,0.31648119386434553,-0.015915106284059583,-0.10389379745572805
1772094057138553300,5.39455322265625,0.26598727042376996,0.03101863132375292,-0.07662526677995919
1772094057148502300,5.404502197265625,0.18814415228664874,0.023665081090014427,0.008468260876834392
1772094057158451200,5.414451171875,0.17071078692674635,-0.016669577913172542,0.09027429129555821
1772094057168401400,5.4244013671875,0.17214286555647848,0.030783507393626494,0.06164455526918172
1772094057178350300,5.434350341796875,0.08439911565184592,0.07707093732138164,-0.017560352740436793
1772094057188299500,5.444299560546875,-0.031056817042827603,0.043548200522479596,0.026706074487417936
1772094057198248400,5.45424853515625,-0.14069091171622275,-0.009698368927370755,0.07341594934463501
1772094057208197400,5.464197265625,-0.14617840321660042,0.012344006331637502,0.057486412676423786
1772094057218147600,5.474147705078125,-0.10633271504044532,-0.025360130638023837,-0.006046294426918029
1772094057228096500,5.484096435546875,0.05898936458528042,-0.01872955178343691,-0.002626110719889402
1772094057238045400,5.49404541015625,0.16249007107019423,-0.05324312168401666,-0.018814152193814514
1772094057247994400,5.503994384765625,0.2457768415659666,-0.07740069899871013,-0.02280219891667366
1772094057257943300,5.513943359375,0.30125264507234095,-0.04499923501443118,-0.026301585339754817
1772094057267893200,5.523893310546875,0.21784604758918283,0.06385521248939913,-0.10335866766571998
1772094057277842400,5.533842529296875,0.04698445401489734,0.11315637791487387,-0.14968728812038898
1772094057287791600,5.54379150390625,-0.07460895852148533,0.06576902848777827,-0.07218070846125484
1772094057297740500,5.553740478515625,-0.13143325402736664,0.0028034583144821226,-0.014730828402936458
1772094057307689500,5.563689453125,-0.13603870199620724,-0.09010130934882908,0.059254445262253284
1772094057317639400,5.573639404296875,-0.03488134376704693,-0.12341609791889786,0.06983911377117037
1772094057327588400,5.58358837890625,0.08346154254078865,-0.024350606535607947,0.029433161363750696
1772094057337537300,5.593537353515625,0.18777648801803587,0.016659718672861343,-0.0592646743953228
1772094057347486500,5.603486572265625,0.2753162397831678,0.03559976226866711,-0.11119243003129958
1772094057357435400,5.613435302734375,0.22300737587511538,0.050959732587728644,-0.1167553248554468
1772094057367385300,5.62338525390625,0.11645195799469947,0.003031367052532732,-0.07265548636615275
1772094057377334300,5.633334228515625,-0.026937106764316557,-0.020212255488708614,0.010454027866572142
1772094057387283200,5.643283203125,-0.1047603511571884,-0.046077910796343345,0.03111965314596891
1772094057397232400,5.653232421875,-0.08347498654425144,-0.05333966369393747,0.027365707439929245
1772094057407181600,5.663181640625,0.03693067751228809,-0.07000156062415334,-0.012582418197393417
1772094057417131500,5.673131591796875,0.12278817527890204,-0.04899710901156067,-0.061366761241108174
1772094057427080400,5.68308056640625,0.11482932522892951,-0.03379409195303451,-0.07358253808319568
1772094057437029400,5.693029296875,0.05373801992833614,-0.034896007046638984,-0.0529796027764678
1772094057446978300,5.702978271484375,0.040652328383922576,-0.048763829978648573,-0.028869243870675562
1772094057456927200,5.71292724609375,0.09285247122049331,-0.0393859114775667,-0.02568637605085969
1772094057466877400,5.72287744140625,0.12645546561479568,-0.002142396023287438,-0.06379778778031468
1772094057476826400,5.732826416015625,0.08238894487321376,0.011409789654868654,-0.07403393511250615
1772094057486775300,5.742775390625,0.005797872623801231,-0.011803319017100147,0.0037174130879342555
1772094057496724500,5.752724365234375,0.0030289924323558806,-0.028943683646642602,0.02255816102772951
1772094057506673400,5.76267333984375,0.03510170851945877,-0.08575569962626323,-0.027101211284846067
1772094057516623600,5.77262353515625,0.11521452515423297,-0.09651325875036418,-0.02824146736115217
1772094057526572500,5.782572509765625,0.12571370733678341,-0.03189740518596954,-0.07968494661152363
1772094057536521500,5.792521484375,0.11551087775230406,-0.05596139963280875,-0.0791204445965588
1772094057546470400,5.802470458984375,0.11132803910970687,-0.03949425808971282,-0.08810849156379699
1772094057556419300,5.81241943359375,0.01617547425329685,0.02331800751828123,-0.05029781634658575
1772094057566369300,5.822369384765625,-0.0657785863339901,0.037177364016044885,-0.0031305531106889245
1772094057576318500,5.832318359375,-0.06687398035526275,0.02443019741072785,-0.025324703131616114
1772094057586267400,5.842267333984375,-0.0786141025096178,-0.03430361237775068,-0.021394524075835943
1772094057596216300,5.85221630859375,-0.06085574297904968,-0.08925520478035323,0.06643237406760454
1772094057606165500,5.86216552734375,-0.0482674795627594,-0.10140240989825687,0.06466901765689254
1772094057616115500,5.872115478515625,0.07450725171267986,-0.08602600446762516,-0.0640754356779158
1772094057626064400,5.882064453125,0.15083528911173344,0.0366635784081649,-0.18677461749911306
1772094057636013600,5.892013671875,0.1584177070647478,0.16957809310238808,-0.24163506558611988
1772094057645962500,5.90196240234375,0.1740764639675617,0.15639478640239685,-0.19890739223286508
1772094057655911400,5.911911376953125,0.1273223115772009,0.04027859056754969,-0.08545432379320263
1772094057665861400,5.921861328125,0.04932487966120243,-0.07206124680005013,0.08412979719117283
1772094057675810300,5.931810302734375,-0.03980301807820797,-0.11395046916832216,0.09755611886680125
