time,seconds_elapsed,z,y,x
1772094051825685000,0.08168505859375,-0.017696280032396317,0.02888466604053974,-0.012939264997839928
1772094051835634000,0.091634033203125,-0.025527944788336754,0.01874244213104248,0.015442395582795143
1772094051845582800,0.101582763671875,-0.03349665552377701,0.012736747041344643,0.02269977703690529
1772094051855532000,0.111531982421875,-0.03248722106218338,0.010023145005106926,0.030574575066566467
1772094051865482000,0.12148193359375,-0.029262930154800415,-0.006526270415633917,0.038436226546764374
1772094051875431200,0.13143115234375,-0.026519857347011566,-0.01373208872973919,0.026642845943570137
1772094051885380000,0.141380126953125,-0.027966752648353577,-0.008475808426737785,0.004094925709068775
1772094051895329000,0.1513291015625,-0.030890056863427162,-0.0013487986288964748,-0.01612919569015503
1772094051905278000,0.16127783203125,-0.03021441400051117,0.0021641768980771303,-0.03312176093459129
1772094051915228200,0.171228271484375,-0.028570370748639107,0.0064817811362445354,-0.03684330731630325
1772094051925177000,0.181177001953125,-0.02280888706445694,-0.005843861028552055,-0.01882462576031685
1772094051935126000,0.1911259765625,-0.015686308965086937,-0.024970808997750282,-0.00835379958152771
1772094051945075000,0.201074951171875,-0.018000595271587372,-0.020785652101039886,-0.010318147949874401
1772094051955024100,0.211024169921875,-0.016695188358426094,-0.020575348287820816,-0.008835254237055779
1772094051964973000,0.22097314453125,-0.019772471860051155,-0.02175273187458515,-0.009480804204940796
1772094051974923000,0.230923095703125,-0.020500807091593742,-0.010521471500396729,-0.011160082183778286
1772094051984872200,0.2408720703125,-0.02481699362397194,-0.0015487498603761196,-0.012701786123216152
1772094051994821000,0.250821044921875,-0.024368619546294212,0.0012961078900843859,-0.006873388774693012
1772094052004770000,0.26077001953125,-0.01641136035323143,-0.005304004531353712,-0.007830794900655746
1772094052014719000,0.270718994140625,-0.012864479795098305,-0.0031159166246652603,-0.008902683854103088
1772094052024669000,0.2806689453125,-0.006640938576310873,0.0015230432618409395,-0.007138605695217848
1772094052034618000,0.2906181640625,-0.015209716744720936,0.002960692858323455,-0.0012570745311677456
1772094052044567000,0.300567138671875,-0.01924600452184677,-0.006788607221096754,-0.0008120601996779442
1772094052054516000,0.310515869140625,-0.024114035069942474,0.00037937983870506287,-0.01078704185783863
1772094052064465200,0.320465087890625,-0.02486984059214592,0.00977581087499857,-0.007369407452642918
1772094052074414800,0.330414794921875,-0.016588039696216583,-0.0031348569318652153,0.0009266780689358711
1772094052084364000,0.340364013671875,-0.004657876677811146,-0.010137372650206089,0.0013783504255115986
1772094052094313200,0.350313232421875,0.0013884278014302254,-0.011547889560461044,-0.00847565196454525
1772094052104262100,0.36026220703125,0.0006419438868761063,-0.016111215576529503,-0.0062101008370518684
1772094052114211000,0.370211181640625,0.00026386603713035583,-0.02858894318342209,-0.007263265550136566
1772094052124160000,0.380159912109375,0.002975496929138899,-0.026220858097076416,-0.00885157473385334
1772094052134110000,0.39010986328125,0.0062109255231916904,-0.027124594897031784,-0.019754480570554733
1772094052144059000,0.400058837890625,0.007850101217627525,-0.022208930924534798,-0.029263032600283623
1772094052154007800,0.4100078125,0.003197238314896822,-0.018209468573331833,-0.0354575477540493
1772094052163957000,0.41995703125,-0.0005820533260703087,-0.01277901604771614,-0.025419294834136963
1772094052173906200,0.42990625,-0.003722802037373185,-0.0007106703706085682,-0.01706499233841896
1772094052183856000,0.439856201171875,-0.012287793681025505,0.008567783050239086,-0.009927988983690739
1772094052193805000,0.44980517578125,-0.0192246213555336,0.007865523919463158,0.0012670261785387993
1772094052203754000,0.45975390625,-0.013768604025244713,-0.0047914148308336735,0.010180626064538956
1772094052213703000,0.469702880859375,-0.009636066854000092,-0.015574730932712555,0.00846750009804964
1772094052223652000,0.479652099609375,-0.009919960051774979,-0.016036257147789,0.0006702970713376999
1772094052233602000,0.48960205078125,-0.013042215257883072,-0.019258184358477592,-0.004657056648284197
1772094052243551000,0.499551025390625,-0.02023940719664097,-0.02815021388232708,-0.015747256577014923
1772094052253500000,0.5095,-0.019463980570435524,-0.041926246136426926,-0.018665587529540062
1772094052263448800,0.51944873046875,-0.018434934318065643,-0.0694340392947197,-0.0018679643981158733
1772094052273398000,0.52939794921875,-0.030873021110892296,-0.11476185917854309,0.04506351053714752
1772094052283348000,0.539347900390625,-0.03678790479898453,-0.12382698804140091,0.0820700004696846
1772094052293297200,0.549297119140625,-0.04111161455512047,-0.1186443567276001,0.09189745038747787
1772094052303246000,0.55924609375,-0.06023896858096123,-0.123360276222229,0.10450911521911621
1772094052313195000,0.569195068359375,-0.07302790135145187,-0.14552998542785645,0.1412665843963623
1772094052323144000,0.57914404296875,-0.095181405544281,-0.18059448897838593,0.16709792613983154
1772094052333092900,0.5890927734375,-0.09321124106645584,-0.2016650140285492,0.16979338228702545
1772094052343043000,0.59904296875,-0.1256330907344818,-0.19943594932556152,0.14614823460578918
1772094052352992000,0.608991943359375,-0.14846329391002655,-0.16871409118175507,0.08114755898714066
1772094052362941000,0.61894091796875,-0.1675104796886444,-0.06364599615335464,0.004891934338957071
1772094052372890000,0.62889013671875,-0.18275916576385498,-0.01531322579830885,-0.021882763132452965
1772094052382839000,0.638839111328125,-0.1700447052717209,-0.033976923674345016,0.018254801630973816
1772094052392789200,0.648789306640625,-0.16877666115760803,-0.06849721074104309,0.06641887128353119
1772094052402738200,0.65873828125,-0.14091947674751282,-0.060270704329013824,0.09997044503688812
1772094052412687000,0.66868701171875,-0.08994150161743164,-0.044206928461790085,0.11449725180864334
1772094052422636000,0.678635986328125,-0.06743752211332321,-0.08435328304767609,0.1051572784781456
1772094052432585000,0.6885849609375,-0.07850973308086395,-0.05799570679664612,0.12271836400032043
1772094052442535000,0.698534912109375,-0.07055779546499252,-0.0926562175154686,0.15821456909179688
1772094052452484000,0.708484130859375,-0.08860351145267487,-0.13496914505958557,0.22549450397491455
1772094052462433000,0.71843310546875,-0.0960257425904274,-0.1423538327217102,0.2724204659461975
1772094052472382000,0.7283818359375,-0.09297525882720947,-0.1585688292980194,0.27818506956100464
1772094052482331100,0.7383310546875,-0.08679459244012833,-0.11516249924898148,0.273264616727829
1772094052492280000,0.748280029296875,-0.06964921206235886,-0.07147958874702454,0.24614572525024414
1772094052502230000,0.75822998046875,-0.039610084146261215,-0.07447031885385513,0.2531895041465759
1772094052512179200,0.76817919921875,-0.025223150849342346,-0.09092312306165695,0.29880183935165405
1772094052522128100,0.778128173828125,-0.015351612120866776,-0.07245516777038574,0.30487143993377686
1772094052532077000,0.7880771484375,-0.008193528279662132,-0.04077695310115814,0.2791834771633148
1772094052542026000,0.79802587890625,-0.003674143459647894,-0.011349288746714592,0.234353706240654
1772094052551976000,0.807975830078125,0.016789156943559647,0.03486539423465729,0.2040804624557495
1772094052561924900,0.8179248046875,0.0278167761862278,0.03456392511725426,0.17981427907943726
1772094052571874000,0.8278740234375,0.022473784163594246,0.03163379430770874,0.17056405544281006
1772094052581823200,0.8378232421875,0.02443227358162403,0.012246780097484589,0.15208971500396729
1772094052591772200,0.847772216796875,0.008759452030062675,-0.030339296907186508,0.14017440378665924
1772094052601722000,0.85772216796875,-0.00836627185344696,-0.0545402392745018,0.1189977377653122
1772094052611671000,0.867671142578125,-0.023568931967020035,-0.05003118887543678,0.06845273077487946
1772094052621620000,0.877619873046875,-0.024935930967330933,-0.032961655408144,-0.008201302960515022
1772094052631569200,0.887569091796875,-0.013063352555036545,0.03603017330169678,-0.08967094123363495
1772094052641518000,0.89751806640625,-0.005215815734118223,0.03767281025648117,-0.11975746601819992
1772094052651467000,0.907467041015625,0.02652907185256481,0.00890023447573185,-0.08720637857913971
1772094052661417000,0.9174169921875,0.04226702079176903,-0.01991090551018715,-0.049015846103429794
1772094052671366000,0.927365966796875,0.04747745022177696,-0.025021636858582497,-0.03230257332324982
1772094052681315000,0.937315185546875,0.040702901780605316,-0.014435572549700737,-0.02123873680830002
1772094052691264000,0.947263916015625,0.026957720518112183,-0.004062169697135687,-0.01878610998392105
1772094052701213200,0.957213134765625,0.021252697333693504,0.012372463010251522,-0.027824081480503082
1772094052711164000,0.967163818359375,0.015667350962758064,0.033864542841911316,-0.04357144236564636
1772094052721113000,0.977113037109375,0.013611657544970512,0.0544917918741703,-0.052540168166160583
1772094052731062000,0.98706201171875,0.013554202392697334,0.0597538985311985,-0.060328155755996704
1772094052741011000,0.997010986328125,0.02808494307100773,0.07341457903385162,-0.06592292338609695
1772094052750959900,1.0069599609375,0.025421559810638428,0.10489246994256973,-0.0839773640036583
1772094052760909800,1.016909912109375,0.02573501318693161,0.1258118748664856,-0.0988876074552536
1772094052770859000,1.02685888671875,0.02867630124092102,0.11958431452512741,-0.09259311109781265
1772094052780808000,1.036807861328125,0.017885969951748848,0.09397056698799133,-0.07141352444887161
1772094052790756900,1.0467568359375,0.012864658609032631,0.07940183579921722,-0.05839310586452484
1772094052800705800,1.056705810546875,0.0016836426220834255,0.07831552624702454,-0.06705529987812042
1772094052810655000,1.066655029296875,-0.007560489233583212,0.10024536401033401,-0.08425909280776978
1772094052820605000,1.07660498046875,-0.013875909149646759,0.09899979829788208,-0.08824983984231949
1772094052830554000,1.08655419921875,-0.010592497885227203,0.0913378894329071,-0.07992079854011536
1772094052840503000,1.0965029296875,-0.014707881025969982,0.07997817546129227,-0.06840875744819641
1772094052850452000,1.106451904296875,-0.020096339285373688,0.08514963090419769,-0.06856007874011993
1772094052860401000,1.11640087890625,-0.016719717532396317,0.07628503441810608,-0.05698731541633606
1772094052870350800,1.126350830078125,-0.019136950373649597,0.06903627514839172,-0.043970756232738495
1772094052880299800,1.1362998046875,-0.027000732719898224,0.06636299192905426,-0.04718572273850441
1772094052890249000,1.1462490234375,-0.03981395438313484,0.07369320839643478,-0.05593162029981613
1772094052900198000,1.156197998046875,-0.050114795565605164,0.07549483329057693,-0.06206408143043518
1772094052910147000,1.16614697265625,-0.031394194811582565,0.0662187933921814,-0.07163400202989578
1772094052920096800,1.1760966796875,-0.01716678962111473,0.06257984787225723,-0.07970710843801498
1772094052930046000,1.1860458984375,-0.02238461747765541,0.08369220048189163,-0.10809879004955292
1772094052939995000,1.195994873046875,-0.022052787244319916,0.12034528702497482,-0.14463043212890625
1772094052949944000,1.205944091796875,-0.0239439494907856,0.1296961009502411,-0.1591728925704956
1772094052959893000,1.21589306640625,-0.02713681384921074,0.09517860412597656,-0.14045539498329163
1772094052969843000,1.225843017578125,-0.03196023777127266,0.056160472333431244,-0.10553320497274399
1772094052979792000,1.2357919921875,-0.02635854482650757,0.04507240280508995,-0.08122041076421738
1772094052989740800,1.24574072265625,-0.02759753167629242,0.018326599150896072,-0.04671304300427437
1772094052999689700,1.255689697265625,-0.022229930385947227,0.005030500236898661,-0.004247342702001333
1772094053009639000,1.265638916015625,-0.023367421701550484,-0.0025422144681215286,0.0166860893368721
1772094053019588000,1.275588134765625,-0.017063984647393227,0.0024421578273177147,0.010308883152902126
1772094053029537800,1.285537841796875,-0.012905952520668507,0.008128716610372066,-0.008216220885515213
1772094053039487000,1.295487060546875,-0.01211286336183548,0.0041787163354456425,-0.018822258338332176
1772094053049436000,1.305435791015625,-0.015993114560842514,0.009667114354670048,-0.02467266656458378
1772094053059384800,1.315384765625,-0.01946241408586502,0.011239977553486824,-0.03237346187233925
1772094053069333800,1.325333740234375,-0.02669467404484749,0.01589866355061531,-0.03284090384840965
1772094053079284000,1.335283935546875,-0.026971109211444855,0.019588205963373184,-0.031352464109659195
1772094053089233000,1.34523291015625,-0.0228757094591856,0.005901586264371872,-0.013413376174867153
1772094053099181800,1.355181884765625,-0.012125061824917793,-0.010789509862661362,0.0007304064929485321
1772094053109130800,1.365130859375,-0.003228902816772461,-0.01760895922780037,0.0065020485781133175
1772094053119080000,1.375079833984375,0.0030444394797086716,-0.013034448027610779,0.0009315144270658493
1772094053129030000,1.38502978515625,-0.002053645672276616,-0.009528184309601784,-0.0020021465606987476
1772094053138979000,1.39497900390625,-0.004679788835346699,-0.014991659671068192,-0.005616056267172098
1772094053148928000,1.404927978515625,-0.013268675655126572,-0.021881647408008575,-0.014375844970345497
1772094053158877000,1.414876953125,-0.019225899130105972,-0.025663070380687714,-0.03334714099764824
1772094053168825900,1.424825927734375,-0.022150719538331032,-0.0248879287391901,-0.05335790291428566
1772094053178774800,1.43477490234375,-0.02724907547235489,-0.02908400446176529,-0.06657544523477554
1772094053188725000,1.44472509765625,-0.028598187491297722,-0.023175925016403198,-0.07782870531082153
1772094053198674000,1.454673828125,-0.027589915320277214,-0.003863746766000986,-0.0843941941857338
1772094053208622800,1.464622802734375,-0.022064602002501488,-0.017632218077778816,-0.09083238244056702
1772094053218571800,1.47457177734375,-0.027815699577331543,-0.022933240979909897,-0.08038853108882904
1772094053228521000,1.48452099609375,-0.027728307992219925,-0.02865513041615486,-0.07298935949802399
1772094053238471000,1.494470947265625,-0.02787291817367077,-0.024512581527233124,-0.050465404987335205
1772094053248420000,1.504420166015625,-0.025069985538721085,-0.037714261561632156,-0.024571150541305542
1772094053258369000,1.514369140625,-0.019760973751544952,-0.044203586876392365,-0.01188571471720934
1772094053268318000,1.52431787109375,-0.023095596581697464,-0.02772483415901661,-0.016589613631367683
1772094053278267000,1.534266845703125,-0.030361231416463852,-0.015486810356378555,-0.01620025932788849
1772094053288216800,1.544216796875,-0.027384884655475616,-0.019457584246993065,-0.009901350364089012
1772094053298165800,1.554165771484375,-0.022985607385635376,-0.019044261425733566,-0.005651478189975023
1772094053308115000,1.564114990234375,-0.018220771104097366,-0.019827479496598244,0.00552968867123127
1772094053318063900,1.57406396484375,-0.007182234898209572,-0.03587515279650688,0.015116003341972828
1772094053328013000,1.584012939453125,-0.0018297359347343445,-0.04270953685045242,0.008475635200738907
1772094053337962800,1.593962646484375,-0.0003471542149782181,-0.03041798248887062,-0.00507665891200304
1772094053347912000,1.603911865234375,-0.004369171801954508,-0.02520841732621193,-0.01506742276251316
1772094053357860900,1.61386083984375,-0.006923942361027002,-0.022170551121234894,-0.0160975344479084
1772094053367810000,1.62381005859375,-0.006316720973700285,-0.02496514469385147,-0.01324628759175539
1772094053377759000,1.633759033203125,0.0009899279102683067,-0.03133995458483696,-0.008350332267582417
1772094053387708000,1.6437080078125,0.005927024409174919,-0.03793031722307205,-0.0037614800967276096
1772094053397657900,1.653657958984375,0.015239033848047256,-0.0453655943274498,-0.003625392448157072
1772094053407606800,1.663606689453125,0.017773937433958054,-0.03495941683650017,-0.011393558233976364
1772094053417555700,1.6735556640625,0.017465274780988693,-0.01709626615047455,-0.016946783289313316
1772094053427505000,1.6835048828125,0.01463429443538189,-0.017892729490995407,-0.0140557661652565
1772094053437454000,1.6934541015625,0.013389799743890762,-0.009584731422364712,-0.006062288768589497
1772094053447404000,1.703404052734375,0.012560038827359676,-0.007734810467809439,-0.0020870305597782135
1772094053457353000,1.71335302734375,0.015891388058662415,-0.013497091829776764,0.01008574664592743
1772094053467302000,1.723302001953125,0.019813429564237595,-0.025839032605290413,0.03350752592086792
1772094053477250800,1.733250732421875,0.02261214517056942,-0.028912585228681564,0.04621000960469246
1772094053487200000,1.743199951171875,0.02066332846879959,-0.029990067705512047,0.03452169522643089
1772094053497150000,1.75314990234375,0.02180449292063713,-0.020412806421518326,0.0072943358682096004
1772094053507099000,1.763098876953125,0.018163327127695084,-0.011294659227132797,-0.020647399127483368
1772094053517047800,1.7730478515625,0.01701417565345764,-0.01750701479613781,-0.04207199439406395
1772094053526996700,1.782996826171875,0.007892371155321598,-0.022479917854070663,-0.04856523871421814
1772094053536946000,1.79294580078125,0.002857665531337261,-0.021763794124126434,-0.04787174612283707
1772094053546896000,1.802895751953125,-0.006740587763488293,-0.02623511664569378,-0.03739494830369949
1772094053556845000,1.812844970703125,-0.008870583958923817,-0.023152507841587067,-0.026173185557127
1772094053566794000,1.8227939453125,-0.01054309494793415,-0.02684670314192772,-0.016385193914175034
1772094053576743000,1.832742919921875,-0.00396375497803092,-0.034640442579984665,-0.007533379830420017
1772094053586691800,1.84269189453125,0.006144363433122635,-0.037285249680280685,0.011004731990396976
1772094053596640800,1.852640869140625,0.020287612453103065,-0.03972896561026573,0.020274130627512932
1772094053606591000,1.862591064453125,0.02306537516415119,-0.0436570905148983,0.02011704072356224
1772094053616540000,1.872539794921875,0.018441328778862953,-0.03978804871439934,0.010533922351896763
1772094053626488800,1.88248876953125,0.01226736232638359,-0.02708139643073082,-0.004143444821238518
1772094053636438000,1.89243798828125,0.015208825469017029,-0.012067293748259544,-0.023132849484682083
1772094053646387000,1.902386962890625,0.015618384815752506,0.0031284154392778873,-0.02836192212998867
1772094053656337000,1.9123369140625,0.014396260492503643,0.008726113475859165,-0.02432856522500515
1772094053666286000,1.9222861328125,0.020083921030163765,0.008278422057628632,-0.013249095529317856
1772094053676235000,1.932235107421875,0.02632077783346176,0.011027868837118149,-0.003218032419681549
1772094053686184000,1.942183837890625,0.02365717850625515,0.012514639645814896,0.009178907610476017
1772094053696132900,1.9521328125,0.015519089996814728,0.01722550578415394,0.017563603818416595
1772094053706082800,1.962082763671875,0.0063262078911066055,0.028242293745279312,0.01012322399765253
1772094053716031700,1.97203173828125,-0.0010044097434729338,0.04520982876420021,0.0016959172207862139
1772094053725981000,1.98198095703125,-0.005098889581859112,0.053561124950647354,-0.003734840080142021
1772094053735929900,1.991929931640625,-0.004974786192178726,0.045919183641672134,0.00462109362706542
1772094053745879000,2.001879150390625,0.000659136101603508,0.03651737421751022,0.011820495128631592
1772094053755828700,2.011828857421875,0.005934858229011297,0.028769439086318016,0.012725437991321087
1772094053765778000,2.02177783203125,-0.0003584090154618025,0.03316851705312729,0.004078687634319067
1772094053775726800,2.031726806640625,-0.0034825634211301804,0.03184359520673752,0.005998294334858656
1772094053785676000,2.041676025390625,-0.013326771557331085,0.030041294172406197,0.008522966876626015
1772094053795625000,2.051625,-0.015734001994132996,0.013773908838629723,0.012717446312308311
1772094053805575000,2.061574951171875,-0.01829814538359642,0.010854478925466537,0.018151622265577316
1772094053815523800,2.07152392578125,-0.01762836053967476,0.0066671911627054214,0.011647384613752365
1772094053825472800,2.08147265625,-0.02194390818476677,0.020914657041430473,0.0037272265180945396
1772094053835421700,2.091421630859375,-0.020657867193222046,0.013049012050032616,-0.0010568760335445404
1772094053845371000,2.101370849609375,-0.01587674207985401,0.007931677624583244,0.0010108007118105888
1772094053855320000,2.111320068359375,-0.010242825374007225,0.006016066297888756,0.0019564894028007984
1772094053865270000,2.12127001953125,0.0003921971656382084,0.010044772177934647,0.0004508141428232193
1772094053875219000,2.131218994140625,-0.000004347413778305054,0.013025648891925812,0.012084566056728363
1772094053885167900,2.14116796875,0.002774751279503107,0.009650073945522308,0.030871151015162468
1772094053895116800,2.15111669921875,0.012371985241770744,0.005204725544899702,0.04197387024760246
1772094053905066000,2.16106591796875,0.026087915524840355,0.008909715339541435,0.042946260422468185
1772094053915016000,2.171015869140625,0.03624254837632179,0.008808248676359653,0.033624131232500076
1772094053924964900,2.18096484375,0.043095801025629044,0.008271141909062862,0.029595419764518738
1772094053934913800,2.190913818359375,0.046655382961034775,0.00007792701944708824,0.018247956410050392
1772094053944862700,2.20086279296875,0.044357214123010635,-0.003514569718390703,0.005793190561234951
1772094053954812000,2.21081201171875,0.044658418744802475,-0.012166649103164673,-0.008665110915899277
1772094053964761900,2.220761962890625,0.04447000101208687,-0.019620196893811226,-0.02314148284494877
1772094053974711000,2.2307109375,0.044337641447782516,-0.02157815359532833,-0.035747822374105453
1772094053984660000,2.240659912109375,0.03823450952768326,-0.02200988680124283,-0.03882959857583046
1772094053994609000,2.25060888671875,0.030100680887699127,-0.025525791570544243,-0.03023291565477848
1772094054004557800,2.260557861328125,0.028237147256731987,-0.02726883254945278,-0.022603295743465424
1772094054014508000,2.270508056640625,0.02031344547867775,-0.02268606424331665,-0.010216932743787766
1772094054024457000,2.28045703125,0.014061227440834045,-0.024465287104249,0.004955132491886616
1772094054034406000,2.290406005859375,0.015337415039539337,-0.02314622327685356,0.011189859360456467
1772094054044354800,2.300354736328125,0.014907224103808403,-0.009357156231999397,0.010959381237626076
1772094054054304000,2.310303955078125,0.01579725369811058,0.003781815990805626,0.006657843478024006
1772094054064253700,2.320253662109375,0.021151185035705566,-0.002538966480642557,0.02148362435400486
1772094054074203100,2.330203125,0.019775662571191788,-0.003977339714765549,0.03772970288991928
1772094054084152000,2.340152099609375,0.014050398953258991,0.013836278580129147,0.034332044422626495
1772094054094101000,2.35010107421875,0.0006142188794910908,0.029922302812337875,0.016414031386375427
1772094054104050000,2.3600498046875,-0.005189748480916023,0.027097435668110847,0.012341674417257309
1772094054113998800,2.369998779296875,-0.0011723700445145369,0.009530693292617798,0.015873026102781296
1772094054123948800,2.37994873046875,0.004789337050169706,-0.0060537164099514484,0.016713595017790794
1772094054133898000,2.38989794921875,0.0046753534115850925,-0.004502957221120596,0.018480602651834488
1772094054143847000,2.399846923828125,-0.0010750689543783665,-0.005627824459224939,0.019524678587913513
1772094054153795800,2.4097958984375,-0.009005430154502392,-0.01235390454530716,0.019876748323440552
1772094054163745000,2.4197451171875,-0.008787114173173904,-0.01930258795619011,0.00995684415102005
1772094054173695000,2.429695068359375,-0.0034882233012467623,-0.03169161453843117,-0.0005179005675017834
1772094054183644000,2.439643798828125,0.0023204046301543713,-0.03842892870306969,-0.009547533467411995
1772094054193592800,2.4495927734375,0.00852876529097557,-0.040352530777454376,-0.010988570749759674
1772094054203542000,2.4595419921875,0.008087128400802612,-0.036043308675289154,-0.006113956682384014
1772094054213491000,2.469490966796875,0.005739286076277494,-0.030920716002583504,-0.0028622373938560486
1772094054223441000,2.47944091796875,0.004981582053005695,-0.03587176278233528,-0.005679896101355553
1772094054233389800,2.489389892578125,0.01695728488266468,-0.0443296954035759,-0.0020494749769568443
1772094054243338800,2.4993388671875,0.02543603628873825,-0.051244739443063736,0.0004165363498032093
1772094054253287700,2.50928759765625,0.030830269679427147,-0.05700195953249931,-0.008431550115346909
1772094054263237000,2.519237060546875,0.022949744015932083,-0.046264927834272385,-0.010078413411974907
1772094054273186800,2.529186767578125,0.01402762159705162,-0.05097126588225365,-0.01250801607966423
1772094054283136000,2.539135986328125,0.005586073733866215,-0.0502801239490509,-0.003012130968272686
1772094054293085000,2.5490849609375,-0.010972395539283752,-0.04536339268088341,-0.010402670130133629
1772094054303033900,2.559033935546875,-0.008828386664390564,-0.04135814309120178,-0.028738804161548615
1772094054312982800,2.568982666015625,-0.014025812037289143,-0.02039799839258194,-0.03697036951780319
1772094054322933000,2.57893310546875,-0.018304232507944107,-0.02364606224000454,-0.026869002729654312
1772094054332882000,2.5888818359375,-0.022449709475040436,-0.02514941617846489,-0.016118090599775314
1772094054342830800,2.598830810546875,-0.028844080865383148,-0.02416905388236046,-0.012741880491375923
1772094054352779800,2.60877978515625,-0.033088892698287964,-0.023730697110295296,-0.010382052510976791
1772094054362729000,2.61872900390625,-0.03791143000125885,-0.01638493500649929,-0.010791685432195663
1772094054372678000,2.628677978515625,-0.03934580832719803,-0.010523317381739616,-0.009947995655238628
1772094054382627800,2.6386279296875,-0.04007972031831741,-0.011885508894920349,-0.008507677353918552
1772094054392577000,2.648576904296875,-0.037568360567092896,-0.0026874826289713383,-0.015372240915894508
1772094054402526000,2.65852587890625,-0.03626169264316559,0.013229699805378914,-0.023124098777770996
1772094054412475000,2.668474853515625,-0.036774083971977234,0.018944844603538513,-0.025887660682201385
1772094054422423800,2.678423828125,-0.03681807219982147,0.032363321632146835,-0.021048089489340782
1772094054432374000,2.6883740234375,-0.03597624599933624,0.03744569793343544,-0.009286505170166492
1772094054442323000,2.698322998046875,-0.034228961914777756,0.04452608525753021,0.002013927325606346
1772094054452271900,2.70827197265625,-0.02666691690683365,0.04726887494325638,0.01431267149746418
1772094054462220800,2.718220703125,-0.017479337751865387,0.03664575517177582,0.03152050822973251
1772094054472170000,2.728169921875,-0.008568399585783482,0.0305700171738863,0.04101121425628662
1772094054482119700,2.73811962890625,-0.00027278997004032135,0.026809317991137505,0.03452284261584282
1772094054492069000,2.748069091796875,0.00463861133903265,0.02636590041220188,0.018908727914094925
1772094054502018000,2.75801806640625,0.007628038991242647,0.031962018460035324,-0.003331907093524933
1772094054511967000,2.767967041015625,0.00632442208006978,0.03235882893204689,-0.01417283620685339
1772094054521916000,2.777916015625,0.006873494945466518,0.033645737916231155,-0.01871439442038536
1772094054531865900,2.787865966796875,0.013777739368379116,0.029027551412582397,-0.020071540027856827
1772094054541814800,2.797814697265625,0.017041046172380447,0.025928422808647156,-0.016216693446040154
1772094054551764000,2.807763916015625,0.020165732130408287,0.022175762802362442,-0.0021128589287400246
1772094054561713000,2.817712890625,0.02907404862344265,0.011290384456515312,0.009995965287089348
1772094054571661800,2.827661865234375,0.035850461572408676,0.0066554187797009945,0.01951277256011963
1772094054581611800,2.83761181640625,0.04090507701039314,0.006824619602411985,0.022263046354055405
1772094054591561000,2.84756103515625,0.046214886009693146,0.006339391693472862,0.022075559943914413
1772094054601510000,2.857510009765625,0.03850122168660164,0.016990136355161667,0.014963818714022636
1772094054611459000,2.867458984375,0.03291897103190422,0.037852007895708084,0.00836290791630745
1772094054621408000,2.877407958984375,0.022667858749628067,0.047058094292879105,0.010851562023162842
1772094054631357000,2.88735693359375,0.023380253463983536,0.04425911232829094,0.016590140759944916
1772094054641307000,2.897306884765625,0.03483104333281517,0.038295548409223557,0.016497652977705002
1772094054651255800,2.907255859375,0.04543522000312805,0.025465771555900574,0.012960176914930344
1772094054661204700,2.917204833984375,0.05164233595132828,0.01669015735387802,0.01459353044629097
1772094054671154000,2.92715380859375,0.054763827472925186,0.005802888888865709,0.0057963109575212
1772094054681103000,2.93710302734375,0.04724283888936043,0.018818413838744164,-0.00418635830283165
1772094054691052800,2.947052734375,0.038808342069387436,0.03328683599829674,-0.00887751579284668
1772094054701002000,2.957001953125,0.035885926336050034,0.03823158144950867,-0.00018138112500309944
1772094054710951000,2.966950927734375,0.03928039222955704,0.036532483994960785,0.00921931117773056
1772094054720900000,2.976900146484375,0.04321080073714256,0.03754347190260887,0.02237771824002266
1772094054730849000,2.98684912109375,0.042803071439266205,0.0321178138256073,0.030315537005662918
1772094054740799000,2.996799072265625,0.03985607996582985,0.026454033330082893,0.034116290509700775
1772094054750748000,3.006747802734375,0.036942046135663986,0.03559453412890434,0.024720659479498863
1772094054760696800,3.01669677734375,0.03509775176644325,0.04684450849890709,0.016401397064328194
1772094054770645800,3.026645751953125,0.02514978125691414,0.051400911062955856,0.004908259026706219
1772094054780595000,3.036594970703125,0.006828694604337215,0.05230441689491272,-0.0027635484002530575
1772094054790545000,3.046544921875,-0.014573533087968826,0.05048414319753647,-0.00476384861394763
1772094054800494000,3.056494140625,-0.027484441176056862,0.05150486156344414,-0.003597457427531481
1772094054810443000,3.066443115234375,-0.04077654331922531,0.051548004150390625,-0.005765536334365606
1772094054820392000,3.076391845703125,-0.044024672359228134,0.05464915186166763,-0.00578049011528492
1772094054830340900,3.0863408203125,-0.041755128651857376,0.055986590683460236,-0.001963114831596613
1772094054840291000,3.096291015625,-0.04180528596043587,0.048685286194086075,0.004522899631410837
1772094054850240000,3.106239990234375,-0.04498349875211716,0.04076078534126282,0.01956603117287159
1772094054860189000,3.11618896484375,-0.05393099784851074,0.04251779243350029,0.026112467050552368
1772094054870137900,3.126137939453125,-0.06369628012180328,0.05324926599860191,0.029229164123535156
1772094054880086800,3.136086669921875,-0.07144365459680557,0.061815932393074036,0.029147814959287643
1772094054890036000,3.146035888671875,-0.0711941123008728,0.06473315507173538,0.025652416050434113
1772094054899986000,3.15598583984375,-0.06381263583898544,0.05745047703385353,0.02804233692586422
1772094054909935000,3.16593505859375,-0.04556172341108322,0.03651616722345352,0.02550647407770157
1772094054919884000,3.175884033203125,-0.03228243067860603,0.008444777689874172,0.027643252164125443
1772094054929833000,3.1858330078125,-0.026346508413553238,-0.004368489608168602,0.017024163156747818
1772094054939782000,3.195781982421875,-0.022095059975981712,-0.009406175464391708,-0.0023634303361177444
1772094054949732000,3.205732177734375,-0.026261309161782265,-0.0015663616359233856,-0.022397059947252274
1772094054959681000,3.215680908203125,-0.0378558486700058,0.009678211994469166,-0.03466467559337616
1772094054969630000,3.2256298828125,-0.04442613199353218,0.001333729363977909,-0.02436489798128605
1772094054979579000,3.235578857421875,-0.03580712527036667,-0.010676397010684013,-0.012888539582490921
1772094054989528000,3.245528076171875,-0.023262573406100273,-0.019826220348477364,-0.004770160652697086
1772094054999477800,3.255477783203125,-0.007232425734400749,-0.02156333066523075,-0.004604244139045477
1772094055009427000,3.265427001953125,-0.00213007559068501,-0.02155480906367302,-0.006037557031959295
1772094055019376000,3.275376220703125,-0.00002484489232301712,-0.027092639356851578,-0.004491250030696392
1772094055029325000,3.285324951171875,0.001520054880529642,-0.032194193452596664,-0.007941375486552715
1772094055039274000,3.29527392578125,-0.006578803062438965,-0.03235543519258499,-0.013317348435521126
1772094055049224000,3.305223876953125,-0.011795669794082642,-0.034359727054834366,-0.013415886089205742
1772094055059172900,3.3151728515625,-0.01778578758239746,-0.030172811821103096,-0.014991184696555138
1772094055069121800,3.325121826171875,-0.020873721688985825,-0.022487996146082878,-0.01343749649822712
1772094055079071000,3.335071044921875,-0.017931364476680756,-0.011807780712842941,-0.013516855426132679
1772094055089020000,3.34502001953125,-0.01435127668082714,-0.007603715173900127,-0.004733217880129814
1772094055098969000,3.354968994140625,-0.009220658801496029,-0.011716201901435852,0.0042467317543923855
1772094055108918800,3.364918701171875,-0.005519663915038109,-0.013591598719358444,0.015452515333890915
1772094055118868000,3.374867919921875,-0.005567560903728008,-0.008403848856687546,0.010862136259675026
1772094055128817000,3.38481689453125,-0.007345220539718866,0.007232634350657463,0.006711865775287151
1772094055138766000,3.39476611328125,-0.011753808706998825,0.028890684247016907,0.0034373984672129154
1772094055148715000,3.404715087890625,-0.014755990356206894,0.046762626618146896,0.0030451149214059114
1772094055158665000,3.4146650390625,-0.018160395324230194,0.06105577200651169,0.01015678234398365
1772094055168614000,3.42461376953125,-0.010970926843583584,0.06336046755313873,0.02815815433859825
1772094055178562800,3.434562744140625,0.0027557075954973698,0.05993444472551346,0.046699076890945435
1772094055188511700,3.44451171875,0.013744709081947803,0.052021659910678864,0.06284715980291367
1772094055198461000,3.4544609375,0.02025165967643261,0.04536888375878334,0.06838333606719971
1772094055208411000,3.464410888671875,0.02482803538441658,0.04847892373800278,0.06187057867646217
1772094055218360000,3.474360107421875,0.022608943283557892,0.05041690915822983,0.0443907231092453
1772094055228309000,3.48430908203125,0.024958651512861252,0.05841997638344765,0.02303216978907585
1772094055238258000,3.4942578125,0.02673427015542984,0.06270018965005875,0.0030005211010575294
1772094055248206800,3.504206787109375,0.03191918134689331,0.053361546248197556,-0.013306546956300735
1772094055258157000,3.514156982421875,0.03383013978600502,0.0516129694879055,-0.028461948037147522
1772094055268106000,3.52410595703125,0.03742034733295441,0.05679654702544212,-0.044172998517751694
1772094055278055000,3.534054931640625,0.039848532527685165,0.03542485460639,-0.04331755265593529
1772094055288003800,3.54400390625,0.029006272554397583,0.012726732529699802,-0.0285204965621233
1772094055297952800,3.553952880859375,0.020515935495495796,0.003085060976445675,-0.011017363518476486
1772094055307903000,3.563903076171875,0.003910326864570379,-0.015282494947314262,0.0053360420279204845
1772094055317852000,3.573851806640625,-0.018803728744387627,-0.023061729967594147,0.02709931880235672
1772094055327801000,3.583801025390625,-0.02850189618766308,-0.033593468368053436,0.03383205831050873
1772094055337750000,3.59375,-0.036501191556453705,-0.03532300889492035,0.036675095558166504
1772094055347699000,3.603698974609375,-0.0393126904964447,-0.033563192933797836,0.030706150457262993
1772094055357649000,3.61364892578125,-0.04390362650156021,-0.03864665701985359,0.021671224385499954
1772094055367598000,3.62359814453125,-0.042897216975688934,-0.017787711694836617,0.0009694085456430912
1772094055377547000,3.633547119140625,-0.05454237759113312,-0.005227533169090748,-0.02223246917128563
1772094055387496000,3.643495849609375,-0.06319232285022736,0.00019120052456855774,-0.02844269387423992
1772094055397444900,3.65344482421875,-0.07227716594934464,0.005258130840957165,-0.02079249918460846
1772094055407394000,3.66339404296875,-0.071183942258358,-0.006028079427778721,-0.009398963302373886
1772094055417343700,3.67334375,-0.07049120217561722,-0.006102045997977257,-0.0028174915350973606
1772094055427293200,3.683293212890625,-0.06310413032770157,0.0021465627942234278,-0.0021453099325299263
1772094055437242000,3.6932421875,-0.06462036818265915,0.004217615816742182,-0.00023058056831359863
1772094055447191000,3.70319091796875,-0.06340570002794266,-0.004142579156905413,0.006181778851896524
1772094055457140000,3.713139892578125,-0.060670845210552216,0.0010037305764853954,0.00914302933961153
1772094055467090000,3.72308984375,-0.06225276365876198,-0.00025674328207969666,0.01124958973377943
1772094055477038800,3.733038818359375,-0.06324589997529984,-0.00023902440443634987,0.0019768052734434605
1772094055486987800,3.74298779296875,-0.061557456851005554,0.020746951922774315,-0.010932868346571922
1772094055496937000,3.75293701171875,-0.05908013880252838,0.034708429127931595,-0.01514473371207714
1772094055506886000,3.762885986328125,-0.05379722639918327,0.03233422338962555,0.0023719423916190863
1772094055516835800,3.7728359375,-0.05826636403799057,0.027804948389530182,0.017161769792437553
1772094055526785000,3.782784912109375,-0.05243164300918579,0.026142869144678116,0.020847585052251816
1772094055536734000,3.79273388671875,-0.052300237119197845,0.02455355040729046,0.018762586638331413
1772094055546683000,3.802682861328125,-0.049772098660469055,0.01840936951339245,0.01808241568505764
1772094055556632000,3.812632080078125,-0.046114277094602585,0.011883063241839409,0.013540096580982208
1772094055566582000,3.82258203125,-0.03753304108977318,0.008971164003014565,0.0041388715617358685
1772094055576531000,3.832531005859375,-0.030947759747505188,0.012437835335731506,-0.0027208630926907063
1772094055586479900,3.84247998046875,-0.02987796440720558,0.00773762259632349,-0.011533794924616814
1772094055596428800,3.8524287109375,-0.026395486667752266,0.005387542303651571,-0.016216205433011055
1772094055606377700,3.862377685546875,-0.02353471890091896,0.009355652146041393,-0.014146395027637482
1772094055616327200,3.8723271484375,-0.024126723408699036,0.010779750533401966,-0.005885834340006113
1772094055626276900,3.88227685546875,-0.02137567847967148,0.010479612275958061,0.007639029063284397
1772094055636226000,3.89222607421875,-0.021933209151029587,0.011345511302351952,0.020076561719179153
1772094055646175000,3.902175048828125,-0.012464340776205063,0.008938280865550041,0.027863912284374237
1772094055656124000,3.9121240234375,-0.006789561361074448,0.0005363281816244125,0.035691998898983
1772094055666072800,3.92207275390625,-0.001653389073908329,-0.014317719265818596,0.04533424228429794
1772094055676023000,3.93202294921875,0.002736838534474373,-0.017818495631217957,0.03786015883088112
1772094055685972000,3.941971923828125,-0.004282188601791859,-0.018669109791517258,0.02758461982011795
1772094055695921000,3.9519208984375,-0.0025346619077026844,-0.01816888153553009,0.012995176948606968
1772094055705869800,3.961869873046875,-0.0021018984261900187,-0.02406698279082775,-0.0005254256539046764
1772094055715819000,3.971819091796875,0.0038098194636404514,-0.030608274042606354,-0.011713065207004547
1772094055725768700,3.981768798828125,0.008073007687926292,-0.04157890006899834,-0.02394603006541729
1772094055735718000,3.9917177734375,0.01387223694473505,-0.04298338294029236,-0.024261949583888054
1772094055745666800,4.001666748046875,0.014821122400462627,-0.0603322796523571,-0.023551151156425476
1772094055755615700,4.01161572265625,0.010024805553257465,-0.05757061392068863,-0.017735838890075684
1772094055765565000,4.02156494140625,0.010667426511645317,-0.05456257238984108,-0.012101653963327408
1772094055775515000,4.031514892578125,0.008178019896149635,-0.050621628761291504,-0.006172856781631708
1772094055785463800,4.0414638671875,0.013297947123646736,-0.04320419579744339,-0.007632535416632891
1772094055795412700,4.051412841796875,0.02127932943403721,-0.043526485562324524,-0.001036941073834896
1772094055805361700,4.061361572265625,0.027679970487952232,-0.0359916053712368,0.00986337661743164
1772094055815310600,4.071310546875,0.03482438623905182,-0.028635013848543167,0.012370286509394646
1772094055825260800,4.0812607421875,0.03861459717154503,-0.012055505998432636,0.009822174906730652
1772094055835209700,4.091209716796875,0.03451666235923767,0.002906238427385688,0.012103743851184845
1772094055845159000,4.101158935546875,0.03060181252658367,0.010433129966259003,0.012117058970034122
1772094055855107800,4.11110791015625,0.033386848866939545,0.005113592371344566,0.018426615744829178
1772094055865056800,4.121056884765625,0.03559141233563423,0.0028501718770712614,0.020276445895433426
1772094055875005700,4.131005615234375,0.038361113518476486,0.004346439149230719,0.017175164073705673
1772094055884956000,4.140955810546875,0.03538157045841217,0.00021081604063510895,0.019117139279842377
1772094055894904800,4.15090478515625,0.031110376119613647,0.006318523082882166,0.01694515161216259
1772094055904853800,4.160853759765625,0.024664727970957756,0.013146867975592613,0.013247884809970856
1772094055914802700,4.170802734375,0.018396452069282532,0.018388863652944565,0.0027904764283448458
1772094055924752000,4.180751953125,0.014107431285083294,0.019491946324706078,-0.009992163628339767
1772094055934701800,4.190701904296875,0.017143700271844864,0.01854998618364334,-0.01789296418428421
1772094055944651000,4.200651123046875,0.02206335961818695,0.01596006192266941,-0.014491574838757515
1772094055954600000,4.210599853515625,0.024291567504405975,0.0030780667439103127,-0.005811349488794804
1772094055964548900,4.220548828125,0.02504577487707138,-0.0010287938639521599,0.005103083327412605
1772094055974497800,4.230497802734375,0.017203979194164276,0.000896938145160675,0.000030224677175283432
1772094055984447700,4.24044775390625,0.01319059543311596,0.012354123406112194,-0.006414358504116535
1772094055994397000,4.25039697265625,0.011621318757534027,0.016244415193796158,-0.007168683689087629
1772094056004345900,4.260345947265625,0.010795739479362965,0.01578715071082115,0.00040774326771497726
1772094056014294800,4.270294677734375,0.008050370961427689,0.007900234311819077,0.008614842779934406
1772094056024243700,4.28024365234375,0.005074021872133017,0.005808321759104729,0.015993930399417877
1772094056034193000,4.29019287109375,0.009310107678174973,0.005244760308414698,0.01171092689037323
1772094056044142800,4.300142822265625,0.006250135600566864,0.008835233747959137,0.0064999195747077465
1772094056054092000,4.310092041015625,-0.0013143501710146666,0.012744005769491196,0.0023872554302215576
1772094056064041000,4.320041015625,-0.0057226805947721004,0.007411558646708727,0.0024282680824398994
1772094056073990000,4.329989990234375,-0.007793839555233717,0.00909785833209753,-0.0049949754029512405
1772094056083938800,4.339938720703125,-0.01312602125108242,0.018260730430483818,-0.0037020109593868256
1772094056093888800,4.349888671875,-0.017195625230669975,0.01702234148979187,0.00026081735268235207
1772094056103837700,4.359837646484375,-0.01974879764020443,0.011675514280796051,0.003547957167029381
1772094056113787000,4.369786865234375,-0.019759241491556168,0.010343916714191437,-0.004560117144137621
1772094056123735800,4.37973583984375,-0.019035393372178078,0.008128698915243149,-0.007868828251957893
1772094056133685000,4.38968505859375,-0.011985700577497482,0.012540934607386589,-0.003420439548790455
1772094056143634700,4.399634765625,-0.011834166944026947,0.0080673573538661,-0.002528812736272812
1772094056153583900,4.409583984375,-0.00807869527488947,0.013434957712888718,0.0035662942100316286
1772094056163532800,4.41953271484375,-0.008850479498505592,0.014307942241430283,0.0005265623331069946
1772094056173481700,4.429481689453125,-0.005696957930922508,0.02510879933834076,-0.004593752324581146
1772094056183431000,4.439430908203125,-0.0034836051054298878,0.030963759869337082,-0.008444949984550476
1772094056193380900,4.449380859375,-0.0015776187647134066,0.03195667639374733,-0.009616319090127945
1772094056203329800,4.459329833984375,0.0013531898148357868,0.03286747634410858,-0.003729135263711214
1772094056213278700,4.46927880859375,0.007488988805562258,0.026172876358032227,0.011032618582248688
1772094056223227600,4.4792275390625,0.01086321473121643,0.012931372970342636,0.02102905884385109
1772094056233176800,4.4891767578125,0.010511755011975765,0.013916831463575363,0.017531221732497215
1772094056243126000,4.4991259765625,0.005647758021950722,0.015570121817290783,0.007453287020325661
1772094056253075700,4.50907568359375,0.006161624565720558,0.01799445040524006,0.005311690736562014
1772094056263025000,4.51902490234375,0.0044667888432741165,0.01811349391937256,-0.0007342174649238586
1772094056272973800,4.528973876953125,0.002788427285850048,0.021895747631788254,-0.00011533452197909355
1772094056282922800,4.5389228515625,-0.0007724855095148087,0.025283820927143097,0.007521812338382006
1772094056292871700,4.54887158203125,0.002187830861657858,0.025541866198182106,0.018001273274421692
1772094056302822000,4.55882177734375,0.004075212869793177,0.021869366988539696,0.02334170788526535
1772094056312770800,4.568770751953125,0.0030872784554958344,0.012287719175219536,0.025238148868083954
1772094056322719700,4.5787197265625,0.006196519359946251,0.01712215505540371,0.032285671681165695
1772094056332668700,4.588668701171875,0.009135891683399677,0.015432558953762054,0.02056175284087658
1772094056342617900,4.598617919921875,0.011264024302363396,0.016759345307946205,0.013544056564569473
1772094056352567800,4.60856787109375,0.017323514446616173,0.015804601833224297,0.010438544675707817
1772094056362517000,4.61851708984375,0.017406871542334557,0.011519043706357479,0.005176404025405645
1772094056372466000,4.6284658203125,0.018729204311966896,0.009493054822087288,0.0026564011350274086
1772094056382414800,4.638414794921875,0.021617403253912926,0.004874866455793381,-0.0011146347969770432
1772094056392363800,4.64836376953125,0.02665194496512413,-0.0007764864712953568,-0.0008011749014258385
1772094056402313700,4.658313720703125,0.03129729628562927,-0.00888740923255682,0.0010537169873714447
1772094056412263000,4.668262939453125,0.026492411270737648,-0.011768575757741928,0.0003672633320093155
1772094056422211800,4.6782119140625,0.02716565690934658,-0.011769641190767288,-0.003205899614840746
1772094056432160800,4.688160888671875,0.027583857998251915,-0.008045975118875504,-0.009089052677154541
1772094056442109700,4.698109619140625,0.03243693709373474,-0.0012964592315256596,-0.013518689200282097
1772094056452059600,4.7080595703125,0.03651504963636398,0.0046206577681005,-0.012508051469922066
1772094056462008800,4.7180087890625,0.04386591166257858,0.00788835622370243,0.002185940509662032
1772094056471958000,4.7279580078125,0.04840289056301117,-0.0020984262228012085,0.02241092547774315
1772094056481907000,4.737906982421875,0.06436427682638168,-0.009396819397807121,0.04181019216775894
1772094056491856000,4.74785595703125,0.07839777320623398,-0.025342458859086037,0.05466870218515396
1772094056501805800,4.757805908203125,0.08925627917051315,-0.04133421182632446,0.048977259546518326
1772094056511754800,4.767754638671875,0.09421110153198242,-0.027419354766607285,0.023734187707304955
1772094056521703700,4.77770361328125,0.09067948907613754,-0.0064829145558178425,-0.006374447140842676
1772094056531652900,4.78765283203125,0.08990715444087982,-0.019858211278915405,-0.02146255224943161
1772094056541601800,4.797601806640625,0.08009766787290573,-0.035456880927085876,-0.02723788470029831
1772094056551551000,4.807551025390625,0.07453509420156479,-0.011393852531909943,-0.041559867560863495
1772094056561500700,4.817500732421875,0.07517238706350327,-0.011897189542651176,-0.0380796454846859
1772094056571449900,4.827449951171875,0.06837186962366104,-0.012100441381335258,-0.03674472123384476
1772094056581398800,4.837398681640625,0.05236094072461128,-0.022360268980264664,-0.013671893626451492
1772094056591348000,4.847347900390625,0.05273471772670746,-0.05022108927369118,0.019263459369540215
1772094056601297000,4.857296875,0.04764541983604431,-0.04571901261806488,0.02772245742380619
1772094056611246800,4.867246826171875,0.04195598512887955,-0.01434064470231533,0.028595179319381714
1772094056621195800,4.87719580078125,0.037257369607686996,0.013796184211969376,0.04434351623058319
1772094056631144700,4.887144775390625,0.03604837507009506,0.009346455335617065,0.06859920918941498
1772094056641093600,4.89709375,0.03839755058288574,-0.01117719616740942,0.08689139783382416
1772094056651042800,4.907042724609375,0.04670018330216408,-0.004674824420362711,0.07921150326728821
1772094056660992800,4.91699267578125,0.04628952592611313,-0.010476253926753998,0.06575268507003784
1772094056670942000,4.92694189453125,0.05377446860074997,-0.013948247767984867,0.045113276690244675
1772094056680891000,4.936890869140625,0.0462435781955719,0.0011753120925277472,0.007292927708476782
1772094056690839800,4.94683984375,0.047143060714006424,-0.0026626610197126865,-0.031915340572595596
1772094056700788700,4.956788818359375,0.04625729098916054,-0.012724881991744041,-0.06408978998661041
1772094056710738400,4.966738525390625,0.046899955719709396,-0.008765969425439835,-0.08810758590698242
1772094056720687400,4.976687255859375,0.04896949976682663,0.012028791010379791,-0.11188135296106339
1772094056730636300,4.98663623046875,0.08837585151195526,0.008974181488156319,-0.10378238558769226
1772094056740585200,4.996585205078125,0.12308055907487869,-0.057171016931533813,-0.041510485112667084
1772094056750534400,5.006534423828125,0.1400562971830368,-0.12317731976509094,0.019038422033190727
1772094056760484400,5.016484375,0.15478543937206268,-0.1496877670288086,0.03173264488577843
1772094056770433500,5.02643359375,0.16408517956733704,-0.14356400072574615,0.0025461523327976465
1772094056780382500,5.036382568359375,0.15752607583999634,-0.10404615104198456,-0.02924533374607563
1772094056790331400,5.046331298828125,0.15008272230625153,-0.08699077367782593,-0.05207265540957451
1772094056800280300,5.0562802734375,0.13488273322582245,-0.07823163270950317,-0.05527643859386444
1772094056810230500,5.06623046875,0.1212887093424797,-0.08133754134178162,-0.058496199548244476
1772094056820179500,5.076179443359375,0.115018829703331,-0.0734841451048851,-0.05625355243682861
1772094056830128400,5.08612841796875,0.11078649014234543,-0.06101188808679581,-0.061247169971466064
1772094056840077300,5.096077392578125,0.10742770880460739,-0.0428621768951416,-0.06732610613107681
1772094056850026500,5.106026611328125,0.1044217050075531,-0.028644762933254242,-0.07699684053659439
1772094056859976200,5.11597607421875,0.09695473313331604,-0.012957412749528885,-0.06572128087282181
1772094056869925400,5.12592529296875,0.10257981717586517,-0.010133787989616394,-0.038613151758909225
1772094056879874600,5.13587451171875,0.09108748286962509,-0.0266584362834692,-0.009715992957353592
1772094056889823500,5.145823486328125,0.08392762392759323,-0.02210628055036068,0.010453800670802593
1772094056899772400,5.1557724609375,0.07075083255767822,-0.006964612752199173,0.02316506952047348
1772094056909721300,5.165721435546875,0.06105935946106911,0.007731585763394833,0.027092579752206802
1772094056919671300,5.17567138671875,0.06143859401345253,0.006886565126478672,0.03345220908522606
1772094056929620500,5.185620361328125,0.048825956881046295,0.004968218505382538,0.031203096732497215
1772094056939569400,5.1955693359375,0.041654329746961594,0.012279661372303963,0.025351865217089653
1772094056949518300,5.205518310546875,0.030421610921621323,0.033063799142837524,0.00278899515978992
1772094056959467500,5.215467529296875,0.02341962605714798,0.04196301847696304,-0.026181936264038086
1772094056969417200,5.225417236328125,0.01445134449750185,0.07308383285999298,-0.04765736684203148
1772094056979366400,5.235366455078125,0.010340223088860512,0.06270389258861542,-0.05459596589207649
1772094056989315600,5.245315673828125,0.008106318302452564,0.06228192150592804,-0.061995748430490494
1772094056999264500,5.255264404296875,0.0054863011464476585,0.07250846177339554,-0.0785270556807518
1772094057009213400,5.26521337890625,-0.00854145735502243,0.05736846476793289,-0.10139793902635574
1772094057019163400,5.275163330078125,-0.04157903417944908,0.09229476004838943,-0.11594811826944351
1772094057029112300,5.2851123046875,-0.03667834401130676,0.08104214072227478,-0.11551737040281296
1772094057039061200,5.295061279296875,-0.021040791645646095,0.04518534243106842,-0.08763514459133148
1772094057049010400,5.305010498046875,-0.023541050031781197,0.014979945495724678,-0.05941598117351532
1772094057058959400,5.31495947265625,-0.012365094386041164,0.032770659774541855,-0.04787543788552284
1772094057068909300,5.324909423828125,-0.004466954618692398,0.04632716253399849,-0.03816680610179901
1772094057078858500,5.3348583984375,-0.012282267212867737,-0.0025216047652065754,0.003397945547476411
1772094057088807400,5.344807373046875,0.006060608197003603,-0.03904655575752258,0.06285891681909561
1772094057098756400,5.35475634765625,0.0040235561318695545,-0.04178508371114731,0.06699533760547638
1772094057108705500,5.36470556640625,-0.005355564411729574,-0.04136031121015549,0.04083004593849182
1772094057118655500,5.374655517578125,-0.009028330445289612,-0.023238031193614006,0.0007950100116431713
1772094057128604400,5.3846044921875,-0.018188536167144775,-0.011753527447581291,-0.024842556565999985
1772094057138553300,5.39455322265625,-0.019387755542993546,-0.015733355656266212,-0.0338461734354496
1772094057148502300,5.404502197265625,-0.007643083110451698,-0.013848264701664448,-0.03971760347485542
1772094057158451200,5.414451171875,-0.0018104943446815014,0.008535337634384632,-0.04652544483542442
1772094057168401400,5.4244013671875,-0.006654084660112858,0.02612868696451187,-0.04519108682870865
1772094057178350300,5.434350341796875,0.000571603886783123,0.01744731143116951,-0.031826816499233246
1772094057188299500,5.444299560546875,0.010918703861534595,0.016089754179120064,-0.004179888404905796
1772094057198248400,5.45424853515625,0.01706501469016075,0.014257765375077724,0.02098219096660614
1772094057208197400,5.464197265625,0.014382719993591309,0.003167743096128106,0.03539746254682541
1772094057218147600,5.474147705078125,0.019343122839927673,0.009809667244553566,0.029796835035085678
1772094057228096500,5.484096435546875,0.014775759540498257,0.007759918458759785,0.008727921172976494
1772094057238045400,5.49404541015625,0.01359544787555933,-0.00432923436164856,-0.015278611332178116
1772094057247994400,5.503994384765625,0.013378971256315708,0.015174126252532005,-0.036310356110334396
1772094057257943300,5.513943359375,-0.002557650674134493,0.0512639544904232,-0.049609918147325516
1772094057267893200,5.523893310546875,-0.017331009730696678,0.04330888018012047,-0.04447542130947113
1772094057277842400,5.533842529296875,-0.019770732149481773,0.041125088930130005,-0.01883477345108986
1772094057287791600,5.54379150390625,-0.013789039105176926,0.02918345108628273,0.009838990867137909
1772094057297740500,5.553740478515625,-0.00822063535451889,0.005310076754540205,0.026348460465669632
1772094057307689500,5.563689453125,0.008927635848522186,-0.010747700929641724,0.03195536509156227
1772094057317639400,5.573639404296875,0.007124941796064377,-0.014653492718935013,0.02646792121231556
1772094057327588400,5.58358837890625,0.00006490293890237808,-0.019046811386942863,0.005752747878432274
1772094057337537300,5.593537353515625,-0.007938961498439312,-0.0014435835182666779,-0.02007884904742241
1772094057347486500,5.603486572265625,-0.02130674198269844,0.00611014012247324,-0.03847543150186539
1772094057357435400,5.613435302734375,-0.02430412918329239,0.013258330523967743,-0.03608125075697899
1772094057367385300,5.62338525390625,-0.019193168729543686,0.01245025172829628,-0.02117082104086876
1772094057377334300,5.633334228515625,-0.015955299139022827,0.012377280741930008,0.0009901407174766064
1772094057387283200,5.643283203125,-0.00642242468893528,0.009762037545442581,0.015891171991825104
1772094057397232400,5.653232421875,-0.003980572335422039,0.026495210826396942,0.015176380053162575
1772094057407181600,5.663181640625,-0.004047150257974863,0.04397870972752571,-0.00004879338666796684
1772094057417131500,5.673131591796875,-0.008662940934300423,0.045926813036203384,-0.005109065677970648
1772094057427080400,5.68308056640625,-0.011264096014201641,0.04121464490890503,0.0017764954827725887
1772094057437029400,5.693029296875,-0.011236399412155151,0.030963072553277016,0.008151570335030556
1772094057446978300,5.702978271484375,-0.008395739831030369,0.02632235363125801,0.0037430105730891228
1772094057456927200,5.71292724609375,-0.011808314360678196,0.03659816086292267,-0.006159954238682985
1772094057466877400,5.72287744140625,-0.01232798583805561,0.031589262187480927,-0.009635260328650475
1772094057476826400,5.732826416015625,-0.005690856371074915,0.01771792396903038,-0.002627684734761715
1772094057486775300,5.742775390625,0.003788047470152378,-0.004044245928525925,0.008685803040862083
1772094057496724500,5.752724365234375,0.0013336781412363052,-0.02352100796997547,0.002645221073180437
1772094057506673400,5.76267333984375,0.004001010674983263,-0.019946705549955368,-0.0043684025295078754
1772094057516623600,5.77262353515625,-0.004062508698552847,-0.02993915230035782,-0.007858209311962128
1772094057526572500,5.782572509765625,-0.006099872291088104,-0.030990861356258392,-0.02133350446820259
1772094057536521500,5.792521484375,-0.006427440792322159,-0.023180343210697174,-0.02589762955904007
1772094057546470400,5.802470458984375,-0.011133776977658272,-0.02245371788740158,-0.00864235870540142
1772094057556419300,5.81241943359375,-0.006328902207314968,-0.04543440043926239,0.029123397544026375
1772094057566369300,5.822369384765625,0.000075511634349823,-0.058892615139484406,0.05235467851161957
1772094057576318500,5.832318359375,-0.0028531665448099375,-0.016215994954109192,0.046082936227321625
1772094057586267400,5.842267333984375,0.0039090863429009914,-0.0013022078201174736,0.05594797059893608
1772094057596216300,5.85221630859375,0.01294519193470478,0.0001771780662238598,0.05950621888041496
1772094057606165500,5.86216552734375,0.010871699079871178,0.011357156559824944,0.04592299833893776
1772094057616115500,5.872115478515625,-0.0025042928755283356,0.04279683902859688,0.01987195573747158
1772094057626064400,5.882064453125,-0.028805099427700043,0.05822848901152611,0.008236642926931381
1772094057636013600,5.892013671875,-0.043206676840782166,0.07226148992776871,0.002922837156802416
1772094057645962500,5.90196240234375,-0.04604493826627731,0.07612395286560059,-0.004787134937942028
1772094057655911400,5.911911376953125,-0.03368707373738289,0.07473351806402206,-0.00006455136463046074
1772094057665861400,5.921861328125,-0.01700666919350624,0.07627133280038834,0.018788544461131096
1772094057675810300,5.931810302734375,-0.008956466801464558,0.07474508136510849,0.02688082493841648
