time,seconds_elapsed,z,y,x
1772094394584456000,0.0734560546875,0.5167003993481397,0.15732582017481325,0.22398853239957242
1772094394594404900,0.08340478515625,0.5951069965869188,0.05775631565898656,0.2660271823090501
1772094394604355000,0.09335498046875,0.6488210511177778,-0.06459361433312297,0.20033199994219467
1772094394614304000,0.103303955078125,0.6770464441269636,-0.16448752849772572,0.18010394409615546
1772094394624254000,0.11325390625,0.5231991137176751,-0.22458470819443463,0.01877299819951877
1772094394634204000,0.123203857421875,0.32773031763136384,-0.20470000415965914,-0.24427056518886237
1772094394644152800,0.13315283203125,0.2642290285795927,-0.1061382153816521,-0.29724666083399204
1772094394654103000,0.14310302734375,0.3466606435507536,-0.02882306664139032,-0.22537209571246056
1772094394664053000,0.153052978515625,0.5132201560169458,0.006445230616629123,-0.1278606197049841
1772094394674002000,0.163001953125,0.6620236470401286,0.02593611302822828,-0.03528116815603571
1772094394683952000,0.1729521484375,0.7979992206722497,0.021133681182563303,0.06621151155827101
1772094394693902000,0.182902099609375,0.8364894025862216,-0.009911299291998148,0.16782927667368203
1772094394703851000,0.19285107421875,0.7973843036442995,-0.0029031740956008433,0.19619314657179637
1772094394713801000,0.202801025390625,0.670885583409667,0.06030804596841335,0.1186904028375633
1772094394723751200,0.212751220703125,0.5387509031146764,0.169069303330034,0.07609864908996969
1772094394733700000,0.2227001953125,0.4394184222251177,0.27290713281482454,0.04743090087445453
1772094394743650000,0.232650146484375,0.41501580237448216,0.3417942065581679,-0.037745062635093925
1772094394753600000,0.24260009765625,0.3824076642364263,0.38975305856317277,-0.083499271602137
1772094394763549200,0.252549072265625,0.38574703779220576,0.38611996275782584,-0.13651766288587822
1772094394773499100,0.2624990234375,0.4831821606278419,0.3867471547454595,-0.18744163004048167
1772094394783448800,0.27244873046875,0.6397159536421299,0.4049382066048681,-0.20417196169756352
1772094394793398000,0.28239794921875,0.8635410756409168,0.43599166264683004,-0.18498561519049106
1772094394803348000,0.292347900390625,1.1547808607429266,0.49342970613688225,-0.11400137737165204
1772094394813297200,0.302297119140625,1.3171189561218022,0.5258404220066965,0.010904803841374815
1772094394823246800,0.312246826171875,1.483571501082182,0.586803570882976,0.12398127578729763
1772094394833197000,0.322197021484375,1.7674767055124043,0.7557510013990104,0.15224577696416527
1772094394843146000,0.33214599609375,2.033454623585939,0.9061848701030015,0.1151021782204043
1772094394853096000,0.342095947265625,2.3374860857218502,0.987984909172356,0.040442868618015194
1772094394863046000,0.3520458984375,2.649783856421709,1.030498793644458,-0.031175365388579665
1772094394872994800,0.361994873046875,2.801763054871559,1.0975248958215116,-0.03349205396627076
1772094394882945000,0.371945068359375,2.71309926751256,1.1891343812435864,-0.015691508394945413
1772094394892895000,0.38189501953125,2.908743420165777,1.3059947739087043,-0.029031772922049275
1772094394902844000,0.391843994140625,3.2723610437363386,1.2961376890219747,-0.11647514707404188
1772094394912794000,0.401794189453125,3.6439544684916734,1.271849343200773,-0.13433690304700285
1772094394922744000,0.411744140625,3.8371056352853774,1.2369172921597957,-0.1633992218043655
1772094394932693000,0.42169287109375,3.819337923404574,1.044322151813656,-0.25839213911965486
1772094394942643000,0.431642822265625,3.646759589040279,0.6843865777567029,-0.3031637941895984
1772094394952593200,0.44159326171875,3.377753847578168,0.35002456702589985,-0.31632943736873564
1772094394962542000,0.4515419921875,2.599157831034064,0.0008690379194915294,-0.3764194201396778
1772094394972492000,0.461491943359375,1.2106225749522448,-0.46902255624160166,-0.4161396187726408
1772094394982441000,0.47144091796875,-0.14279285243153572,-0.9456659627504647,-0.07619220912493765
1772094394992391200,0.48139111328125,-1.4665356106072664,-1.3438976574540138,0.5333228867165744
1772094395002341000,0.491341064453125,-3.3309330596923825,-1.7091969505012035,0.880241377485916
1772094395012290000,0.5012900390625,-5.506461573785543,-1.925962947768718,0.6489752187661826
1772094395022240000,0.511239990234375,-7.491752178183198,-1.869707245931029,0.020543647434120064
1772094395032190200,0.521190185546875,-8.997136867144704,-1.682968284267187,-0.8250282435037195
1772094395042139100,0.53113916015625,-10.154971270239352,-1.451157424211502,-1.514207462364435
1772094395052089000,0.541089111328125,-10.746409222924708,-1.204527472947538,-1.8406793043673038
1772094395062039000,0.5510390625,-10.160402647638321,-1.0713688564322887,-1.9645888848915696
1772094395071988200,0.56098828125,-8.775041345417499,-1.1822775010861455,-2.002683491616696
1772094395081938000,0.57093798828125,-7.521127325749397,-1.54032258522138,-1.8683742437615989
1772094395091887000,0.58088720703125,-6.74990271475613,-2.017219820360839,-1.6519960767678916
1772094395101837000,0.590837158203125,-6.1280368905812495,-2.5440125746563074,-1.3251213530525565
1772094395111787000,0.600787109375,-5.5735582569807764,-2.969158725900948,-0.8215053300745785
1772094395121736000,0.61073583984375,-5.141394920450448,-3.126706956654787,-0.3164931765630841
1772094395131686000,0.620685791015625,-4.736700021082163,-3.103621849143505,0.026363617725297807
1772094395141636000,0.630635986328125,-4.282690178924799,-3.028808307960629,0.22290238113068042
1772094395151585000,0.6405849609375,-3.7430326823592184,-2.7872610667884348,0.3165552820138633
1772094395161535000,0.650534912109375,-3.4117268443286415,-2.541527479842305,0.15074147334843874
1772094395171485200,0.660485107421875,-3.074288787153363,-2.2833944300502536,-0.16569478539563715
1772094395181434000,0.67043408203125,-2.7609330318331717,-1.863278966449201,-0.46604193299561736
1772094395191384000,0.680384033203125,-2.395975684091449,-1.2169709210656583,-0.5751924819357693
1772094395201334000,0.690333984375,-1.591441508692503,-0.3820873462408781,-0.5530020582418889
1772094395211283000,0.700282958984375,-0.9638140522509813,0.4772897415883839,-0.18315525795817375
1772094395221233200,0.710233154296875,-0.2940793924421072,1.225982056647539,0.3993364410750568
1772094395231182000,0.72018212890625,0.5353396333664655,1.7150770945809781,0.8805428446505218
1772094395241132000,0.730132080078125,0.9197188899368047,2.012114752306789,1.3057815695494412
1772094395251082200,0.740082275390625,1.2227256852000952,2.2000945078119636,1.3966136408582328
1772094395261031200,0.75003125,1.7382634705096482,2.2854516548410055,1.1656080327708274
1772094395270981000,0.759981201171875,2.375260812842846,2.382432165776938,0.9078870709110051
1772094395280931000,0.76993115234375,3.041216538634896,2.530125211340189,0.9412449314378202
1772094395290880000,0.7798798828125,3.774039230519533,2.6279934648960825,1.1463934100173414
1772094395300830200,0.789830322265625,4.596768987822532,2.656688228982687,1.2563532295137643
1772094395310780200,0.7997802734375,5.5460126629292965,2.5965847656756638,1.1606881850905715
1772094395320729000,0.80972900390625,6.489292461195587,2.285521797467768,1.1266527906283736
1772094395330679300,0.81967919921875,7.053281265941262,1.8632475483976303,1.1783632502518593
1772094395340628200,0.829628173828125,7.429186708676815,1.4967444325186312,1.1726936071176082
1772094395350578200,0.839578125,7.835719344866275,1.2118321699377148,1.165282527143508
1772094395360528000,0.84952783203125,8.182374143198132,0.9828672738976776,1.1401211978800594
1772094395370477300,0.859477294921875,8.298601060265302,0.7893607177950441,1.0241408759851007
1772094395380427000,0.869427001953125,8.185549850624799,0.6555240558877586,0.8677852890819311
1772094395390377000,0.879376953125,7.623895626306533,0.5977347147420048,0.792564043880999
1772094395400326000,0.889325927734375,6.792212747219205,0.5771497534833848,0.4130699290037155
1772094395410276000,0.899276123046875,6.036506023353338,0.5943437571294605,-0.13578443497419357
1772094395420226000,0.90922607421875,5.612230225202441,0.6198791804023087,-0.6008953707300126
1772094395430175000,0.919175048828125,5.53507742741704,0.7390396667033433,-0.851401140514016
1772094395440125000,0.929125,5.366717587530613,0.9838545313693583,-1.1399956718042492
1772094395450075100,0.9390751953125,4.828120998194813,1.078932861945778,-1.6697388003379106
1772094395460024000,0.949024169921875,4.075872305828333,0.9740542912364005,-1.932715198507905
1772094395469974000,0.95897412109375,3.3280151264190674,0.8313707443982362,-1.7235735586389898
1772094395479923000,0.9689228515625,2.3764848016798497,0.6866575914286077,-1.2352560809493065
1772094395489873200,0.978873046875,1.252993397691846,0.5372042581945657,-0.663146659720689
1772094395499823000,0.988822998046875,0.23040800752043722,0.4284947310201824,-0.4175302694134414
1772094395509772000,0.99877197265625,-0.7668260837733745,0.475791904246062,-0.4831469431839883
1772094395519722000,1.008721923828125,-1.6151415332317351,0.6149712423555552,-0.7527113414421677
1772094395529672200,1.018672119140625,-2.0604764860242604,0.74341013687253,-1.087735761604458
1772094395539621000,1.02862109375,-1.8396534684509038,0.5291058535434305,-1.068922486193478
1772094395549571000,1.038571044921875,-1.4984516748279333,-0.535687423890829,-0.7178843582108616
1772094395559521300,1.048521240234375,-0.9854045372903346,-1.9088393790103495,-0.6473809353120624
1772094395569470200,1.05847021484375,-0.9227595728069543,-3.323446503329277,-0.8902566486090421
1772094395579420200,1.068420166015625,-1.3777765461802483,-4.408703161469101,-1.587698961163312
1772094395589370000,1.0783701171875,-3.079557667466998,-5.323835892659425,-1.8727258630998431
1772094395599319000,1.088319091796875,-5.71286794347167,-5.30562452866435,-1.4881863014012575
1772094395609269200,1.098269287109375,-8.032082459443806,-4.497945333237946,-0.7564804847173392
1772094395619218200,1.10821826171875,-8.73406519190669,-3.2688287779569625,-0.41384661246463655
1772094395629168000,1.118168212890625,-8.167359529417753,-1.1172200686335563,-0.13168372165709732
1772094395639118000,1.1281181640625,-7.738495818954706,0.47315041329395024,0.30133579331114885
1772094395649067300,1.1380673828125,-7.63292824306786,1.0225866322804242,0.2815424208216369
1772094395659017000,1.148016845703125,-6.993994379714131,1.0239062635116278,0.31072073064148426
1772094395668967000,1.157966796875,-6.458405740022659,0.7901005763769149,0.7082942536972463
1772094395678916000,1.167916015625,-5.348338465753197,0.5469893007583916,1.2129688458174466
1772094395688866000,1.177865966796875,-3.971714596739411,0.3758632840942591,1.726847319612652
1772094395698815200,1.187815185546875,-2.668819396281242,0.12773728558626024,2.0038003668174147
1772094395708765000,1.197764892578125,-1.3665385283291338,0.14233224918246268,2.18590874607116
1772094395718715100,1.207715087890625,-0.14589724818766117,0.23526121970526873,2.242444433894008
1772094395728664000,1.2176640625,0.8697364231497049,0.14401757192090153,2.172565572634339
1772094395738614000,1.227614013671875,1.6188684448003767,0.048336087819561356,2.036431593570113
1772094395748564000,1.23756396484375,2.2129349924236537,0.04165244533717632,1.8795041250631213
1772094395758513000,1.247512939453125,2.5653800645947453,0.14964118395633993,1.6893446874313056
1772094395768463000,1.257463134765625,2.7658026836961507,0.3381646909493953,1.3891034113585947
1772094395778413000,1.2674130859375,3.021237580445409,0.5882109534628689,1.0592596087045967
1772094395788362000,1.277362060546875,3.2413609253168105,0.7869238460369408,0.8005944978624582
1772094395798312200,1.287312255859375,3.4752193655520673,0.8934820403963327,0.5427889264591038
1772094395808261000,1.29726123046875,3.686437519434094,0.9200301478430628,0.3819801595393568
1772094395818211000,1.307211181640625,3.771809864032268,0.853950824996829,0.3095729488458484
1772094395828161000,1.3171611328125,3.8700282462000843,0.7514685017742216,0.2612099364867434
1772094395838110000,1.32710986328125,3.92302100071907,0.6332799292452633,0.1896595252856612
1772094395848060200,1.33706005859375,3.8179257185190916,0.5444686962395906,0.12204382318500429
1772094395858010000,1.347010009765625,3.5737680025875567,0.5235179704084992,0.011093640944361686
1772094395867959000,1.356958984375,3.414037459358573,0.5231310169175267,-0.19445969210900366
1772094395877909200,1.3669091796875,3.334807855299115,0.5272244237110019,-0.4106498257173225
1772094395887859200,1.376859130859375,3.316752558648586,0.49358752704709763,-0.556648744181171
1772094395897808100,1.38680810546875,3.146919139078259,0.4275627108670771,-0.5925084314610809
1772094395907758000,1.396758056640625,2.886678887873888,0.3575755669273436,-0.6517487751327454
1772094395917707000,1.40670703125,2.551747845083475,0.287816094263643,-0.6678019381806254
1772094395927657200,1.4166572265625,2.1893425199121235,0.3148728818848729,-0.6208861654877662
1772094395937607200,1.426607177734375,1.8702064276248216,0.37186025899797676,-0.5667284953752533
1772094395947556000,1.43655615234375,1.7929560146838426,0.3803969089359045,-0.42492764965575186
1772094395957506300,1.44650634765625,1.836158027550578,0.3123378104493022,-0.21017587828747927
1772094395967456000,1.4564560546875,1.933130793571472,0.2105344094015658,0.05245842844657599
1772094395977405200,1.4664052734375,2.207488417455554,0.12528759087920188,0.1530668840887025
1772094395987355000,1.47635498046875,2.549412680134177,0.11426087769120931,-0.010316592157259583
1772094395997305000,1.48630517578125,2.582232999718189,0.1661987163297832,-0.2701596972702071
1772094396007254000,1.49625390625,2.3286358397901057,0.2464168930351734,-0.4341421623226255
1772094396017204000,1.506203857421875,1.9284867671579122,0.24582243427336214,-0.48819827175680547
1772094396027153000,1.51615283203125,1.4888245993047953,0.12053484339416026,-0.5477804511360824
1772094396037103000,1.52610302734375,1.0790116262704132,-0.05371230096518993,-0.7410865162305533
1772094396047053000,1.536052978515625,0.5261977110117674,-0.03856383167207241,-1.0647484153792262
1772094396057002000,1.546001953125,-0.5859656587541103,0.14396891047358512,-1.5093910019934176
1772094396066947800,1.55594775390625,-2.246782316967845,0.3704584293760359,-1.7100990139074623
1772094396076897800,1.565897705078125,-4.065743710523844,0.518297167020291,-1.341921973466873
1772094396086847000,1.575846923828125,-6.192676828274131,0.40874972771704193,-0.5129787484765053
1772094396096797000,1.585796875,-8.536977270185947,0.06616027912795543,0.4738974322689697
1772094396106747000,1.595746826171875,-10.715005199879407,-0.37595863422751424,0.9500750113643706
1772094396116695800,1.60569580078125,-12.43313715198636,-0.6522095245122909,0.6247331232395023
1772094396126646000,1.61564599609375,-13.45279233392477,-0.4559907868415117,-0.20601207313891498
1772094396136595000,1.625594970703125,-13.32634622066021,0.053357350047677755,-0.908708397231251
1772094396146545000,1.635544921875,-11.814319024944306,0.32571240193769335,-1.14663832468912
1772094396156494800,1.645494873046875,-9.479574931406974,0.07339417590424419,-1.0057741022326052
1772094396166444000,1.655444091796875,-7.301102765077352,-0.6229673556759953,-0.7926653122983872
1772094396176394000,1.66539404296875,-5.622756295391917,-1.4311045240029692,-0.6005547405987978
1772094396186344000,1.675343994140625,-4.228798429739475,-2.1347152960591016,-0.45607831899449225
1772094396196292900,1.68529296875,-3.075840692770481,-2.626951846888661,-0.4188372603587806
1772094396206243000,1.6952431640625,-2.103728767773509,-2.8547207380771633,-0.3940796895906329
1772094396216192000,1.70519189453125,-1.280617317676544,-2.85707694581449,-0.5389606003426015
1772094396226142000,1.715141845703125,-0.5588263074159622,-2.5206512805521486,-0.8577785665914416
1772094396236092000,1.725091796875,0.388130133536458,-1.7979187516577542,-1.0031472608603536
1772094396246041000,1.735041015625,1.7833219248980283,-1.030489441294223,-0.7404837280318141
1772094396255991000,1.744990966796875,3.261880566254258,-0.504151152767986,-0.2103704510115087
1772094396265941000,1.75494091796875,4.53530241946876,-0.10470657514333724,0.314189137404412
1772094396275890000,1.764889892578125,5.488813104370236,0.2502592476770282,0.6509438154254108
1772094396285840100,1.774840087890625,6.132011639431119,0.4568092636175453,0.7758245790693908
1772094396295790000,1.7847900390625,6.406850324830413,0.577057252894342,0.8187940252892673
1772094396305739000,1.794739013671875,6.301876623183489,0.7357165136300027,1.053762399527803
1772094396315689000,1.80468896484375,6.074820848700404,1.0416169845081866,1.1832850706934928
1772094396325638100,1.81463818359375,5.886898814731836,1.4476000239908695,1.1816392031826077
1772094396335588000,1.824588134765625,5.723397520792484,1.8713386465251445,1.2169206521831453
1772094396345537800,1.834537841796875,5.653534880015254,2.137155821079016,1.2095151982322334
1772094396355487000,1.844487060546875,5.594833684721589,2.205421840314567,1.2373276265263558
1772094396365437000,1.85443701171875,5.550317082124948,2.0379532501794397,1.385747963450849
1772094396375387000,1.864386962890625,5.5725750911623235,1.7435682989194987,1.6961206113070249
1772094396385335800,1.874335693359375,5.808323875188827,1.39736051370278,2.074703456558287
1772094396395285800,1.88428564453125,6.230127730268239,1.0518078313939272,2.392036006554961
1772094396405235000,1.89423486328125,6.4380164474666115,0.7141925179556011,2.6784201683193443
1772094396415185000,1.904184814453125,6.233517957228422,0.3550320199243724,2.8960587106376883
1772094396425134800,1.914134765625,5.8646185938626525,-0.034304128400981425,2.829131538790464
1772094396435083800,1.924083740234375,5.531653298187256,-0.3995595823064446,2.5067536881029606
1772094396445034000,1.934033935546875,4.947866737037897,-0.6583947890184819,1.9216300331309437
1772094396454984000,1.94398388671875,3.8611335766047237,-0.8664389890395104,0.9701837334133684
1772094396464932900,1.953932861328125,2.596552616971731,-1.1236708522081373,-0.19757782412953673
1772094396474882800,1.9638828125,1.52080028475821,-1.2227477509014308,-1.1490198860634118
1772094396484833000,1.9738330078125,0.696702746233344,-1.0224768152303993,-1.767078353844583
1772094396494782000,1.983781982421875,0.17297931638062,-0.5410958588056266,-2.119442031342536
1772094396504732000,1.99373193359375,-0.21923662516474723,0.06557195784598588,-2.10526094577685
1772094396514680800,2.003680908203125,-0.6068079557746648,0.4536046223573386,-1.8445545383654534
1772094396524631000,2.013631103515625,-1.0716600944638253,0.39728754572123287,-1.5090337129883467
1772094396534581000,2.0235810546875,-1.7098767494589089,-0.009597995559126138,-1.178472994236648
1772094396544530000,2.033530029296875,-2.5539345414727923,-0.4817714170470834,-0.8066304170258343
1772094396554480000,2.043480224609375,-3.40874636721313,-0.8372652092643081,-0.4830523967683315
1772094396564430000,2.05343017578125,-3.8997880091696975,-0.8461104867599905,-0.3510390047654509
1772094396574379000,2.06337890625,-4.054329167062044,-0.5146101490706205,-0.4561656319517642
1772094396584329000,2.073328857421875,-4.293427846038341,-0.08914894052743912,-0.6999443585030735
1772094396594279200,2.083279052734375,-4.671883557778597,0.283397985560447,-0.7797229747474194
1772094396604228000,2.09322802734375,-4.962159466284513,0.3913441271468997,-0.8013541571233421
1772094396614178000,2.103177978515625,-5.251116108885407,0.20612287656962872,-0.8714462227422743
1772094396624127000,2.113126953125,-5.4826826387912035,-0.06304141645506024,-0.84911164133735
1772094396634077200,2.1230771484375,-5.549876937142014,-0.23579744547381995,-0.7408497848652302
1772094396644027000,2.13302685546875,-5.400845482581854,-0.3119449386741966,-0.7233955228477716
1772094396653976000,2.14297607421875,-4.893301618635654,-0.29483313341885803,-0.6477274106621742
1772094396663925800,2.15292578125,-4.255557257327437,-0.3251791718438268,-0.5267212964944541
1772094396673876000,2.1628759765625,-3.621056992506981,-0.46977644334882496,-0.37263591954559083
1772094396683825000,2.172824951171875,-2.9680986954540014,-0.7074428244996815,-0.25874592099338767
1772094396693774800,2.18277490234375,-2.3383231210678814,-0.9561113689191639,-0.17416121964156628
1772094396703724000,2.19272412109375,-1.7726339421451092,-1.071006014469266,-0.028816344639658927
1772094396713674000,2.202674072265625,-1.3445458922296762,-1.0817845981150864,0.059658349888026714
1772094396723624000,2.2126240234375,-1.2120061382651328,-1.0175166355397551,0.12582315906062722
1772094396733572900,2.22257275390625,-0.9625093993932008,-0.9040838061705231,0.15283362332209943
1772094396743522800,2.232522705078125,-0.647524581566453,-0.7302482382867485,0.1617681865364313
1772094396753473000,2.24247314453125,-0.38421149878799915,-0.5240179558198899,0.19174824119322
1772094396763422000,2.252421875,0.03823474584817886,-0.3075806790500879,0.22732728490084408
1772094396773372000,2.262371826171875,0.5022586170196532,-0.12167743755802511,0.2917415240790695
1772094396783320800,2.27232080078125,0.9150684337824583,0.020255290912836788,0.39671471426934
1772094396793271000,2.28227099609375,1.2928174585580825,0.12932422598414123,0.45602512750253077
1772094396803221000,2.292220947265625,1.6967103938937187,0.24831498174145816,0.38137963636294003
1772094396813170000,2.302169921875,2.0533616855829955,0.35013036548793314,0.3214398391850293
1772094396823120000,2.312119873046875,2.487121351394057,0.4445587077230215,0.4208036650609225
1772094396833070000,2.322070068359375,3.006111907505989,0.518112750364095,0.543195534498617
1772094396843019000,2.33201904296875,3.544018761011958,0.5649971780706197,0.6483385282978416
1772094396852969000,2.341968994140625,3.978958576518297,0.6079395170878619,0.7448399504799396
1772094396862919000,2.3519189453125,4.2265597109019755,0.656114349931106,0.8271156442370265
1772094396872868000,2.3618681640625,4.285749566495419,0.6470515572272241,0.9341418214343488
1772094396882818000,2.371818115234375,4.2573879798859355,0.5902078263685107,1.0163828092042355
1772094396892767000,2.38176708984375,4.284718469882011,0.5060993642263114,1.026840051941201
1772094396902717000,2.391717041015625,4.411106715479493,0.49763461048081514,0.9309020357955247
1772094396912667100,2.401667236328125,4.383576903519034,0.550299886611104,0.736991648132354
1772094396922616000,2.411615966796875,4.181050590136647,0.5889123797304928,0.5429547114800661
1772094396932566000,2.42156591796875,3.857884803941846,0.5488062870524824,0.3828440828923136
1772094396942516000,2.431515869140625,3.4445307972997425,0.4498240809053182,0.2971293545972556
1772094396952465200,2.441465087890625,3.1266128486305473,0.4095120903916657,0.26891039132885636
1772094396962415000,2.4514150390625,2.757121949112415,0.42609205379262566,0.15222162890359758
1772094396972364000,2.461364013671875,2.3568442816644906,0.43693683454245325,0.06462006394863128
1772094396982314000,2.47131396484375,2.0541075355142353,0.41700493036508557,0.10303060475513338
1772094396992264000,2.481263916015625,1.8946715913176535,0.4304973030142486,0.09429024893864989
1772094397002213000,2.491213134765625,1.8043682200580835,0.5157828461118042,0.012550013765133917
1772094397012162800,2.501162841796875,1.6780021862924097,0.7005133905626834,-0.21269184316378087
1772094397022112800,2.51111279296875,1.4305308157682417,0.8980686375342309,-0.3956567296490073
1772094397032062000,2.52106201171875,1.0429735136836766,0.9696990186363458,-0.41787108220774677
1772094397042012000,2.531011962890625,0.7126385665118694,0.8659493058264255,-0.32931612551808354
1772094397051961900,2.5409619140625,0.4405149852901697,0.716223731522262,-0.05838111476013436
1772094397061910800,2.550910888671875,0.2575134565889835,0.6962871511697769,0.20495684673124923
1772094397071861800,2.56086181640625,-0.09858663095831871,0.7413409293830394,0.19243987671919166
1772094397081810700,2.570810791015625,-0.7850035454988479,0.8032999574288725,-0.11326883444655686
1772094397091760600,2.5807607421875,-1.3678198003113269,0.8281000521644949,-0.36468108808360994
1772094397101710800,2.5907109375,-1.6235048724293708,0.7820547786958515,-0.4621893492206931
1772094397111659800,2.60065966796875,-1.908876642280817,0.5988210486739873,-0.4652307262105867
1772094397121609700,2.610609619140625,-2.5450696824938057,0.2487938512995839,-0.5079181040860712
1772094397131559700,2.6205595703125,-3.664005907395482,-0.3129765467442572,-0.5767118735227733
1772094397141508900,2.6305087890625,-5.126959567862749,-1.0573600586935876,-0.441811272178404
1772094397151458800,2.640458740234375,-6.586769669607281,-1.8740671947062015,-0.21909683310156686
1772094397161407700,2.65040771484375,-7.990204973179101,-2.5599019254446027,-0.19441212664023041
1772094397171357700,2.660357666015625,-9.35904768679738,-2.9498113436132667,-0.38597569544892757
1772094397181308000,2.670307861328125,-10.180535919606685,-2.942300529591739,-0.6291198869563639
1772094397191256800,2.6802568359375,-10.246208122956752,-2.688057765236497,-0.7668765718515962
1772094397201206800,2.690206787109375,-10.04367128818035,-2.417973727018386,-0.8326818269968033
1772094397211156500,2.700156494140625,-9.960685546457768,-2.6569547709643837,-1.142572317359224
1772094397221106000,2.71010595703125,-9.908774157434701,-3.167233612832427,-1.500508899618685
1772094397231055600,2.7200556640625,-9.362856431430577,-3.7718303222984075,-1.4934062280066311
1772094397241005600,2.730005615234375,-8.436698448356985,-4.411965962657332,-1.5403788454532623
1772094397250954800,2.739954833984375,-7.542810165247321,-4.796698270449042,-1.831158027306199
1772094397260904700,2.74990478515625,-6.479879905205965,-4.821341128796338,-2.279168044526875
1772094397270853600,2.759853515625,-5.294762942910194,-4.588856315001845,-2.6055171369329093
1772094397280803600,2.769803466796875,-4.208761603882909,-4.124827183133363,-2.614348970425129
1772094397290753500,2.77975341796875,-2.9681875427812336,-3.3575565704628825,-2.171748995554447
1772094397300702700,2.78970263671875,-1.6510872913599013,-2.353922548998892,-1.5679272159837185
1772094397310652700,2.799652587890625,-0.2755167307913303,-1.2416770539075135,-0.969804451772198
1772094397320601600,2.8096015625,1.0240829352527856,0.002314560552686453,-0.37918168792724605
1772094397330551600,2.819551513671875,2.365454873621464,1.261099401127547,0.2902824843771756
1772094397340501800,2.829501708984375,3.4903239957034584,2.210135278702527,1.0386215290192513
1772094397350450700,2.83945068359375,4.040601670482754,2.5185446636617184,1.3718319585621357
1772094397360400600,2.849400634765625,5.044821382880211,2.531031804791093,1.6328624833613634
1772094397370350600,2.8593505859375,5.529512779027224,2.6698475702852007,1.585005045904219
1772094397380299800,2.8692998046875,5.819021794813871,2.597901401232183,1.3757377338290213
1772094397390249700,2.879249755859375,6.26271014944315,2.304069992201775,1.0978360806625336
1772094397400199700,2.88919970703125,6.69936202956438,2.185104443950951,0.7235983519434929
1772094397410148600,2.899148681640625,6.99716716453135,2.4120541277110576,0.4057662549268454
1772094397420098800,2.909098876953125,7.30241326315403,2.7796383168250323,0.25798850848851723
1772094397430047700,2.9190478515625,7.84518509234786,3.0824212402045723,0.34157592416498805
1772094397439997700,2.928997802734375,8.427641281676292,3.2506147836133836,0.6767308023065328
1772094397449947600,2.93894775390625,8.784325306591391,3.126523416781425,1.152877949731052
1772094397459896800,2.948896728515625,8.849259258794785,3.0113214588478208,1.5072262251749633
1772094397469846800,2.9588466796875,8.964510608828068,3.0670535752028223,1.6802499652191996
1772094397479796700,2.968796630859375,9.02631327726841,3.13581176186949,1.6050307658448815
1772094397489745700,2.97874560546875,8.719474356496333,3.03951207280457,1.3426023569464682
1772094397499695900,2.98869580078125,8.013522135880589,2.7597748017087578,0.8092005597747862
1772094397509645800,2.998645751953125,7.414972889885306,2.3781705628097054,0.31188535397406664
1772094397519594800,3.0085947265625,6.765128925460576,2.066783184953034,0.001664316483028233
1772094397529544700,3.018544677734375,6.080486619377136,1.8746654528602957,-0.16709164658151565
1772094397539494000,3.028493896484375,5.3014259079307315,1.7143381127819417,-0.14270915620345623
1772094397549443800,3.03844384765625,4.426847305446863,1.537740313643217,-0.15954265597406775
1772094397559393500,3.0483935546875,3.73086995087862,1.4659695011571048,-0.42618919402416794
1772094397569342700,3.0583427734375,3.0721821702629324,1.4231991577059029,-0.8974946370385587
1772094397579292700,3.068292724609375,2.336447974845767,1.3711682339563964,-1.235999008271098
1772094397589242600,3.07824267578125,1.4984966830134392,1.2295607919171452,-1.0838413845144212
1772094397599191600,3.088191650390625,0.5884995611459016,0.9228148101255297,-0.49473318995088333
1772094397609141500,3.0981416015625,-0.5401835662662983,0.5906152381256222,0.08873575661666691
1772094397619090700,3.108090576171875,-1.9856535924911498,0.1312757253780961,0.5260370040247216
1772094397629040600,3.11804052734375,-3.406614031359553,-0.3459270685791969,0.763575411414355
1772094397638990600,3.127990478515625,-4.621238243168592,-0.7205328268930316,0.6854033535838127
1772094397648939500,3.137939453125,-5.3735553245961665,-0.9353495897889137,0.40524632270596916
1772094397658889700,3.1478896484375,-5.593890266391635,-0.920318901656568,0.0457527933280915
1772094397668839700,3.157839599609375,-5.557125593096018,-0.7509051688030361,-0.14864540525148623
1772094397678788600,3.16778857421875,-5.641963684687018,-0.7194327566966414,-0.11379176234211771
1772094397688738800,3.17773876953125,-5.926254673564434,-0.8824570807740092,-0.12386188719132915
1772094397698688800,3.187688720703125,-6.2596121834278105,-1.2020996612787247,-0.2694713131472468
1772094397708637700,3.1976376953125,-6.60799658203125,-1.5451453292027115,-0.5133804611451923
1772094397718587600,3.207587646484375,-7.105780099463463,-1.7276567362993955,-0.747306998180598
1772094397728536600,3.21753662109375,-7.415708218422532,-1.70951113101691,-0.9123785371113567
1772094397738486800,3.22748681640625,-7.456073546558618,-1.5687641051992773,-0.9046019117604941
1772094397748436700,3.237436767578125,-7.09550771177411,-1.4160954631805418,-0.7195935732815414
1772094397758385700,3.2473857421875,-6.422849857994914,-1.291831954652071,-0.49687867754697795
1772094397768336000,3.2573359375,-5.5288534383356565,-1.1595470522314308,-0.24909184786546973
1772094397778285800,3.267285888671875,-4.388555276453495,-1.1435054334908723,-0.06250562907792627
1772094397788234800,3.27723486328125,-3.230421598151326,-1.2068942020788789,0.1468992648370564
1772094397798184700,3.287184814453125,-2.0920810000777244,-1.3294393623821437,0.4161558392550796
1772094397808133600,3.297133544921875,-0.9406009344458579,-1.4526228205889462,0.5797395142482593
1772094397818083800,3.307083740234375,-0.0007359130591154098,-1.5416395130388438,0.593404357387498
1772094397828033800,3.31703369140625,0.8128899158120155,-1.5881462665393948,0.4455553175449371
1772094397837982700,3.326982666015625,1.502968859991431,-1.5238148102737963,0.20165818877834826
1772094397847933000,3.336932861328125,1.9626573323071002,-1.348766724795103,-0.056815536810690535
1772094397857882600,3.346882568359375,2.250122275045514,-1.084795762629807,-0.12170270899659953
1772094397867831800,3.356831787109375,2.611049344357848,-0.84875953996405,-0.04053811371999327
1772094397877781500,3.366781494140625,3.030623248428106,-0.5439655690230429,0.05004101487419102
1772094397887731700,3.376731689453125,3.392136593195796,-0.05060717455670237,0.17251739795729518
1772094397897680600,3.3866806640625,3.633997722622752,0.2572362470827997,0.23404702160991728
1772094397907630600,3.396630615234375,3.753139650353789,0.39207843277081844,0.2369929936676286
1772094397917579800,3.406579833984375,3.7867408911824225,0.4989931854829192,0.24865729237310588
1772094397927529700,3.41652978515625,3.6309681456685063,0.5794030853681266,0.24811523965196683
1772094397937479700,3.426479736328125,3.351544470566511,0.6000016367606819,0.26271206641169265
1772094397947428600,3.4364287109375,3.18479615752995,0.5893943180285394,0.32793764023911204
1772094397957378600,3.446378662109375,3.0773230402827263,0.6444814144782721,0.3906797084214166
1772094397967328800,3.456328857421875,3.042043052586913,0.7670509785704315,0.3876853123784065
1772094397977277700,3.466277587890625,3.1093630231440064,0.8454334642812609,0.3881195025445893
1772094397987227600,3.4762275390625,3.1304993346750734,0.8318649576559662,0.38063901059608907
1772094397997176600,3.486176513671875,3.1710014409333467,0.7930775463610887,0.3074388959592208
1772094398007126800,3.496126708984375,3.2437352532327175,0.8230867540471255,0.11842661906853318
1772094398017076700,3.50607666015625,3.2163971644520757,0.8901470507547259,-0.1139097261659801
1772094398027025700,3.516025634765625,2.9568787977814672,0.8775865521281957,-0.2541859196014702
1772094398036975600,3.5259755859375,2.647486685395241,0.8078414002507924,-0.2902952342608943
1772094398046925800,3.53592578125,2.4192396553009745,0.8072175692640244,-0.29409426121767607
1772094398056874800,3.545874755859375,2.2350918791741132,0.85883991221264,-0.4134579419406131
1772094398066823700,3.55582373046875,2.041127642431855,0.9996725704871118,-0.592321347923763
1772094398076773600,3.565773681640625,1.949466426822543,1.0787690496861935,-0.6105986898271366
1772094398086722600,3.57572265625,1.8594827890366314,1.1514989164628089,-0.643828430462256
1772094398096672800,3.5856728515625,1.6149381196141241,1.284641020234674,-0.6412568994738161
1772094398106621700,3.59562158203125,1.3795686902940272,1.1866754437841474,-0.5560700675103813
1772094398116571600,3.605571533203125,0.9992430930286645,1.077795382348448,-0.5141707347400486
1772094398126521900,3.61552197265625,0.40959085471630097,0.9959003584720194,-0.47669283514115957
1772094398136470800,3.625470703125,-0.21833236980140208,0.8493827864289283,-0.444166566600278
1772094398146420700,3.635420654296875,-0.7206582068383693,0.7154968785524368,-0.46931010447870936
1772094398156370700,3.64537060546875,-1.0392284819364548,0.6758316615097224,-0.47616329484172165
1772094398166319600,3.655319580078125,-1.1291694496244191,0.6581596650883555,-0.4482163534477353
1772094398176269800,3.665269775390625,-0.9522370117038488,0.6077371994487941,-0.3657923007285222
1772094398186219800,3.6752197265625,-0.516651299509406,0.5049905262015759,-0.17254636832345277
1772094398196168700,3.685168701171875,0.08928104247450828,0.39452641044482584,0.07776793400906026
1772094398206119000,3.695118896484375,0.6422206299394368,0.2953548192054033,0.23066475876048206
1772094398216067800,3.70506787109375,1.1194780766934156,0.1732391363605857,0.2601182322598994
1772094398226017800,3.715017822265625,1.3500924204409122,-0.033101036221534014,0.20547734520770608
1772094398235967700,3.7249677734375,0.9921925899952649,-0.4117351732686162,-0.03221767751574516
1772094398245916700,3.734916748046875,0.16101532234251498,-0.8578856802277266,-0.14240918687619267
1772094398255867000,3.744866943359375,-0.6284761822253465,-1.1506351392403245,0.20078399975970387
1772094398265816600,3.754816650390625,-1.7397282823652027,-1.3149535947814583,0.5820815838623792
1772094398275765800,3.764765869140625,-3.747164083075523,-1.5875012466341256,0.8581080177415161
1772094398285715700,3.7747158203125,-6.120687112340331,-1.8850990224607287,0.9634439768295735
1772094398295665700,3.784665771484375,-8.917995525890587,-1.8708390264399348,0.638170989222452
1772094398305614600,3.794614501953125,-11.20488130518794,-1.7985346915990112,0.5268103630173951
1772094398315564500,3.804564453125,-12.034059507977961,-1.8563667028427122,0.762369688886404
1772094398325513700,3.814513671875,-12.023844403433799,-1.584216233614087,0.9591618425309657
1772094398335463700,3.824463623046875,-11.422312926757336,-1.1962256546787917,0.9956840853728354
1772094398345413600,3.83441357421875,-10.305233143377304,-1.0749182194769382,0.8658848622880876
1772094398355362600,3.844362548828125,-9.073913232833146,-1.2975905181787908,0.6004244652826338
1772094398365312800,3.854312744140625,-8.04278271715641,-1.6585661028079688,0.2135044016556814
1772094398375262700,3.8642626953125,-7.140024898892641,-1.9977967424884437,-0.06520006492682733
1772094398385211600,3.874211669921875,-6.259756560334563,-2.4082984284393487,-0.387824099794589
1772094398395161600,3.88416162109375,-5.513092390102147,-2.9610820946902034,-0.7681100591693073
1772094398405111800,3.89411181640625,-4.64944083982408,-3.5620153132125734,-1.0463576031640172
1772094398415060700,3.904060791015625,-3.70876976275146,-3.945528308342397,-1.3697186196699738
1772094398425010700,3.9140107421875,-2.8547897116601466,-4.124934735161066,-1.6396937906861304
1772094398434959600,3.923959716796875,-1.829255408555269,-4.019795613819361,-1.6361946965239942
1772094398444909800,3.933909912109375,-0.8886503824561833,-3.3603894558012484,-1.3348188634634017
1772094398454859800,3.94385986328125,0.17114333312511443,-2.4394845709502695,-0.6760239692114293
1772094398464808700,3.95380859375,1.3124106323003768,-1.3787082740724086,0.0821447973864153
1772094398474758700,3.963758544921875,2.151091991972923,-0.10708002627640963,0.7510886356111616
1772094398484708900,3.973708984375,2.8542139575988053,1.0427486188866197,1.3907178608179092
1772094398494657800,3.98365771484375,3.7427673094213008,1.8696673523120582,1.892964202877879
1772094398504607700,3.993607666015625,4.33263114465773,2.543416362328827,2.1519342880159615
1772094398514557700,4.0035576171875,4.575062182927131,2.9875629821196195,2.1612179569289087
1772094398524507000,4.0135068359375,4.74662578729093,3.2253350886672734,1.9382190566211939
1772094398534456800,4.023456787109375,4.877837507522106,3.292606543907523,1.442350725160539
1772094398544405800,4.03340576171875,5.172411990004778,3.1867697956904766,1.0489768457517028
1772094398554355700,4.043355712890625,5.779085505744814,3.0131422445341944,0.7340914697114378
1772094398564305700,4.0533056640625,6.597810119059681,2.836609327325225,0.5003275393592194
1772094398574254800,4.0632548828125,7.403844762149452,2.7970997392356396,0.3473778153767809
1772094398584204800,4.073204833984375,8.119196679273248,2.8792361706525087,0.3545703206967562
1772094398594154500,4.083154541015625,8.556146081036328,3.0333032812923193,0.5282164304230362
1772094398604103700,4.093103759765625,8.907891480505466,3.247980635717511,0.7114199845023452
1772094398614053600,4.1030537109375,9.21066797414422,3.3230151261746883,0.729278735667467
1772094398624003600,4.113003662109375,9.17295637538731,3.1975480870753525,0.44140437187794596
1772094398633952500,4.122952392578125,8.832911935105919,2.944404223872721,-0.011479060065373777
1772094398643902700,4.13290283203125,8.446263564559818,2.930308478502929,-0.29106293069776146
1772094398653851600,4.1428515625,8.010675514277816,2.931598810574412,-0.44458270965311675
1772094398663801600,4.152801513671875,7.575252883690595,2.707857567466795,-0.7496808877050877
1772094398673751600,4.16275146484375,7.095543952131271,2.402931786839664,-1.1935047783475368
1772094398683700700,4.17270068359375,6.423745930051803,2.1192092454999685,-1.612768812751025
1772094398693650700,4.182650634765625,5.991552782905101,1.9280913380995393,-1.8383776032961905
1772094398703600600,4.1926005859375,5.47703674185872,1.8560040070101618,-1.8667158090300857
1772094398713549600,4.202549560546875,4.604882736173272,1.7060878785699605,-1.868665043401718
1772094398723499800,4.212499755859375,3.976202555808425,1.335142980851233,-1.8630175390340387
1772094398733449700,4.22244970703125,3.533895426404476,0.8684265095949173,-1.8869278453230858
1772094398743398700,4.232398681640625,2.7876895213335753,0.2905002187810838,-1.77963505307883
1772094398753348600,4.2423486328125,1.6870868255019187,-0.4393944568276405,-1.3249161858692764
1772094398763297800,4.2522978515625,0.1007218894213438,-1.0253929949380456,-0.7396095024805516
1772094398773247700,4.262247802734375,-2.087566737523675,-1.426724116961658,-0.0033626813661307093
1772094398783197700,4.27219775390625,-4.290269674268365,-1.7238899311117828,0.6145813662551343
1772094398793146600,4.282146728515625,-5.955840249010921,-1.6398312994606792,0.7791854338046162
1772094398803096800,4.292096923828125,-6.831184575170278,-1.1884971062533556,0.4918636989291757
1772094398813046800,4.302046875,-6.852363556799292,-0.8041723563492298,0.13491788127273321
1772094398822995700,4.31199560546875,-6.5481269274801015,-0.7633277202636003,-0.15307210825309156
1772094398832946000,4.32194580078125,-6.690922117999196,-0.8262389344677329,-0.2903111624823883
1772094398842896000,4.331895751953125,-7.100792374178766,-0.8884303099647164,-0.0008428074996918439
1772094398852844800,4.3418447265625,-7.670935609900951,-0.9780364927403629,0.4433904676612466
1772094398862794800,4.351794677734375,-8.204828551590442,-0.9986628089226782,0.5747188000094146
1772094398872744700,4.36174462890625,-8.09330586669147,-0.8116063057422638,0.41045039415508505
1772094398882694000,4.37169384765625,-7.528550169226527,-0.45330293599702415,0.18638419340942053
1772094398892643600,4.3816435546875,-6.765512371820211,-0.33131986655592915,0.0388054584082216
1772094398902592800,4.3915927734375,-6.033321548098326,-0.5826913132585585,0.05905424651503562
1772094398912542700,4.401542724609375,-5.679422769987583,-1.0518584656026213,0.12376622653082013
1772094398922492700,4.41149267578125,-5.302673277643323,-1.6141706423729658,0.04506437267251313
1772094398932441600,4.421441650390625,-5.024864636522532,-2.003699536791444,-0.3747852065339684
1772094398942391600,4.4313916015625,-4.793893734422326,-2.340619561441988,-0.980400883784145
1772094398952341800,4.441341796875,-4.052624116709828,-2.684260126519203,-1.0906723995782435
1772094398962290700,4.451290771484375,-3.3026059598743913,-2.7844702670261263,-0.8460282153040171
1772094398972240600,4.46124072265625,-2.6526842540383337,-2.4764777923047543,-0.4683575164616108
1772094398982190600,4.471190673828125,-1.8554373130381105,-1.9610626104615627,0.007993976162280887
1772094398992139800,4.481139892578125,-0.8647165491610765,-1.4313818796396254,0.34608456069584936
1772094399002089700,4.49108984375,0.2135866365790367,-0.939658612094447,0.5396798545278608
1772094399012038700,4.50103857421875,1.3783131372749804,-0.5179255572289229,0.6014123072762042
1772094399021988600,4.510988525390625,2.4573347004175186,-0.1632859889545478,0.5607844192137942
1772094399031938800,4.520938720703125,3.363530676436424,0.1546972983021289,0.5316936780795455
1772094399041887700,4.5308876953125,4.0551095037847755,0.38163280740641053,0.48917124497480685
1772094399051837700,4.540837646484375,4.4806233192980285,0.5448756696052849,0.39807475057616826
1772094399061787600,4.55078759765625,4.5961610850572585,0.6430168218184262,0.2950217513261363
1772094399071737000,4.560737060546875,4.563948083716631,0.7127917843122035,0.1814192644784227
1772094399081687000,4.57068701171875,4.558282313039898,0.7650647001240402,0.05226728978864848
1772094399091637000,4.580636962890625,4.490798091831803,0.8085168152943253,-0.07936795308422297
1772094399101586000,4.5905859375,4.4332174250006675,0.8776016035668551,-0.16007077150139956
1772094399111536000,4.6005361328125,4.45861431658566,0.9369806981220841,-0.353653899971582
1772094399121485000,4.610485107421875,4.420598181924223,0.9342107950173317,-0.5434380014849827
1772094399131435000,4.62043505859375,4.477203866243362,0.788527481841296,-0.5929132859349251
1772094399141385000,4.630385009765625,4.521324747520685,0.617800182171166,-0.6276061944577842
1772094399151334100,4.640334228515625,4.508658158171176,0.5085336421685293,-0.6567275133933872
1772094399161284000,4.6502841796875,4.373901897200942,0.4060296185707673,-0.6195338740959763
1772094399171233800,4.66023388671875,4.035681165215373,0.36265067823454733,-0.49989009779002513
1772094399181183000,4.670182861328125,3.5650983739197253,0.38747006219252944,-0.4718225256910547
1772094399191133000,4.6801328125,3.012211977946758,0.4391466195464134,-0.4894683647578582
1772094399201083000,4.690082763671875,2.4123265149116513,0.4659928696895018,-0.4918101421110332
1772094399211031800,4.70003173828125,1.7654682882994412,0.4573934932462871,-0.4086216443579644
1772094399220982000,4.70998193359375,1.0586907227754592,0.34278416744358836,-0.20748399058869108
1772094399230931000,4.719930908203125,0.3947743938565254,0.13276936146933585,-0.02890142910722643
1772094399240881000,4.729880859375,-0.08577332661449909,-0.08680248699914664,-0.07550884823696688
1772094399250830800,4.739830810546875,-0.2155430313438177,-0.23559379439419134,-0.282847292875126
1772094399260779800,4.74977978515625,-0.07464812148809433,-0.2598215691345744,-0.44386667033825067
1772094399270730000,4.75972998046875,0.07116729363501072,-0.11519240465397014,-0.5494894104784355
1772094399280680000,4.769679931640625,0.07562719565331935,0.14499389700661414,-0.6732211136851459
1772094399290628900,4.77962890625,-0.1168774899303913,0.321715623919107,-0.6159155374683439
1772094399300579000,4.7895791015625,-0.3474813122838735,0.3524355006251484,-0.3528255228560418
1772094399310529000,4.799529052734375,-0.5131774859189987,0.2910655245136469,0.009604863691329955
1772094399320478000,4.80947802734375,-0.4824170214742422,0.270216158431489,0.23668449397403746
1772094399330428000,4.819427978515625,-0.34802141050994395,0.27370573584660884,0.13724301801836117
1772094399340376800,4.829376953125,-0.3622393209546804,0.37157749653384087,0.028072896728059276
1772094399350327000,4.8393271484375,-0.23763620520830153,0.5594797663560137,-0.03709662693003192
1772094399360277000,4.849277099609375,-0.05918985559344291,0.5681481163822114,-0.14781959455236793
1772094399370226000,4.859225830078125,-0.20372925943136214,0.22748830241514367,-0.15799659557584672
1772094399380176100,4.869176025390625,-0.9533920269578695,-0.17459696244401857,0.07014606082849204
1772094399390126000,4.8791259765625,-2.160387059062719,-0.3587483370337635,0.29692546605560927
1772094399400075000,4.889074951171875,-3.6133810510516167,-0.4769111540669575,0.452121069268696
1772094399410025000,4.89902490234375,-5.779550200647115,-0.4193224865924567,0.5519084543189033
1772094399419975200,4.90897509765625,-7.754948941105604,-0.0653162660518661,0.3666902724815532
1772094399429924000,4.918924072265625,-9.161350693267583,0.5217948729429394,-0.20554997205249964
1772094399439874000,4.9288740234375,-10.350975488376617,1.0961778651267289,-1.0909711633291095
1772094399449823700,4.93882373046875,-11.215326711356639,1.509711027728021,-2.121142551650107
1772094399459773200,4.948773193359375,-11.542958244788647,1.720266333787143,-2.6916557897284625
1772094399469723000,4.958722900390625,-10.920651691108942,1.278772128201276,-2.4768431184858084
1772094399479672000,4.968672119140625,-9.633457917651533,0.3385307477828115,-1.7782007824920116
1772094399489621800,4.978621826171875,-7.990179254215955,-0.32049196387566625,-1.3219647887177766
1772094399499572000,4.988572021484375,-6.383998441553116,-0.7415444160658866,-1.3535529361583292
1772094399509521000,4.99852099609375,-4.931027245917916,-1.3433091900415717,-1.5311835854761302
1772094399519470800,5.008470947265625,-3.512601293963194,-1.980347302776575,-1.6626188853301107
1772094399529420800,5.0184208984375,-2.2778689446270466,-2.095678586178273,-1.7193166318468749
1772094399539370000,5.028369873046875,-1.248632864394784,-1.641548478642106,-1.563272229784727
1772094399549320000,5.03831982421875,-0.4200269085347652,-1.3992036573514341,-1.0921554777428508
1772094399559270000,5.048269775390625,0.2676420518934727,-1.3883033470220862,-0.4277139559060335
1772094399569218800,5.05821875,0.8586182322859763,-1.206368132378161,0.1131961710691452
1772094399579169000,5.0681689453125,1.3461679404735565,-0.8780043391488492,0.5228595064997673
1772094399589118000,5.078117919921875,1.8900719885677097,-0.5183223745267838,1.0449963978134096
1772094399599068000,5.08806787109375,2.6903987754046916,-0.28345998141337186,1.6603285824358462
1772094399609017900,5.098017822265625,3.666430504193902,-0.03593976677879691,2.171481430659443
1772094399618967000,5.107967041015625,4.477567438858747,0.1553698820677586,2.4444274341799317
1772094399628917000,5.1179169921875,5.000469030934572,0.3899071166137233,2.3873178919918834
1772094399638867000,5.127866943359375,5.360823853316902,0.7823780193008482,2.242709076179564
1772094399648815900,5.13781591796875,5.646050077217817,1.040487980478257,2.3284967235803604
1772094399658766000,5.14776611328125,5.832092288789153,1.1360030219715087,2.5339345404952764
1772094399668716000,5.157716064453125,5.964612169009447,1.2173781866922975,2.684151405447721
1772094399678665000,5.1676650390625,6.237219734355807,1.3132450372979043,2.8476486077338454
1772094399688615000,5.177614990234375,6.596496113851666,1.3266719434954226,2.92376972438395
1772094399698564000,5.187564208984375,7.005777756488323,1.2420628383547068,2.8761119011521337
1772094399708514000,5.19751416015625,7.376307351404428,1.153872294530645,2.6799522001922127
1772094399718464000,5.207464111328125,7.712537201833724,1.0531225672543048,2.373639349120855
1772094399728413000,5.217412841796875,7.747535449978709,1.0225916007164866,1.926348732215911
1772094399738363100,5.227363037109375,7.363500476801395,1.0104258735612035,1.460281957039982
1772094399748312800,5.237312744140625,6.805293178066611,0.8479557493004948,1.071288849998638
1772094399758262000,5.247261962890625,6.246515970489383,0.7787399550594389,0.6899070216786116
1772094399768212000,5.2572119140625,5.817255369663238,0.8991502952910959,0.3387308003995567
1772094399778162000,5.267161865234375,5.473780370411276,1.070161453403905,0.07344554076530038
1772094399788110800,5.27711083984375,5.110438056650757,1.1061901405751704,-0.14189056982956827
1772094399798060800,5.287060791015625,4.910696990072727,1.0096534278839826,-0.36234022404588756
1772094399808010000,5.297010009765625,4.6839439979285,0.9036636079970747,-0.6980358214680105
1772094399817960000,5.3069599609375,4.4301217970728874,0.778924371715635,-1.0041931166514755
1772094399827910000,5.316909912109375,4.118547079950571,0.6261273540768773,-1.2171551185261458
1772094399837858800,5.32685888671875,3.625787528160214,0.4686486083626747,-1.3065870407134295
1772094399847808800,5.336808837890625,2.8582255313277245,0.2793324166219681,-1.3754752835005521
1772094399857759000,5.346759033203125,1.6291911013722418,0.09166209239214658,-1.3353186296790838
1772094399867708000,5.3567080078125,-0.11945640050768852,0.0322159239500761,-1.2739772951401769
1772094399877657900,5.366657958984375,-2.0665940921217203,-0.03693601127453148,-1.1250889753777533
1772094399887608000,5.376608154296875,-3.728661042657494,-0.2524243167564273,-0.8123683030907064
1772094399897557000,5.386556884765625,-4.88519722263515,-0.43226497027389704,-0.7940978293195367
1772094399907507000,5.3965068359375,-5.132211497041583,-0.4262648530762642,-1.0821069619372485
1772094399917456000,5.406455810546875,-4.6057373071759935,-0.3471167898204177,-1.2317141705587507
1772094399927406000,5.416406005859375,-4.1206069350898265,-0.4314338532119989,-1.1410765989087521
1772094399937356000,5.42635595703125,-4.033799589252472,-0.5774161493346095,-1.26673083114326
1772094399947305000,5.436304931640625,-4.752793077749014,-0.5625713391631841,-1.6184680473059414
1772094399957255000,5.4462548828125,-6.257589737689495,-0.4530415085818618,-1.7089824309676884
1772094399967205000,5.456205078125,-7.977953978893161,-0.335214243645966,-1.4511284903779624
1772094399977154000,5.466154052734375,-9.560642856809496,-0.10075798364803194,-1.1837433358550071
1772094399987104000,5.47610400390625,-10.220094023013115,0.10771189443916082,-1.07732542674914
1772094399997054000,5.486053955078125,-9.712344407361746,0.3130313822040334,-1.066894341366738
1772094400007003100,5.496003173828125,-8.440072308704256,0.4648174327019602,-0.880375159933418
1772094400016953000,5.505953125,-6.692677437233924,0.2003340640351176,-0.4289982966281473
1772094400026902000,5.515902099609375,-4.896523503291607,-0.24491839810572563,-0.16903328216858207
1772094400036852000,5.52585205078125,-3.4529853219121693,-0.5764113562062383,-0.3996552977658808
1772094400046802000,5.535802001953125,-2.3814620055705307,-1.037786539499834,-0.6822975695881992
1772094400056751000,5.545751220703125,-1.416007784897089,-1.4981902474127708,-0.672514792046696
1772094400066701000,5.555701171875,-0.6818973912894726,-1.6915496501296758,-0.6457325835831463
1772094400076651300,5.5656513671875,-0.27918869730234147,-1.6109293223641812,-0.5267090215347707
1772094400086600200,5.57560009765625,0.08421323769092559,-1.4741814491853118,-0.2958488132674247
1772094400096550100,5.585550048828125,0.7319967624545097,-1.2992223571643233,-0.1821734073139727
1772094400106499000,5.5954990234375,1.5812497850239275,-1.1012272574707864,-0.12321896791160106
1772094400116449300,5.60544921875,2.414752280753851,-0.8719842751417308,-0.11020853356048464
1772094400126399200,5.615399169921875,3.2658377794474363,-0.6959986896172166,-0.13716755989566445
1772094400136348200,5.62534814453125,3.975215298336744,-0.5687347571637481,-0.08530563603751361
1772094400146298000,5.635298095703125,4.18141708536148,-0.472856435316056,0.021500249472633
1772094400156248300,5.645248291015625,4.176336421096325,-0.5942406986137851,0.23844101878516374
1772094400166197200,5.655197265625,4.63306721265018,-0.7633335654824972,0.5053725843217224
1772094400176147200,5.665147216796875,4.7452919083386655,-0.5843346965514123,0.5521114660777151
1772094400186097200,5.67509716796875,4.212278672093153,-0.3727900871939957,0.5765062679480761
1772094400196046300,5.68504638671875,3.498122686755657,-0.3496381249915808,0.7052258060373365
1772094400205996300,5.694996337890625,2.897224831807613,-0.3035767041057348,0.7332574300400913
1772094400215945200,5.7049453125,2.3828572593212125,-0.1959534377980977,0.7543027022868395
1772094400225895200,5.714895263671875,1.8851672653913496,-0.18890709948316214,0.7013464803859591
1772094400235845400,5.724845458984375,1.644540061673522,-0.26275435291714966,0.6981342403411864
1772094400245794300,5.734794189453125,1.7609546102672815,-0.28125542057380076,0.8263726438499986
1772094400255744300,5.744744140625,2.0354589491456747,-0.189220695476979,0.9034161360420286
1772094400265694200,5.754694091796875,2.4688345840752124,-0.043012627774477,0.9524522618897259
1772094400275643400,5.764643310546875,2.8330250390976666,0.1255361588127911,1.0070240292284638
1772094400285593300,5.77459326171875,2.873886041796207,0.2445024377159774,0.9385423944808542
1772094400295543300,5.784543212890625,2.513724111637473,0.21284502443149686,0.8165347020551562
1772094400305492200,5.7944921875,1.9727952799618242,-0.004703939907252788,0.8979548749614507
1772094400315442400,5.8044423828125,1.2806330997675657,-0.14621259774714707,1.067052381472662
1772094400325391400,5.814391357421875,0.522841386321187,-0.08210636507216841,1.1652580502893775
1772094400335341300,5.82434130859375,-0.14141805694699286,0.16484562122039495,1.0866051501393317
1772094400345291300,5.834291259765625,-0.541439119285345,0.5315220113070681,0.8223794825606048
1772094400355240400,5.844240478515625,-1.0041717816025018,0.6732014591366052,0.4373474611699581
1772094400365190100,5.854190185546875,-1.2547656680613755,0.4353036803826689,0.30572124185375865
1772094400375140000,5.86414013671875,-1.1363719283491371,0.23939064766019583,0.40810310037657616
1772094400385089300,5.87408935546875,-0.5151701210409403,0.46499001278989016,0.5517101918004453
1772094400395039200,5.884039306640625,0.004077040180563926,0.6311364144105464,0.6065237320058048
1772094400404989200,5.8939892578125,0.18972937565147877,0.5675625715792179,0.546858440920338
1772094400414938000,5.903938232421875,0.24979601407945154,0.445116853062436,0.5240680055066943
1772094400424888000,5.91388818359375,0.465371194127202,0.3638162148825824,0.6077332539260387
1772094400434837200,5.923837158203125,0.8467962770670652,0.250264727569744,0.6597351707767695
1772094400444787200,5.933787109375,1.3545026380985974,0.11049151522032916,0.6484636890474706
1772094400454737200,5.943737060546875,1.833073505538702,-0.03826725987829268,0.7085607956789434
1772094400464686000,5.95368603515625,2.1445997073441743,-0.1973229725856334,0.8193734326124191
1772094400474636300,5.96363623046875,2.1828782923340797,-0.33315884548611935,0.9135371325619518
1772094400484586200,5.973586181640625,2.0406921736240387,-0.4299737175315618,0.9834352830439805
1772094400494535200,5.98353515625,1.7826257593274115,-0.46528154308237135,0.9837950562670826
1772094400504485000,5.993485107421875,1.4112000923544168,-0.4645063209261745,0.8706589448221027
1772094400514434300,6.003434326171875,0.9095908791542052,-0.4884106358658522,0.6253920986048876
1772094400524384300,6.01338427734375,0.1891431001961231,-0.5293239532735199,0.25805623996248467
1772094400534334200,6.023334228515625,-0.8453098379015922,-0.38921266807615756,-0.13400960732139647
1772094400544283100,6.033283203125,-2.2856594523727893,-0.10785787878111004,-0.3258073867447674
1772094400554233300,6.0432333984375,-4.092658605456352,0.20584113701879977,-0.44567298910785463
1772094400564183300,6.053183349609375,-6.174676476681232,0.4046295790471136,-0.6392595151115209
1772094400574132200,6.06313232421875,-8.856417313855886,0.5625028770368546,-0.9319832551609725
1772094400584082400,6.07308251953125,-11.437480100750923,0.5112783012341707,-1.2183316149596124
1772094400594031400,6.08303125,-13.225703241693973,0.37074974047280845,-1.586946827621758
1772094400603981300,6.092981201171875,-14.371013094258307,0.36012919693291184,-2.155639572274685
1772094400613931300,6.10293115234375,-14.742038363736867,0.3442385309703648,-2.644871534460783
1772094400623880200,6.112880126953125,-14.191847782719135,0.2975128740221262,-3.1274037067472933
1772094400633830400,6.122830322265625,-12.678069359421729,0.2210733390726149,-3.6345880897313356
1772094400643780400,6.1327802734375,-10.116660536545515,-0.0819645819813013,-3.857734874077141
1772094400653729300,6.142729248046875,-7.02530897091031,-0.627110154569149,-3.7746342738032337
1772094400663679500,6.152679443359375,-3.9300124670416112,-1.1603322112597525,-3.425383613759279
1772094400673629200,6.162629150390625,-1.610814902204275,-1.49913395800367,-2.546113346327841
1772094400683578400,6.172578369140625,-0.47746845915615554,-1.698252070377767,-1.5265001038350163
1772094400693528000,6.182528076171875,-0.027958851027488706,-1.754282585157454,-0.7631206533841788
1772094400703477200,6.192477294921875,0.4590653719812631,-1.5470518934763966,0.34650837559849024
1772094400713427200,6.20242724609375,1.5658873807191849,-1.2899059550255536,1.4335159690588712
1772094400723377200,6.212377197265625,2.267494265606999,-0.8160502795390784,1.6610604038417338
1772094400733326000,6.222326171875,2.4956460186332463,-0.1291578564412892,1.3993347363851965
1772094400743276300,6.2322763671875,3.0373738917320967,0.5695820947080851,1.293396427489817
1772094400753226200,6.242226318359375,3.759601539844274,0.9347669675953686,1.3581155678987502
1772094400763175200,6.252175048828125,4.346550948938727,1.149416045774147,1.1815665763378143
1772094400773125000,6.262125,5.065238147965073,1.2548207592494784,1.10480643113181
1772094400783074000,6.272073974609375,5.736045405441522,1.317572837369144,1.0328126235447823
1772094400793024300,6.282024169921875,6.093696229562163,0.8680983736190945,0.7962124833859503
1772094400802974200,6.29197412109375,6.467268845435977,0.4127688271652907,0.8540446407601237
1772094400812923100,6.301923095703125,6.861241275259852,0.5257468254391103,1.1321470041304826
1772094400822873300,6.311873291015625,7.197389877146482,0.9174003107961267,1.3497490138307213
1772094400832823300,6.3218232421875,7.558972195497155,1.223970570694655,1.6196470279574393
1772094400842772200,6.331772216796875,8.02597771282792,1.4492999597765504,1.899088823238015
1772094400852722200,6.34172216796875,8.396015724834799,1.6589083403743803,2.149403892755508
1772094400862672400,6.35167236328125,8.393855916452408,1.7259394109874964,2.1830668006435037
1772094400872621300,6.361621337890625,8.166274072268605,1.5465703935697674,2.08834488228932
1772094400882571300,6.3715712890625,7.875795919188857,1.2932178560525178,1.8940394308939574
1772094400892520200,6.381520263671875,7.605466235646605,1.0088614737886934,1.6320193105354903
1772094400902470400,6.391470458984375,7.409254512238502,0.7112506192848086,1.2732085027247666
1772094400912420400,6.40142041015625,7.210976503950357,0.4122112663477659,0.8273086095258593
1772094400922369300,6.411369384765625,6.898963979932666,0.15239954275377093,0.26086921502398325
1772094400932319200,6.4213193359375,6.522464078435301,-0.04944331840910017,-0.1994415721748024
1772094400942268200,6.43126806640625,5.96201280016601,-0.08930201219730079,-0.5079176291620359
1772094400952218400,6.44121826171875,5.069482361406088,-0.05827127944380044,-0.7070944494534284
1772094400962168300,6.451168212890625,3.708820031633973,-0.19418496682085096,-0.8027043296232819
1772094400972117200,6.4611171875,2.452489013952017,-0.08393018296584487,-0.9721931004744022
1772094400982067500,6.4710673828125,1.3719552926808596,0.1079440957598388,-1.1327071222312748
1772094400992017200,6.48101708984375,0.940192353644967,0.19969372030496596,-1.0085357489656657
1772094401001966300,6.49096630859375,0.9870774389386177,0.21252024945653974,-0.9343123556956648
1772094401011916300,6.500916259765625,1.3325181853055954,0.11735928209796548,-1.0946147074632346
1772094401021866200,6.5108662109375,1.3366302967995405,0.07885930944234132,-1.3194807168170808
1772094401031815200,6.520815185546875,0.921232801631093,-0.2042515297397971,-1.237490269742161
1772094401041765000,6.53076513671875,0.12322364408671856,-0.9846084184765815,-0.6893325097262859
1772094401051714300,6.54071435546875,-1.2541291237235068,-1.9868097767889499,0.1220316943557933
1772094401061664300,6.550664306640625,-2.597369778573513,-2.687244110766053,0.932597222340852
1772094401071614200,6.5606142578125,-3.949651818013191,-2.65011761842072,1.0547589362844825
1772094401081563100,6.570563232421875,-5.431753831064701,-1.8477929357647895,-0.12038093147408216
1772094401091513000,6.58051318359375,-7.31787386713624,-0.9752888014674186,-1.8098901983499527
1772094401101463300,6.59046337890625,-8.634266847071052,-0.5024181914955377,-2.642058815127611
1772094401111412200,6.600412109375,-9.478182015743851,-0.34947986568994815,-3.1352064894527194
1772094401121362200,6.610362060546875,-10.10704632050395,-0.240615147953853,-3.652239481756091
1772094401131311000,6.62031103515625,-10.733471415418386,0.16492869639396668,-3.839754396228492
1772094401141261000,6.630260986328125,-10.736675764417647,0.8920475506138056,-3.703502051481604
1772094401151211300,6.640211181640625,-9.532186577653885,1.220633754422143,-3.0817516703799366
1772094401161160200,6.65016015625,-7.637420293790101,0.9806384188670665,-2.0412518533334136
1772094401171110100,6.660110107421875,-5.745439256730675,0.44929278704021125,-0.8723812385700642
1772094401181060400,6.670060302734375,-4.034696245831251,-0.045278380749374625,0.22137546382434664
1772094401191009300,6.68000927734375,-2.9625165114074945,-0.42136849586945024,0.9603287674184888
1772094401200959200,6.689959228515625,-2.730139249640703,-0.8429328796371817,1.4413339493334292
1772094401210908200,6.699908203125,-2.6705677012532947,-1.1443633654944598,1.7141949049189686
1772094401220858000,6.709858154296875,-2.2878315357148646,-1.1903916147630662,1.6443420548833905
1772094401230808300,6.719808349609375,-1.9375673147141932,-1.1467257107116282,1.34286013109982
1772094401240757200,6.72975732421875,-1.4753303269594906,-1.0866295539282262,1.0937722652897237
1772094401250707200,6.739707275390625,-0.4361743257373571,-1.0306520845100282,0.9219541016429662
1772094401260657400,6.749657470703125,0.5348299302786589,-1.0173004355058073,0.7908456956557929
1772094401270606300,6.7596064453125,1.4103034357756374,-1.0294793144036083,0.6424529773905873
1772094401280556300,6.769556396484375,2.056920254847407,-1.07302173820585,0.5559835582707077
1772094401290505200,6.779505126953125,2.5971096663326025,-1.1012583832614122,0.6327051980972289
1772094401300455200,6.789455078125,3.0627210989564655,-1.1076383666221052,0.7953745712570846
1772094401310405400,6.7994052734375,3.319813115262985,-1.1282781268078834,0.9000147301007062
1772094401320354300,6.809354248046875,3.445796287190914,-1.1538953831452876,0.9979503498043865
1772094401330304300,6.81930419921875,3.5278514700651167,-1.025476946894452,1.06301618475914
1772094401340254200,6.829254150390625,3.4672371346265076,-0.8361912964224815,0.9043397536929696
1772094401350203400,6.839203369140625,3.452345854964852,-0.6641754182465374,0.7382122029032557
1772094401360153000,6.849153076171875,3.610677637311816,-0.45620044753681865,0.6405814844302833
1772094401370102300,6.859102294921875,3.5084558647215363,-0.22777484600525347,0.43223954357169564
1772094401380052000,6.869052001953125,3.1694547960132358,-0.002657857565023005,0.13784330373276024
1772094401390002200,6.879002197265625,2.967321865862608,0.15300094271302223,-0.14778602107632904
1772094401399951000,6.888951171875,2.7313357659488915,0.18782365162800996,-0.37074024199210104
1772094401409901000,6.898901123046875,2.471030632814765,0.13103380638100207,-0.40262068691011516
1772094401419851300,6.908851318359375,2.4215169525831937,0.17140552772525697,-0.2759116118604317
1772094401429800200,6.91880029296875,2.474790277609229,0.2716489859798923,-0.20986776218637823
1772094401439750100,6.928750244140625,2.550647774887085,0.3443825060183182,-0.3139358567630872
1772094401449699000,6.938698974609375,2.5716221738547085,0.42433615003600716,-0.5030514478977769
1772094401459649300,6.948649169921875,2.4199849207103252,0.5254461619921028,-0.6649196607425808
1772094401469599200,6.95859912109375,2.0758792223393914,0.5739081046810374,-0.6582081804051995
1772094401479548200,6.968548095703125,1.5428864443600177,0.5976072159048169,-0.49875323924720283
1772094401489498000,6.978498046875,0.9367267233610153,0.5996300635019317,-0.3990098029365763
1772094401499448300,6.9884482421875,0.5009609784245491,0.5551748357037082,-0.434591842318885
1772094401509397200,6.998397216796875,0.23319500789046285,0.5575950120553373,-0.6695575496762991
1772094401519347200,7.00834716796875,0.23016835354566573,0.6992778574183582,-0.8805912138368934
1772094401529296100,7.018296142578125,0.29477029731571674,0.932322423987463,-1.060705569729209
1772094401539246300,7.028246337890625,0.5336906971156596,1.1746110581114888,-1.1285415269844232
1772094401549196300,7.0381962890625,1.1299655684381722,1.1866047166354954,-0.9359320658519864
1772094401559145200,7.048145263671875,1.4602508312493563,1.11813630669564,-0.5913012476284056
1772094401569095200,7.05809521484375,1.3234627721905707,1.018755529684946,-0.06053272156976163
1772094401579045400,7.06804541015625,1.145141510260105,0.8851285650055855,0.4612382225083187
1772094401588994300,7.077994384765625,1.2101754157066344,0.7338293116439133,0.8460346450448035
1772094401598944300,7.0879443359375,1.5306114846765995,0.7128219602547585,1.0172633183658122
1772094401608893200,7.09789306640625,2.0192671082794664,0.8450196227833628,1.0122054504543543
1772094401618843400,7.107843505859375,2.4002356796234845,0.8766318817518651,0.8737913976289331
1772094401628793300,7.11779345703125,2.4048458037674427,0.702320659180358,0.7380050629585981
1772094401638742300,7.1277421875,2.0317209316611287,0.354499557015486,0.6927442178659141
1772094401648692200,7.137692138671875,1.5732359899163246,-0.03548692671107128,0.6215404646780341
1772094401658641200,7.14764111328125,1.2678192109018565,-0.23780016359835862,0.5564497144777327
1772094401668591400,7.15759130859375,1.0408101981699467,-0.2744842824710533,0.5121830680541694
1772094401678541000,7.167541015625,0.871246827712655,-0.2696470167740248,0.3927924262590706
1772094401688490200,7.177490234375,0.5552227299660444,-0.33239454658273604,0.13994696148112415
1772094401698440200,7.187440185546875,0.04030629142522812,-0.504891778534837,-0.23620083864293992
1772094401708390100,7.19739013671875,-0.5797270566254854,-0.6230772457912563,-0.4868688132513314
1772094401718339300,7.20733935546875,-1.637615230846405,-0.7573931425828486,-0.6279590995486826
1772094401728289000,7.2172890625,-3.1684798135012384,-0.7966485367156565,-0.664535337600112
1772094401738238200,7.22723828125,-4.93491723909378,-0.7505715529344975,-0.8957488893497735
1772094401748188200,7.237188232421875,-6.86105831990838,-0.836047650168091,-1.7320589167810976
1772094401758138000,7.24713818359375,-8.874121312850713,-0.8569013453654944,-2.4549507278904317
1772094401768087000,7.257087158203125,-10.59056750382781,-0.8549670163020491,-2.658029122197628
1772094401778037200,7.267037353515625,-11.812843691694736,-0.7191529168419539,-2.317032349627465
1772094401787987200,7.2769873046875,-12.770159614098072,-0.36213059988319873,-1.9300870419614016
1772094401797936000,7.28693603515625,-13.146886310088634,0.07177528773183002,-1.9282060505203902
1772094401807886000,7.296885986328125,-12.739264125096797,0.2741938664234243,-2.2147337124086914
1772094401817835000,7.3068349609375,-11.621472394055127,0.17626655789036302,-2.416909166526794
1772094401827785200,7.31678515625,-9.997612132316828,-0.15352609909828752,-2.2176259267188607
1772094401837735200,7.326735107421875,-8.101075331649184,-0.5707991423476487,-1.6446188259981571
1772094401847684000,7.33668408203125,-6.200642692586779,-1.1199933327391742,-0.9613979310199617
1772094401857634300,7.34663427734375,-4.510868819957971,-1.641424706131965,-0.3229004132568836
1772094401867584300,7.356584228515625,-3.201255124899745,-1.9492736807294189,0.02635609200596809
1772094401877533200,7.366533203125,-2.419530162680149,-1.9325141229778526,0.08174334044605493
1772094401887483100,7.376483154296875,-1.7937527180194854,-1.5789651812180876,-0.14972805852219462
1772094401897432000,7.38643212890625,-1.1129179875254631,-0.8647870571140199,-0.3641017538256943
1772094401907382300,7.39638232421875,-0.13936580059230327,0.07774753054184838,-0.19814765990674493
1772094401917332200,7.406332275390625,1.0483195508867502,1.0557754929158836,0.4223310938239097
1772094401927281200,7.41628125,2.1013480101168156,1.7026976516097783,1.1376473551124333
1772094401937231400,7.4262314453125,2.9699171430528164,1.7950256605647503,1.5803189339146018
1772094401947180300,7.43618017578125,3.8815404048174615,1.328346744839847,1.692582208047807
1772094401957130200,7.446130126953125,4.832801849487423,0.8254124205157161,1.6022772293530403
1772094401967080200,7.456080078125,5.572229054203629,0.5833249715195968,1.3708806491866707
1772094401977029400,7.466029296875,6.0670677503556005,0.5590589105954393,1.0019074899323284
1772094401986979300,7.475979248046875,6.444772935989499,0.824852010153979,0.6826458715692162
1772094401996929300,7.48592919921875,6.724491794645786,0.8426461716502904,0.6033662908881903
1772094402006878200,7.495878173828125,6.931004547315836,0.6532964429661631,0.8001330908957869
1772094402016828400,7.505828369140625,7.038330365046859,0.4909256508940831,1.061947386483848
1772094402026777300,7.51577734375,7.13506581518054,0.36682745246253906,1.3134390985652804
1772094402036727300,7.525727294921875,7.260107906866073,0.3495914363056421,1.7357053104594349
1772094402046677000,7.535677001953125,7.359674196511507,0.21246479294225573,2.2366211345680056
1772094402056626400,7.54562646484375,7.347154322156309,-0.056707902584597465,2.491280224639177
1772094402066576100,7.555576171875,7.289978728994726,-0.23595351281836627,2.381055908987671
1772094402076525000,7.565525146484375,7.093031677049398,-0.04861095923818647,2.157684083714336
1772094402086475000,7.57547509765625,6.620026627042889,0.30045952193327247,1.9489765974789857
1772094402096425000,7.585425048828125,6.033174833104014,0.5053189544383436,1.7208863653816282
1772094402106374100,7.5953740234375,5.597843387931585,0.5168761943064629,1.3853399671718478
1772094402116324000,7.605323974609375,5.325573091715574,0.617289017778635,0.9294789441898464
1772094402126274000,7.615274169921875,5.191565018764138,0.9379321536280214,0.3592740779409185
1772094402136223000,7.625222900390625,5.05069641239345,1.118997161308676,-0.29745727137736977
1772094402146173000,7.6351728515625,4.419535521128774,0.7401184018507599,-0.8846500607736408
1772094402156121900,7.645121826171875,3.562697157996893,0.8491558458052575,-1.5001028030358254
1772094402166072000,7.655072021484375,2.604566996601224,1.2425611432656645,-1.9694081217415629
1772094402176022000,7.66502197265625,1.6009680464506149,1.3361026196636259,-2.1643793435692786
1772094402185971000,7.674970947265625,0.64684010643363,1.147518614654988,-1.8750646813109515
1772094402195921200,7.684921142578125,-0.3221446264535188,0.5721526758484542,-1.2045501231707632
1772094402205871000,7.69487109375,-1.2122288411051034,0.0553336185567081,-0.7362563926603645
1772094402215820000,7.704820068359375,-1.7351690116256475,0.013919365889579058,-0.4667657172255218
1772094402225770000,7.71477001953125,-1.5997154160410165,-0.01394099319949746,-0.2755873848747462
1772094402235719000,7.724718994140625,-1.0592892731904984,-0.529072389665246,-0.26009899783646684
1772094402245669000,7.734669189453125,-0.7229232291609048,-1.2363687183663248,-0.24142748725004493
1772094402255619000,7.744619140625,-0.46388709304928777,-1.8556747750557958,-0.03493008741275407
1772094402265568000,7.754568115234375,-0.08768646675944328,-2.351741551697999,0.25164218993540854
1772094402275518200,7.764518310546875,-0.0424637617200613,-2.7495696340367197,0.5535899776650592
1772094402285467100,7.774467041015625,-0.5622440069049597,-2.9161896445184943,0.633772315872088
1772094402295417000,7.7844169921875,-1.7436837419927118,-2.4980899046540257,0.44208099249787625
1772094402305367000,7.794366943359375,-3.2672564140737053,-1.4309334052197635,0.1407200464791618
1772094402315316200,7.804316162109375,-4.714188329544663,-0.054094870541989803,-0.21145612735636532
1772094402325266200,7.81426611328125,-5.905688270875811,1.179425034264475,-0.5065712195217609
1772094402335215000,7.824215087890625,-6.851103912127018,1.87089967058599,-0.48669937496855853
1772094402345165000,7.8341650390625,-7.45418787894249,1.805607698725164,-0.11643973783394321
1772094402355115300,7.844115234375,-7.160630464547872,1.1402169133394955,0.20330380056090652
1772094402365064200,7.854064208984375,-5.781249405780434,0.5986934767715633,0.2669631662512198
1772094402375014100,7.86401416015625,-3.8747535211563107,0.37065592470951375,0.08509559174971655
1772094402384964000,7.873964111328125,-2.798174674990773,0.19786774698682127,0.35910102292895313
1772094402394913300,7.883913330078125,-2.2265473381906746,-0.05163308353833854,0.8677424728535115
1772094402404863200,7.89386328125,-1.6416858412861823,-0.18533800882473586,1.1320526038452983
1772094402414812200,7.903812255859375,-1.2455769839555024,-0.11197327821068465,0.8453121029239148
1772094402424762000,7.91376220703125,-1.0991612648516893,0.05833564991690218,0.27141711345277725
1772094402434712000,7.923712158203125,-0.746520962369442,0.08989405980631708,-0.10891467609135433
1772094402444661200,7.9336611328125,-0.2345996139913797,0.08956241669915616,-0.4638427424509078
1772094402454611000,7.94361083984375,0.2981552635788917,0.20134506770856678,-0.5758072893658652
1772094402464560000,7.95356005859375,0.32468028241097924,0.12102138480208813,-0.1993820970725268
1772094402474510000,7.963510009765625,0.4580564871996641,-0.42253655326813455,-0.038385552495718
1772094402484460000,7.9734599609375,1.67809512527287,-0.5636217249989509,-0.12868256707973777
1772094402494409000,7.983408935546875,2.8083541236996648,-0.5208421753279865,-0.05687244549654424
1772094402504359000,7.99335888671875,3.2489924431085586,-0.4492347367100417,0.1626977955367416
1772094402514309000,8.00330908203125,3.3125931008815765,-0.5833429090350866,0.23524938313700258
1772094402524258000,8.013258056640625,3.0939135250777006,-0.7476087576061486,0.04085274632684886
1772094402534208000,8.0232080078125,2.7040304103940724,-0.8134902197927236,-0.30037491238974035
1772094402544157000,8.033156982421875,2.6000264305621386,-0.849456143926084,-0.6824250684253871
1772094402554107100,8.043107177734376,2.572753808233142,-0.7937972389377653,-0.8785879111904651
1772094402564057000,8.05305712890625,2.337317158895731,-0.45967458992078897,-0.9061797555364668
1772094402574006000,8.063006103515624,1.7433751144349574,-0.38366336338594553,-0.4896067137826234
