time,seconds_elapsed,z,y,x
1772094394584456000,0.0734560546875,0.06910485774278641,-0.04033922031521797,0.38871392607688904
1772094394594404900,0.08340478515625,0.12518250942230225,-0.10074610263109207,0.3227524757385254
1772094394604355000,0.09335498046875,0.1897573322057724,-0.15580560266971588,0.2510814964771271
1772094394614304000,0.103303955078125,0.21340912580490112,-0.17092543840408325,0.17797932028770447
1772094394624254000,0.11325390625,0.1902066320180893,-0.16155679523944855,0.12518347799777985
1772094394634204000,0.123203857421875,0.12907376885414124,-0.150224506855011,0.08514046669006348
1772094394644152800,0.13315283203125,0.06348666548728943,-0.13542434573173523,0.06424278020858765
1772094394654103000,0.14310302734375,0.011462349444627762,-0.09763328731060028,0.03869880735874176
1772094394664053000,0.153052978515625,-0.011209719814360142,-0.07049063593149185,-0.0017212149687111378
1772094394674002000,0.163001953125,0.0034059742465615273,-0.0803118422627449,-0.07914756238460541
1772094394683952000,0.1729521484375,0.037725456058979034,-0.11304769665002823,-0.16948586702346802
1772094394693902000,0.182902099609375,0.07040616869926453,-0.1547544002532959,-0.25339460372924805
1772094394703851000,0.19285107421875,0.09356707334518433,-0.17966024577617645,-0.31629711389541626
1772094394713801000,0.202801025390625,0.09811628609895706,-0.2011442333459854,-0.34230634570121765
1772094394723751200,0.212751220703125,0.08942783623933792,-0.19903641939163208,-0.34368476271629333
1772094394733700000,0.2227001953125,0.08057469129562378,-0.16541534662246704,-0.32847437262535095
1772094394743650000,0.232650146484375,0.07899081707000732,-0.12252675741910934,-0.29626160860061646
1772094394753600000,0.24260009765625,0.08174612373113632,-0.0918886810541153,-0.2544907331466675
1772094394763549200,0.252549072265625,0.07738516479730606,-0.04840773716568947,-0.2037498503923416
1772094394773499100,0.2624990234375,0.06220380589365959,-0.015279343351721764,-0.1515526920557022
1772094394783448800,0.27244873046875,0.04171766713261604,0.01018285658210516,-0.0966922715306282
1772094394793398000,0.28239794921875,0.02010371908545494,0.036175042390823364,-0.05146220326423645
1772094394803348000,0.292347900390625,0.003811455797404051,0.0039022627752274275,-0.018556544557213783
1772094394813297200,0.302297119140625,-0.004110649228096008,-0.05617518723011017,0.017709316685795784
1772094394823246800,0.312246826171875,-0.039784934371709824,-0.0688508152961731,0.030574709177017212
1772094394833197000,0.322197021484375,-0.08045034110546112,-0.06622733920812607,0.022281359881162643
1772094394843146000,0.33214599609375,-0.10444828867912292,-0.04164097458124161,0.002873533172532916
1772094394853096000,0.342095947265625,-0.118228018283844,0.020340371876955032,-0.021925289183855057
1772094394863046000,0.3520458984375,-0.12613964080810547,0.1102202758193016,-0.054247159510850906
1772094394872994800,0.361994873046875,-0.12916472554206848,0.1789708435535431,-0.06460472196340561
1772094394882945000,0.371945068359375,-0.11433036625385284,0.2614482641220093,-0.0489712730050087
1772094394892895000,0.38189501953125,-0.07051364332437515,0.360773503780365,0.006072273477911949
1772094394902844000,0.391843994140625,-0.028324052691459656,0.494407594203949,0.06830481439828873
1772094394912794000,0.401794189453125,-0.04658801108598709,0.6148373484611511,0.09249003976583481
1772094394922744000,0.411744140625,-0.10158874094486237,0.6284521222114563,0.09430146217346191
1772094394932693000,0.42169287109375,-0.14243283867835999,0.5443734526634216,0.07818588614463806
1772094394942643000,0.431642822265625,-0.20426687598228455,0.4575130343437195,0.010836463421583176
1772094394952593200,0.44159326171875,-0.2963795065879822,0.3743888735771179,-0.13127699494361877
1772094394962542000,0.4515419921875,-0.3859029710292816,0.2048114538192749,-0.2897891402244568
1772094394972492000,0.461491943359375,-0.4563118815422058,-0.06679501384496689,-0.4479351043701172
1772094394982441000,0.47144091796875,-0.46906352043151855,-0.4412156939506531,-0.5838744640350342
1772094394992391200,0.48139111328125,-0.42471441626548767,-0.8148212432861328,-0.6276850700378418
1772094395002341000,0.491341064453125,-0.351047158241272,-1.087559461593628,-0.5281677842140198
1772094395012290000,0.5012900390625,-0.2502981722354889,-1.219403862953186,-0.28115400671958923
1772094395022240000,0.511239990234375,-0.1405486911535263,-1.2276440858840942,0.08926013112068176
1772094395032190200,0.521190185546875,-0.04147164151072502,-1.2197659015655518,0.5234389901161194
1772094395042139100,0.53113916015625,-0.003215047297999263,-1.2482059001922607,0.9858521223068237
1772094395052089000,0.541089111328125,-0.02096261829137802,-1.136860728263855,1.4170647859573364
1772094395062039000,0.5510390625,-0.045467983931303024,-0.7803102731704712,1.7763137817382812
1772094395071988200,0.56098828125,-0.05141109600663185,-0.41615867614746094,1.9605733156204224
1772094395081938000,0.57093798828125,-0.0799519419670105,-0.23037055134773254,1.9407012462615967
1772094395091887000,0.58088720703125,-0.11652300506830215,-0.254176527261734,1.7603482007980347
1772094395101837000,0.590837158203125,-0.13956806063652039,-0.38438838720321655,1.4729634523391724
1772094395111787000,0.600787109375,-0.1376633644104004,-0.5536231994628906,1.1378403902053833
1772094395121736000,0.61073583984375,-0.0854133814573288,-0.6745812892913818,0.8520006537437439
1772094395131686000,0.620685791015625,0.01812419667840004,-0.7254394292831421,0.6169071793556213
1772094395141636000,0.630635986328125,0.10768263787031174,-0.683722734451294,0.3916410803794861
1772094395151585000,0.6405849609375,0.13360558450222015,-0.6600499153137207,0.12728531658649445
1772094395161535000,0.650534912109375,0.08267366886138916,-0.6695279479026794,-0.1715444177389145
1772094395171485200,0.660485107421875,-0.05627250298857689,-0.6386491656303406,-0.5030890703201294
1772094395181434000,0.67043408203125,-0.2512655258178711,-0.554641604423523,-0.8254780769348145
1772094395191384000,0.680384033203125,-0.4477953612804413,-0.3998118042945862,-1.109682559967041
1772094395201334000,0.690333984375,-0.6129657626152039,-0.2626217305660248,-1.345689296722412
1772094395211283000,0.700282958984375,-0.6955336332321167,-0.15777042508125305,-1.4976657629013062
1772094395221233200,0.710233154296875,-0.6974656581878662,0.03784404695034027,-1.5672428607940674
1772094395231182000,0.72018212890625,-0.6521074771881104,0.21192608773708344,-1.5672926902770996
1772094395241132000,0.730132080078125,-0.5551061630249023,0.3583439886569977,-1.5059815645217896
1772094395251082200,0.740082275390625,-0.4106653928756714,0.576457679271698,-1.3810365200042725
1772094395261031200,0.75003125,-0.28722283244132996,0.8964894413948059,-1.1966056823730469
1772094395270981000,0.759981201171875,-0.23463819921016693,1.249446988105774,-0.9899516105651855
1772094395280931000,0.76993115234375,-0.2181641161441803,1.5584516525268555,-0.7835747003555298
1772094395290880000,0.7798798828125,-0.2146569937467575,1.7997777462005615,-0.5833268165588379
1772094395300830200,0.789830322265625,-0.17164406180381775,1.9774303436279297,-0.38951486349105835
1772094395310780200,0.7997802734375,-0.08700001239776611,2.108311414718628,-0.21321971714496613
1772094395320729000,0.80972900390625,0.03295233100652695,2.1457228660583496,-0.03609615936875343
1772094395330679300,0.81967919921875,0.17107132077217102,2.078411817550659,0.14953097701072693
1772094395340628200,0.829628173828125,0.2992379665374756,1.9538240432739258,0.33401015400886536
1772094395350578200,0.839578125,0.395773321390152,1.8145601749420166,0.49383339285850525
1772094395360528000,0.84952783203125,0.4308141767978668,1.6731791496276855,0.6194846630096436
1772094395370477300,0.859477294921875,0.4012746512889862,1.540373682975769,0.6734977960586548
1772094395380427000,0.869427001953125,0.33858489990234375,1.4081926345825195,0.5963191986083984
1772094395390377000,0.879376953125,0.29291674494743347,1.142601490020752,0.428825318813324
1772094395400326000,0.889325927734375,0.3359873294830322,0.7645610570907593,0.24753661453723907
1772094395410276000,0.899276123046875,0.4206675887107849,0.5098640322685242,0.11816557496786118
1772094395420226000,0.90922607421875,0.47816595435142517,0.6088312864303589,0.025155089795589447
1772094395430175000,0.919175048828125,0.5160707235336304,0.9610982537269592,-0.08247629553079605
1772094395440125000,0.929125,0.5454450845718384,1.2860654592514038,-0.1940450668334961
1772094395450075100,0.9390751953125,0.5906628966331482,1.4320956468582153,-0.28999078273773193
1772094395460024000,0.949024169921875,0.6558114290237427,1.3942265510559082,-0.36914384365081787
1772094395469974000,0.95897412109375,0.6996316313743591,1.1868128776550293,-0.4546358287334442
1772094395479923000,0.9689228515625,0.7022648453712463,0.8287554383277893,-0.4938841760158539
1772094395489873200,0.978873046875,0.6957979202270508,0.44270917773246765,-0.43008551001548767
1772094395499823000,0.988822998046875,0.6670697927474976,0.17041347920894623,-0.2644210457801819
1772094395509772000,0.99877197265625,0.6273484826087952,0.05994822084903717,-0.0015713046304881573
1772094395519722000,1.008721923828125,0.5751403570175171,0.09403245151042938,0.3843803107738495
1772094395529672200,1.018672119140625,0.486674964427948,0.14009235799312592,0.860997200012207
1772094395539621000,1.02862109375,0.3629140555858612,-0.016599470749497414,1.1945172548294067
1772094395549571000,1.038571044921875,0.16002805531024933,-0.22612234950065613,1.1820727586746216
1772094395559521300,1.048521240234375,-0.08397135138511658,-0.3949628174304962,0.7415571808815002
1772094395569470200,1.05847021484375,-0.28608185052871704,-0.36094361543655396,-0.052368681877851486
1772094395579420200,1.068420166015625,-0.38147351145744324,-0.3710804879665375,-1.112380027770996
1772094395589370000,1.0783701171875,-0.3550882339477539,-0.6566693782806396,-2.132097005844116
1772094395599319000,1.088319091796875,-0.3106847405433655,-0.9739673137664795,-2.7266626358032227
1772094395609269200,1.098269287109375,-0.34941959381103516,-1.103125810623169,-2.7781031131744385
1772094395619218200,1.10821826171875,-0.5028232932090759,-0.9887255430221558,-2.430934429168701
1772094395629168000,1.118168212890625,-0.7020311951637268,-0.8757281303405762,-1.9394574165344238
1772094395639118000,1.1281181640625,-0.8445264101028442,-0.7555667161941528,-1.3257520198822021
1772094395649067300,1.1380673828125,-0.8728704452514648,-0.5357055068016052,-0.6874541640281677
1772094395659017000,1.148016845703125,-0.8318835496902466,-0.43390512466430664,-0.15604615211486816
1772094395668967000,1.157966796875,-0.7573078274726868,-0.4325075149536133,0.22106143832206726
1772094395678916000,1.167916015625,-0.6550084352493286,-0.4616544246673584,0.45131388306617737
1772094395688866000,1.177865966796875,-0.5248576402664185,-0.5231037139892578,0.6396339535713196
1772094395698815200,1.187815185546875,-0.4261288046836853,-0.5173356533050537,0.7314856052398682
1772094395708765000,1.197764892578125,-0.3407616913318634,-0.5489920973777771,0.7401704788208008
1772094395718715100,1.207715087890625,-0.24122655391693115,-0.6118924021720886,0.743215024471283
1772094395728664000,1.2176640625,-0.1412895768880844,-0.6159313917160034,0.724685788154602
1772094395738614000,1.227614013671875,-0.0322142094373703,-0.6092259287834167,0.7032644748687744
1772094395748564000,1.23756396484375,0.07406722009181976,-0.5958414077758789,0.6875869631767273
1772094395758513000,1.247512939453125,0.15752403438091278,-0.5756921172142029,0.7126755714416504
1772094395768463000,1.257463134765625,0.2118445336818695,-0.5250033736228943,0.7849971652030945
1772094395778413000,1.2674130859375,0.2311948537826538,-0.4522207975387573,0.8815233111381531
1772094395788362000,1.277362060546875,0.2294480800628662,-0.3754117786884308,0.9629499912261963
1772094395798312200,1.287312255859375,0.2136191725730896,-0.3063577115535736,0.9828253984451294
1772094395808261000,1.29726123046875,0.19451604783535004,-0.29575115442276,0.9264299869537354
1772094395818211000,1.307211181640625,0.18186266720294952,-0.2953569293022156,0.7913421392440796
1772094395828161000,1.3171611328125,0.19784322381019592,-0.2778514325618744,0.5908516049385071
1772094395838110000,1.32710986328125,0.23626847565174103,-0.26740923523902893,0.35966649651527405
1772094395848060200,1.33706005859375,0.2742859125137329,-0.25341033935546875,0.13087168335914612
1772094395858010000,1.347010009765625,0.29474255442619324,-0.19132615625858307,-0.061610765755176544
1772094395867959000,1.356958984375,0.2833375632762909,-0.0923210009932518,-0.22311843931674957
1772094395877909200,1.3669091796875,0.2459530383348465,0.008370999246835709,-0.34060510993003845
1772094395887859200,1.376859130859375,0.19285784661769867,0.0382990725338459,-0.40561577677726746
1772094395897808100,1.38680810546875,0.13880780339241028,-0.0056355977430939674,-0.4128647446632385
1772094395907758000,1.396758056640625,0.07585999369621277,-0.09590743482112885,-0.3532743752002716
1772094395917707000,1.40670703125,0.005293200258165598,-0.16571281850337982,-0.26149600744247437
1772094395927657200,1.4166572265625,-0.0561954602599144,-0.22118699550628662,-0.14864057302474976
1772094395937607200,1.426607177734375,-0.06769843399524689,-0.22200308740139008,0.009827886708080769
1772094395947556000,1.43655615234375,-0.02522820420563221,-0.1560746729373932,0.18601782619953156
1772094395957506300,1.44650634765625,0.06502019613981247,-0.054491713643074036,0.3450174331665039
1772094395967456000,1.4564560546875,0.2053983509540558,0.08568962663412094,0.46457603573799133
1772094395977405200,1.4664052734375,0.3925734758377075,0.24200832843780518,0.5549542903900146
1772094395987355000,1.47635498046875,0.5851229429244995,0.3047183156013489,0.6007601618766785
1772094395997305000,1.48630517578125,0.7252634763717651,0.23495596647262573,0.5904078483581543
1772094396007254000,1.49625390625,0.780261218547821,0.02620355784893036,0.5195861458778381
1772094396017204000,1.506203857421875,0.7473539113998413,-0.21921424567699432,0.418876975774765
1772094396027153000,1.51615283203125,0.6167423725128174,-0.3990391492843628,0.30160388350486755
1772094396037103000,1.52610302734375,0.43710219860076904,-0.3621300458908081,0.19691598415374756
1772094396047053000,1.536052978515625,0.24834002554416656,-0.1533275544643402,0.12042786180973053
1772094396057002000,1.546001953125,0.09911632537841797,-0.030604753643274307,0.07303876429796219
1772094396066947800,1.55594775390625,0.012020841240882874,-0.1621484011411667,0.03469057008624077
1772094396076897800,1.565897705078125,-0.029933268204331398,-0.5934635996818542,-0.009094459004700184
1772094396086847000,1.575846923828125,-0.06253381818532944,-1.2389581203460693,-0.058191169053316116
1772094396096797000,1.585796875,-0.13338549435138702,-1.8649630546569824,-0.06414705514907837
1772094396106747000,1.595746826171875,-0.2068682312965393,-2.127415418624878,0.0755234956741333
1772094396116695800,1.60569580078125,-0.23071172833442688,-1.9800875186920166,0.3722355365753174
1772094396126646000,1.61564599609375,-0.181373730301857,-1.6641995906829834,0.728207528591156
1772094396136595000,1.625594970703125,-0.04308586195111275,-1.2976410388946533,1.0730648040771484
1772094396146545000,1.635544921875,0.11413438618183136,-0.9582648873329163,1.3008228540420532
1772094396156494800,1.645494873046875,0.20203232765197754,-0.7016192078590393,1.3412952423095703
1772094396166444000,1.655444091796875,0.22552327811717987,-0.5976989269256592,1.1924577951431274
1772094396176394000,1.66539404296875,0.200110524892807,-0.6155612468719482,0.9068918228149414
1772094396186344000,1.675343994140625,0.1632707566022873,-0.6804768443107605,0.5643211603164673
1772094396196292900,1.68529296875,0.13326624035835266,-0.7297304272651672,0.20184391736984253
1772094396206243000,1.6952431640625,0.09181628376245499,-0.7074314951896667,-0.14455051720142365
1772094396216192000,1.70519189453125,0.0011858032085001469,-0.5596413016319275,-0.4601040184497833
1772094396226142000,1.715141845703125,-0.11407607793807983,-0.3463498651981354,-0.7306055426597595
1772094396236092000,1.725091796875,-0.1774621307849884,-0.08406564593315125,-0.9320870637893677
1772094396246041000,1.735041015625,-0.1511913686990738,0.19241787493228912,-1.0735430717468262
1772094396255991000,1.744990966796875,-0.06821957975625992,0.4395180940628052,-1.1683894395828247
1772094396265941000,1.75494091796875,0.016784798353910446,0.5571525692939758,-1.2426122426986694
1772094396275890000,1.764889892578125,0.08947071433067322,0.5022978186607361,-1.3048771619796753
1772094396285840100,1.774840087890625,0.10300330072641373,0.2699522376060486,-1.3381874561309814
1772094396295790000,1.7847900390625,0.01703593321144581,-0.13877296447753906,-1.3404093980789185
1772094396305739000,1.794739013671875,-0.13798560202121735,-0.599646270275116,-1.2859551906585693
1772094396315689000,1.80468896484375,-0.3354625999927521,-0.8957716822624207,-1.1591150760650635
1772094396325638100,1.81463818359375,-0.49661874771118164,-0.9650407433509827,-0.9665546417236328
1772094396335588000,1.824588134765625,-0.5947228074073792,-0.7262733578681946,-0.6960367560386658
1772094396345537800,1.834537841796875,-0.6049946546554565,-0.2618716061115265,-0.3809821307659149
1772094396355487000,1.844487060546875,-0.5571855306625366,0.3110443651676178,-0.0775747001171112
1772094396365437000,1.85443701171875,-0.4784257411956787,0.8453453183174133,0.1527991145849228
1772094396375387000,1.864386962890625,-0.36592650413513184,1.2154382467269897,0.2873442769050598
1772094396385335800,1.874335693359375,-0.2036883383989334,1.3364300727844238,0.3787282407283783
1772094396395285800,1.88428564453125,0.03108932264149189,1.2229934930801392,0.45934075117111206
1772094396405235000,1.89423486328125,0.3078964352607727,0.9516134262084961,0.5310088396072388
1772094396415185000,1.904184814453125,0.5394757986068726,0.604069709777832,0.5752865076065063
1772094396425134800,1.914134765625,0.6646938920021057,0.29159143567085266,0.5500080585479736
1772094396435083800,1.924083740234375,0.6837435364723206,0.04233241453766823,0.4659530520439148
1772094396445034000,1.934033935546875,0.6036015748977661,-0.14675335586071014,0.36088842153549194
1772094396454984000,1.94398388671875,0.4347619414329529,-0.2790724039077759,0.28075194358825684
1772094396464932900,1.953932861328125,0.2032238095998764,-0.3207322359085083,0.23230823874473572
1772094396474882800,1.9638828125,-0.015376661904156208,-0.28513577580451965,0.2602882385253906
1772094396484833000,1.9738330078125,-0.18249081075191498,-0.11308544129133224,0.3568249046802521
1772094396494782000,1.983781982421875,-0.30542680621147156,0.12281976640224457,0.42827606201171875
1772094396504732000,1.99373193359375,-0.3986446261405945,0.3196808993816376,0.40415582060813904
1772094396514680800,2.003680908203125,-0.46225911378860474,0.44022852182388306,0.2641858160495758
1772094396524631000,2.013631103515625,-0.4641701877117157,0.4564892649650574,0.043939195573329926
1772094396534581000,2.0235810546875,-0.4089837968349457,0.3087545335292816,-0.20537643134593964
1772094396544530000,2.033530029296875,-0.320119172334671,0.05068623274564743,-0.41766926646232605
1772094396554480000,2.043480224609375,-0.2472413033246994,-0.22528031468391418,-0.5491479635238647
1772094396564430000,2.05343017578125,-0.2199297845363617,-0.38255834579467773,-0.5950920581817627
1772094396574379000,2.06337890625,-0.23883628845214844,-0.44656437635421753,-0.5758413076400757
1772094396584329000,2.073328857421875,-0.26729294657707214,-0.5407153367996216,-0.5458365082740784
1772094396594279200,2.083279052734375,-0.29032906889915466,-0.676031768321991,-0.5428696870803833
1772094396604228000,2.09322802734375,-0.29501596093177795,-0.7933371067047119,-0.5305280685424805
1772094396614178000,2.103177978515625,-0.28274911642074585,-0.8555205464363098,-0.47966766357421875
1772094396624127000,2.113126953125,-0.27340593934059143,-0.8675636053085327,-0.3944808542728424
1772094396634077200,2.1230771484375,-0.30089688301086426,-0.782374918460846,-0.2676225006580353
1772094396644027000,2.13302685546875,-0.3527478277683258,-0.628081738948822,-0.12864276766777039
1772094396653976000,2.14297607421875,-0.41135141253471375,-0.4275566637516022,-0.029843350872397423
1772094396663925800,2.15292578125,-0.45265570282936096,-0.242753267288208,-0.03060421533882618
1772094396673876000,2.1628759765625,-0.44262927770614624,-0.07363637536764145,-0.1412142813205719
1772094396683825000,2.172824951171875,-0.3798031806945801,0.07942667603492737,-0.315675288438797
1772094396693774800,2.18277490234375,-0.28636494278907776,0.18975111842155457,-0.5025720000267029
1772094396703724000,2.19272412109375,-0.21449901163578033,0.24623224139213562,-0.6692328453063965
1772094396713674000,2.202674072265625,-0.1892409324645996,0.2340594381093979,-0.7804967164993286
1772094396723624000,2.2126240234375,-0.18774104118347168,0.21423354744911194,-0.8050276041030884
1772094396733572900,2.22257275390625,-0.19662007689476013,0.20720991492271423,-0.7410874962806702
1772094396743522800,2.232522705078125,-0.19124288856983185,0.16173723340034485,-0.611466646194458
1772094396753473000,2.24247314453125,-0.18987978994846344,0.08977305889129639,-0.435971736907959
1772094396763422000,2.252421875,-0.18675696849822998,0.005640335381031036,-0.23550762236118317
1772094396773372000,2.262371826171875,-0.1804419308900833,-0.07916995882987976,-0.043677035719156265
1772094396783320800,2.27232080078125,-0.17429642379283905,-0.13006137311458588,0.14036338031291962
1772094396793271000,2.28227099609375,-0.15512946248054504,-0.11225011199712753,0.30468684434890747
1772094396803221000,2.292220947265625,-0.14110952615737915,-0.027191946282982826,0.4440186619758606
1772094396813170000,2.302169921875,-0.120298832654953,0.08436626940965652,0.5487372279167175
1772094396823120000,2.312119873046875,-0.10367351770401001,0.2053225338459015,0.6246575117111206
1772094396833070000,2.322070068359375,-0.09209097176790237,0.31127989292144775,0.6763631105422974
1772094396843019000,2.33201904296875,-0.0866440087556839,0.39503124356269836,0.70829176902771
1772094396852969000,2.341968994140625,-0.0776699110865593,0.41494518518447876,0.7070757746696472
1772094396862919000,2.3519189453125,-0.07127033919095993,0.3675675392150879,0.6705097556114197
1772094396872868000,2.3618681640625,-0.046733781695365906,0.28353214263916016,0.5952224731445312
1772094396882818000,2.371818115234375,0.017605526372790337,0.19996775686740875,0.5054388046264648
1772094396892767000,2.38176708984375,0.06393985450267792,0.2075655460357666,0.3961654007434845
1772094396902717000,2.391717041015625,0.08933867514133453,0.26153290271759033,0.26288217306137085
1772094396912667100,2.401667236328125,0.1043563187122345,0.3167533874511719,0.1448853760957718
1772094396922616000,2.411615966796875,0.09915969520807266,0.36205801367759705,0.04570233076810837
1772094396932566000,2.42156591796875,0.11275388300418854,0.36217743158340454,-0.027090881019830704
1772094396942516000,2.431515869140625,0.12492425739765167,0.3894375264644623,-0.07488317787647247
1772094396952465200,2.441465087890625,0.10472113639116287,0.4520485997200012,-0.1139945462346077
1772094396962415000,2.4514150390625,0.044804807752370834,0.47234535217285156,-0.14353246986865997
1772094396972364000,2.461364013671875,-0.02453450672328472,0.4474009573459625,-0.17928937077522278
1772094396982314000,2.47131396484375,-0.0712713897228241,0.4568631649017334,-0.1874101459980011
1772094396992264000,2.481263916015625,-0.07851041108369827,0.5265135765075684,-0.16661465167999268
1772094397002213000,2.491213134765625,-0.044336460530757904,0.6514358520507812,-0.08981441706418991
1772094397012162800,2.501162841796875,-0.0002849253360182047,0.7677885890007019,0.010424181818962097
1772094397022112800,2.51111279296875,0.011941380798816681,0.7960058450698853,0.07427427172660828
1772094397032062000,2.52106201171875,-0.007050779182463884,0.7133945226669312,0.0891985073685646
1772094397042012000,2.531011962890625,0.008960144594311714,0.5173000693321228,0.08002658188343048
1772094397051961900,2.5409619140625,0.055691931396722794,0.3316200077533722,0.06858804821968079
1772094397061910800,2.550910888671875,0.13335850834846497,0.2357877790927887,0.08988268673419952
1772094397071861800,2.56086181640625,0.22763735055923462,0.21819144487380981,0.19737131893634796
1772094397081810700,2.570810791015625,0.31209179759025574,0.24965669214725494,0.39148274064064026
1772094397091760600,2.5807607421875,0.36189165711402893,0.3630513548851013,0.6310038566589355
1772094397101710800,2.5907109375,0.38533252477645874,0.46554309129714966,0.858406126499176
1772094397111659800,2.60065966796875,0.36830660700798035,0.4441305100917816,1.0072969198226929
1772094397121609700,2.610609619140625,0.3016365170478821,0.25701576471328735,1.0375981330871582
1772094397131559700,2.6205595703125,0.1965213268995285,-0.14323043823242188,0.9662772417068481
1772094397141508900,2.6305087890625,0.09934177994728088,-0.6811665892601013,0.8485197424888611
1772094397151458800,2.640458740234375,0.021976232528686523,-1.1522892713546753,0.7517365217208862
1772094397161407700,2.65040771484375,-0.041564129292964935,-1.4771325588226318,0.7051535248756409
1772094397171357700,2.660357666015625,-0.10206512361764908,-1.5858004093170166,0.6739333868026733
1772094397181308000,2.670307861328125,-0.1775425672531128,-1.3739293813705444,0.5724698901176453
1772094397191256800,2.6802568359375,-0.16922903060913086,-0.8826842904090881,0.35457026958465576
1772094397201206800,2.690206787109375,0.01098281517624855,-0.26879391074180603,0.09751901775598526
1772094397211156500,2.700156494140625,0.3248898684978485,0.22136688232421875,-0.07319056242704391
1772094397221106000,2.71010595703125,0.6662221550941467,0.47921282052993774,-0.13806357979774475
1772094397231055600,2.7200556640625,0.9337554574012756,0.5916497111320496,-0.10271604359149933
1772094397241005600,2.730005615234375,1.0561751127243042,0.5368160605430603,-0.007737602107226849
1772094397250954800,2.739954833984375,1.0139577388763428,0.355662077665329,0.11308174580335617
1772094397260904700,2.74990478515625,0.8380091190338135,0.11286059021949768,0.21565286815166473
1772094397270853600,2.759853515625,0.5289374589920044,-0.18679195642471313,0.2635538578033447
1772094397280803600,2.769803466796875,0.12540198862552643,-0.49463048577308655,0.25258669257164
1772094397290753500,2.77975341796875,-0.2909424901008606,-0.7065789699554443,0.21413329243659973
1772094397300702700,2.78970263671875,-0.6497246026992798,-0.6852824687957764,0.16298142075538635
1772094397310652700,2.799652587890625,-0.893113374710083,-0.40256425738334656,0.07702981680631638
1772094397320601600,2.8096015625,-0.9975835680961609,0.089353546500206,-0.03871942311525345
1772094397330551600,2.819551513671875,-0.9526629447937012,0.6292910575866699,-0.19743630290031433
1772094397340501800,2.829501708984375,-0.7712798714637756,0.9326841831207275,-0.38099440932273865
1772094397350450700,2.83945068359375,-0.5063337683677673,1.0624383687973022,-0.5500831604003906
1772094397360400600,2.849400634765625,-0.23122785985469818,0.9645252823829651,-0.6365522742271423
1772094397370350600,2.8593505859375,-0.02974722534418106,0.6917639970779419,-0.6048339009284973
1772094397380299800,2.8692998046875,0.07016205787658691,0.3981914818286896,-0.45306596159935
1772094397390249700,2.879249755859375,0.07099549472332001,0.20310616493225098,-0.21931028366088867
1772094397400199700,2.88919970703125,-0.033005472272634506,0.13493964076042175,0.06929034739732742
1772094397410148600,2.899148681640625,-0.18956182897090912,0.19823656976222992,0.3938509523868561
1772094397420098800,2.909098876953125,-0.347991406917572,0.4157997965812683,0.7144455313682556
1772094397430047700,2.9190478515625,-0.45425158739089966,0.7292615175247192,0.9868136644363403
1772094397439997700,2.928997802734375,-0.43221765756607056,1.008204698562622,1.1525472402572632
1772094397449947600,2.93894775390625,-0.2793141305446625,1.1193972826004028,1.2008577585220337
1772094397459896800,2.948896728515625,-0.06471236050128937,1.1128407716751099,1.1422303915023804
1772094397469846800,2.9588466796875,0.1630689948797226,1.062352180480957,1.0044612884521484
1772094397479796700,2.968796630859375,0.34984445571899414,0.9599113464355469,0.8118880987167358
1772094397489745700,2.97874560546875,0.46175816655158997,0.7656528949737549,0.5943784713745117
1772094397499695900,2.98869580078125,0.4859199523925781,0.6073015928268433,0.40279412269592285
1772094397509645800,2.998645751953125,0.42012861371040344,0.49265721440315247,0.2525617778301239
1772094397519594800,3.0085947265625,0.28600117564201355,0.3648185431957245,0.15789547562599182
1772094397529544700,3.018544677734375,0.1287280023097992,0.2535988688468933,0.12188371270895004
1772094397539494000,3.028493896484375,0.011335071176290512,0.14865167438983917,0.13723737001419067
1772094397549443800,3.03844384765625,-0.0431099459528923,0.16815918684005737,0.14063654839992523
1772094397559393500,3.0483935546875,-0.06450098752975464,0.25778043270111084,0.13375599682331085
1772094397569342700,3.0583427734375,-0.09052539616823196,0.3113613426685333,0.10105904936790466
1772094397579292700,3.068292724609375,-0.14833836257457733,0.25529488921165466,-0.020188549533486366
1772094397589242600,3.07824267578125,-0.17221511900424957,0.05912129208445549,-0.18761630356311798
1772094397599191600,3.088191650390625,-0.1164887472987175,-0.21833215653896332,-0.35029417276382446
1772094397609141500,3.0981416015625,-0.011800697073340416,-0.585037112236023,-0.4646252393722534
1772094397619090700,3.108090576171875,0.08679911494255066,-0.9241222143173218,-0.49872276186943054
1772094397629040600,3.11804052734375,0.12704768776893616,-1.1220946311950684,-0.4392770826816559
1772094397638990600,3.127990478515625,0.11273399740457535,-1.1047545671463013,-0.28205734491348267
1772094397648939500,3.137939453125,0.08002850413322449,-0.8563426733016968,-0.0503566637635231
1772094397658889700,3.1478896484375,0.07669395953416824,-0.4975839853286743,0.17784801125526428
1772094397668839700,3.157839599609375,0.14460928738117218,-0.28377020359039307,0.3078308403491974
1772094397678788600,3.16778857421875,0.24880680441856384,-0.3603169322013855,0.29765063524246216
1772094397688738800,3.17773876953125,0.30924180150032043,-0.6503796577453613,0.1598636358976364
1772094397698688800,3.187688720703125,0.28400248289108276,-1.0079644918441772,-0.08092687278985977
1772094397708637700,3.1976376953125,0.16238367557525635,-1.2998450994491577,-0.34413617849349976
1772094397718587600,3.207587646484375,-0.0003453199751675129,-1.3754788637161255,-0.5558103322982788
1772094397728536600,3.21753662109375,-0.15703777968883514,-1.1685899496078491,-0.6675224900245667
1772094397738486800,3.22748681640625,-0.2525421977043152,-0.7258166074752808,-0.7027707099914551
1772094397748436700,3.237436767578125,-0.2586113512516022,-0.13671955466270447,-0.6934147477149963
1772094397758385700,3.2473857421875,-0.20547115802764893,0.43635302782058716,-0.6560007929801941
1772094397768336000,3.2573359375,-0.12947571277618408,0.8742258548736572,-0.6139585971832275
1772094397778285800,3.267285888671875,-0.04776272922754288,1.1236222982406616,-0.5763166546821594
1772094397788234800,3.27723486328125,0.029442040249705315,1.1341708898544312,-0.5329837799072266
1772094397798184700,3.287184814453125,0.09140926599502563,0.9699500203132629,-0.45864564180374146
1772094397808133600,3.297133544921875,0.1291111260652542,0.681655764579773,-0.3381914794445038
1772094397818083800,3.307083740234375,0.14543096721172333,0.37002331018447876,-0.175831601023674
1772094397828033800,3.31703369140625,0.1231754943728447,0.11518751829862595,-0.0042939623817801476
1772094397837982700,3.326982666015625,0.05826866626739502,-0.07680002599954605,0.15490581095218658
1772094397847933000,3.336932861328125,-0.030298084020614624,-0.21519620716571808,0.2675497233867645
1772094397857882600,3.346882568359375,-0.09238755702972412,-0.238626167178154,0.336368203163147
1772094397867831800,3.356831787109375,-0.12256845086812973,-0.12991803884506226,0.3443298041820526
1772094397877781500,3.366781494140625,-0.1398012489080429,0.04511690512299538,0.28226321935653687
1772094397887731700,3.376731689453125,-0.13148485124111176,0.26352810859680176,0.16976508498191833
1772094397897680600,3.3866806640625,-0.1009913980960846,0.48805975914001465,0.03367728367447853
1772094397907630600,3.396630615234375,-0.058582548052072525,0.6623315215110779,-0.10166226327419281
1772094397917579800,3.406579833984375,-0.02936713956296444,0.7521066665649414,-0.21283486485481262
1772094397927529700,3.41652978515625,-0.015823327004909515,0.7566255331039429,-0.2732860743999481
1772094397937479700,3.426479736328125,-0.00842346716672182,0.7368899583816528,-0.27148231863975525
1772094397947428600,3.4364287109375,0.022280877456068993,0.706392228603363,-0.21514850854873657
1772094397957378600,3.446378662109375,0.0748056098818779,0.6752005219459534,-0.12564019858837128
1772094397967328800,3.456328857421875,0.14336112141609192,0.6592544317245483,-0.02693406119942665
1772094397977277700,3.466277587890625,0.2227392941713333,0.6200399398803711,0.0630088821053505
1772094397987227600,3.4762275390625,0.29969504475593567,0.5521907806396484,0.12341196089982986
1772094397997176600,3.486176513671875,0.34644922614097595,0.4520692527294159,0.1566716432571411
1772094398007126800,3.496126708984375,0.3631243109703064,0.30868324637413025,0.15245668590068817
1772094398017076700,3.50607666015625,0.3500082492828369,0.07427794486284256,0.10468276590108871
1772094398027025700,3.516025634765625,0.30019864439964294,-0.19799165427684784,0.021629583090543747
1772094398036975600,3.5259755859375,0.23890572786331177,-0.4020768702030182,-0.053835347294807434
1772094398046925800,3.53592578125,0.170770063996315,-0.47906818985939026,-0.08840999752283096
1772094398056874800,3.545874755859375,0.09940613806247711,-0.4549684226512909,-0.08918338268995285
1772094398066823700,3.55582373046875,0.03448444977402687,-0.38822534680366516,-0.09641319513320923
1772094398076773600,3.565773681640625,-0.02706945687532425,-0.29051661491394043,-0.15457478165626526
1772094398086722600,3.57572265625,-0.08434139937162399,-0.22317059338092804,-0.28815263509750366
1772094398096672800,3.5856728515625,-0.11494245380163193,-0.16530941426753998,-0.4764229357242584
1772094398106621700,3.59562158203125,-0.10747294872999191,-0.12593480944633484,-0.6779143810272217
1772094398116571600,3.605571533203125,-0.09012964367866516,-0.12463012337684631,-0.8585222363471985
1772094398126521900,3.61552197265625,-0.06530721485614777,-0.14176099002361298,-0.9785948991775513
1772094398136470800,3.625470703125,-0.031435269862413406,-0.11994624137878418,-1.0127876996994019
1772094398146420700,3.635420654296875,-0.0036750584840774536,-0.04095803201198578,-0.946194589138031
1772094398156370700,3.64537060546875,0.02505139447748661,0.09837137162685394,-0.7836719751358032
1772094398166319600,3.655319580078125,0.06361140310764313,0.2917952537536621,-0.5671518445014954
1772094398176269800,3.665269775390625,0.12143076956272125,0.49523037672042847,-0.3561275005340576
1772094398186219800,3.6752197265625,0.2023550420999527,0.6994293332099915,-0.1866980642080307
1772094398196168700,3.685168701171875,0.2966914176940918,0.8706207871437073,-0.06696314364671707
1772094398206119000,3.695118896484375,0.38631319999694824,0.9882073998451233,-0.004127827938646078
1772094398216067800,3.70506787109375,0.43952953815460205,1.0382481813430786,-0.0021616164594888687
1772094398226017800,3.715017822265625,0.4278468191623688,0.9751619696617126,-0.03265438228845596
1772094398235967700,3.7249677734375,0.3445700407028198,0.7713643908500671,-0.07830867916345596
1772094398245916700,3.734916748046875,0.2361803650856018,0.5144493579864502,-0.12862549722194672
1772094398255867000,3.744866943359375,0.13496187329292297,0.20271381735801697,-0.22143320739269257
1772094398265816600,3.754816650390625,0.07416463643312454,-0.29167312383651733,-0.33209940791130066
1772094398275765800,3.764765869140625,0.05036609619855881,-0.8513473272323608,-0.36428210139274597
1772094398285715700,3.7747158203125,0.04593418166041374,-1.3139514923095703,-0.1819000393152237
1772094398295665700,3.784665771484375,0.07337965071201324,-1.5671727657318115,0.2070024311542511
1772094398305614600,3.794614501953125,0.13638155162334442,-1.4177554845809937,0.7218453288078308
1772094398315564500,3.804564453125,0.229343444108963,-1.0595771074295044,1.2161837816238403
1772094398325513700,3.814513671875,0.297163724899292,-0.7182823419570923,1.5250641107559204
1772094398335463700,3.824463623046875,0.327235609292984,-0.4444553256034851,1.5721794366836548
1772094398345413600,3.83441357421875,0.36567801237106323,-0.26307255029678345,1.4230339527130127
1772094398355362600,3.844362548828125,0.3960372507572174,-0.18395590782165527,1.202067255973816
1772094398365312800,3.854312744140625,0.4248984456062317,-0.2249867469072342,0.9732508659362793
1772094398375262700,3.8642626953125,0.45203471183776855,-0.3208938539028168,0.7575329542160034
1772094398385211600,3.874211669921875,0.43815118074417114,-0.48569542169570923,0.585313081741333
1772094398395161600,3.88416162109375,0.4166847765445709,-0.6549022197723389,0.4422997534275055
1772094398405111800,3.89411181640625,0.3851913809776306,-0.7668110132217407,0.26166093349456787
1772094398415060700,3.904060791015625,0.2896480858325958,-0.8152019381523132,0.026548542082309723
1772094398425010700,3.9140107421875,0.10111480951309204,-0.6773324012756348,-0.21167629957199097
1772094398434959600,3.923959716796875,-0.1722450852394104,-0.37171393632888794,-0.4135904908180237
1772094398444909800,3.933909912109375,-0.4674884080886841,0.005347512662410736,-0.6075459718704224
1772094398454859800,3.94385986328125,-0.6956725120544434,0.41034987568855286,-0.769944429397583
1772094398464808700,3.95380859375,-0.8175576329231262,0.6208016276359558,-0.841815710067749
1772094398474758700,3.963758544921875,-0.8474164605140686,0.5922616124153137,-0.7929981350898743
1772094398484708900,3.973708984375,-0.769019603729248,0.48618268966674805,-0.6504008769989014
1772094398494657800,3.98365771484375,-0.5987045764923096,0.33940577507019043,-0.46750426292419434
1772094398504607700,3.993607666015625,-0.3775155544281006,0.1548815816640854,-0.28911906480789185
1772094398514557700,4.0035576171875,-0.1304064244031906,0.02683626301586628,-0.12637193500995636
1772094398524507000,4.0135068359375,0.09230495244264603,-0.01953156478703022,0.04841122403740883
1772094398534456800,4.023456787109375,0.22891072928905487,0.01121356338262558,0.2699638307094574
1772094398544405800,4.03340576171875,0.25588712096214294,0.09393086284399033,0.5200675129890442
1772094398554355700,4.043355712890625,0.1874534785747528,0.20386667549610138,0.7407823204994202
1772094398564305700,4.0533056640625,0.06621745973825455,0.30464112758636475,0.8766881823539734
1772094398574254800,4.0632548828125,-0.051370423287153244,0.3806898295879364,0.9061009287834167
1772094398584204800,4.073204833984375,-0.12307629734277725,0.4607340693473816,0.8594194650650024
1772094398594154500,4.083154541015625,-0.117987260222435,0.5521755814552307,0.7584454417228699
1772094398604103700,4.093103759765625,-0.06591784954071045,0.6616978645324707,0.6243672966957092
1772094398614053600,4.1030537109375,0.003913166467100382,0.7121415734291077,0.4833531975746155
1772094398624003600,4.113003662109375,0.08971915394067764,0.6274850368499756,0.3803824186325073
1772094398633952500,4.122952392578125,0.20498663187026978,0.4473118185997009,0.3164534866809845
1772094398643902700,4.13290283203125,0.26977652311325073,0.29390695691108704,0.2555026412010193
1772094398653851600,4.1428515625,0.28671929240226746,0.22971387207508087,0.17242693901062012
1772094398663801600,4.152801513671875,0.2748591899871826,0.29378095269203186,0.042680978775024414
1772094398673751600,4.16275146484375,0.24291963875293732,0.3917650282382965,-0.08868130296468735
1772094398683700700,4.17270068359375,0.23107296228408813,0.5031816363334656,-0.17656171321868896
1772094398693650700,4.182650634765625,0.1834559142589569,0.695030152797699,-0.25313183665275574
1772094398703600600,4.1926005859375,0.10749221593141556,0.8872778415679932,-0.3401585817337036
1772094398713549600,4.202549560546875,0.051819365471601486,1.0886484384536743,-0.428786963224411
1772094398723499800,4.212499755859375,0.0016530579887330532,1.2203583717346191,-0.5566098690032959
1772094398733449700,4.22244970703125,-0.051997654139995575,1.1146539449691772,-0.7735147476196289
1772094398743398700,4.232398681640625,-0.15131394565105438,0.7478123307228088,-1.0886973142623901
1772094398753348600,4.2423486328125,-0.3175085186958313,0.20452478528022766,-1.4547605514526367
1772094398763297800,4.2522978515625,-0.5125186443328857,-0.3543989360332489,-1.716651439666748
1772094398773247700,4.262247802734375,-0.6625779271125793,-0.7673755884170532,-1.7388097047805786
1772094398783197700,4.27219775390625,-0.6901581883430481,-0.9448372721672058,-1.482530951499939
1772094398793146600,4.282146728515625,-0.627994954586029,-0.9405040144920349,-1.0641136169433594
1772094398803096800,4.292096923828125,-0.5298211574554443,-0.8763796091079712,-0.6631922125816345
1772094398813046800,4.302046875,-0.41376328468322754,-0.9028207659721375,-0.44806742668151855
1772094398822995700,4.31199560546875,-0.3394926190376282,-1.1832456588745117,-0.4915003180503845
1772094398832946000,4.32194580078125,-0.3263840079307556,-1.6153020858764648,-0.696330726146698
1772094398842896000,4.331895751953125,-0.3400200307369232,-2.0248591899871826,-0.8678588271141052
1772094398852844800,4.3418447265625,-0.36476320028305054,-2.338545560836792,-0.9591666460037231
1772094398862794800,4.351794677734375,-0.35172930359840393,-2.419686794281006,-1.0420740842819214
1772094398872744700,4.36174462890625,-0.25572314858436584,-2.2263996601104736,-1.1579442024230957
1772094398882694000,4.37169384765625,-0.12155848741531372,-1.783481478691101,-1.35353684425354
1772094398892643600,4.3816435546875,0.030729049816727638,-1.155181884765625,-1.5568751096725464
1772094398902592800,4.3915927734375,0.15411467850208282,-0.5271302461624146,-1.7083379030227661
1772094398912542700,4.401542724609375,0.24118566513061523,0.07416943460702896,-1.7032095193862915
1772094398922492700,4.41149267578125,0.27150848507881165,0.5668748617172241,-1.5332485437393188
1772094398932441600,4.421441650390625,0.19544650614261627,0.8573266267776489,-1.2591943740844727
1772094398942391600,4.4313916015625,0.04869629442691803,0.9937409162521362,-0.958439826965332
1772094398952341800,4.441341796875,-0.10487328469753265,0.9748740196228027,-0.6986598968505859
1772094398962290700,4.451290771484375,-0.2242351472377777,0.848862886428833,-0.4535098671913147
1772094398972240600,4.46124072265625,-0.2825077772140503,0.7545329332351685,-0.19182687997817993
1772094398982190600,4.471190673828125,-0.25758153200149536,0.7618328332901001,0.07146202772855759
1772094398992139800,4.481139892578125,-0.18622666597366333,0.8468270897865295,0.276205837726593
1772094399002089700,4.49108984375,-0.10198884457349777,0.9565575122833252,0.3810008466243744
1772094399012038700,4.50103857421875,-0.02728930115699768,1.0242289304733276,0.39645305275917053
1772094399021988600,4.510988525390625,0.03431203216314316,1.0219625234603882,0.3525650203227997
1772094399031938800,4.520938720703125,0.0849461778998375,0.9590126276016235,0.295899361371994
1772094399041887700,4.5308876953125,0.13335606455802917,0.8180752992630005,0.24817541241645813
1772094399051837700,4.540837646484375,0.17643828690052032,0.5953381061553955,0.23086406290531158
1772094399061787600,4.55078759765625,0.20668473839759827,0.3331068754196167,0.24054740369319916
1772094399071737000,4.560737060546875,0.2303895205259323,0.14598515629768372,0.2967744767665863
1772094399081687000,4.57068701171875,0.23797470331192017,0.015903906896710396,0.38340410590171814
1772094399091637000,4.580636962890625,0.23619598150253296,-0.09284601360559464,0.46522122621536255
1772094399101586000,4.5905859375,0.22816890478134155,-0.15503376722335815,0.5273856520652771
1772094399111536000,4.6005361328125,0.2147737443447113,-0.16938021779060364,0.5393539071083069
1772094399121485000,4.610485107421875,0.1987042874097824,-0.1361536830663681,0.4820248484611511
1772094399131435000,4.62043505859375,0.17282848060131073,-0.08611582964658737,0.36875689029693604
1772094399141385000,4.630385009765625,0.13076871633529663,-0.041040852665901184,0.21901465952396393
1772094399151334100,4.640334228515625,0.08419456332921982,-0.017933135852217674,0.05955921858549118
1772094399161284000,4.6502841796875,0.026951586827635765,-0.05090469866991043,-0.0931246429681778
1772094399171233800,4.66023388671875,-0.030954590067267418,-0.1441531479358673,-0.22513408958911896
1772094399181183000,4.670182861328125,-0.08234726637601852,-0.2592705190181732,-0.34710025787353516
1772094399191133000,4.6801328125,-0.1192336454987526,-0.35294800996780396,-0.46026355028152466
1772094399201083000,4.690082763671875,-0.14464475214481354,-0.444664865732193,-0.5592301487922668
1772094399211031800,4.70003173828125,-0.1495060920715332,-0.5568832755088806,-0.6412233114242554
1772094399220982000,4.70998193359375,-0.12290399521589279,-0.6637654304504395,-0.6652657389640808
1772094399230931000,4.719930908203125,-0.08956840634346008,-0.7089605927467346,-0.6032180786132812
1772094399240881000,4.729880859375,-0.06706458330154419,-0.6323495507240295,-0.46135154366493225
1772094399250830800,4.739830810546875,-0.054643064737319946,-0.45193612575531006,-0.3085348308086395
1772094399260779800,4.74977978515625,-0.06573309749364853,-0.27580422163009644,-0.21850350499153137
1772094399270730000,4.75972998046875,-0.10495000332593918,-0.2134212851524353,-0.23936165869235992
1772094399280680000,4.769679931640625,-0.14490273594856262,-0.2524420917034149,-0.34245988726615906
1772094399290628900,4.77962890625,-0.16073362529277802,-0.2854335904121399,-0.42318058013916016
1772094399300579000,4.7895791015625,-0.14611153304576874,-0.24619616568088531,-0.4038550853729248
1772094399310529000,4.799529052734375,-0.08824584633111954,-0.05103626102209091,-0.2779695987701416
1772094399320478000,4.80947802734375,-0.0014179837889969349,0.3221267759799957,-0.048685912042856216
1772094399330428000,4.819427978515625,0.0873560979962349,0.6451216340065002,0.21495744585990906
1772094399340376800,4.829376953125,0.15957467257976532,0.8133556246757507,0.4368676245212555
1772094399350327000,4.8393271484375,0.22880300879478455,0.8206372261047363,0.5682821273803711
1772094399360277000,4.849277099609375,0.29037249088287354,0.6291384100914001,0.5846127271652222
1772094399370226000,4.859225830078125,0.31261709332466125,0.14965645968914032,0.4696349799633026
1772094399380176100,4.869176025390625,0.2764943242073059,-0.5101203322410583,0.2755463123321533
1772094399390126000,4.8791259765625,0.22635765373706818,-1.091662883758545,0.12730705738067627
1772094399400075000,4.889074951171875,0.18682225048542023,-1.7209951877593994,0.04206759110093117
1772094399410025000,4.89902490234375,0.1395101249217987,-2.2888705730438232,0.057279303669929504
1772094399419975200,4.90897509765625,0.08000658452510834,-2.5873725414276123,0.24926525354385376
1772094399429924000,4.918924072265625,0.0024827667511999607,-2.638309955596924,0.6087323427200317
1772094399439874000,4.9288740234375,-0.06531817466020584,-2.4400744438171387,1.0546019077301025
1772094399449823700,4.93882373046875,-0.08849034458398819,-2.0087406635284424,1.4674503803253174
1772094399459773200,4.948773193359375,-0.006204752251505852,-1.4115829467773438,1.7437244653701782
1772094399469723000,4.958722900390625,0.18699480593204498,-0.8207440972328186,1.8118295669555664
1772094399479672000,4.968672119140625,0.34414324164390564,-0.4373866021633148,1.6631869077682495
1772094399489621800,4.978621826171875,0.3468700349330902,-0.32163313031196594,1.326237678527832
1772094399499572000,4.988572021484375,0.19459779560565948,-0.3058624565601349,0.8655700087547302
1772094399509521000,4.99852099609375,-0.07034917175769806,-0.2629397511482239,0.34275662899017334
1772094399519470800,5.008470947265625,-0.33613356947898865,-0.16417700052261353,-0.1802225112915039
1772094399529420800,5.0184208984375,-0.5508216619491577,0.015950951725244522,-0.6431105732917786
1772094399539370000,5.028369873046875,-0.6808332800865173,0.20039820671081543,-1.0238012075424194
1772094399549320000,5.03831982421875,-0.7205415368080139,0.3167210817337036,-1.3349838256835938
1772094399559270000,5.048269775390625,-0.7348396182060242,0.37667474150657654,-1.5637131929397583
1772094399569218800,5.05821875,-0.7512657642364502,0.37011241912841797,-1.6726082563400269
1772094399579169000,5.0681689453125,-0.7673636078834534,0.23093652725219727,-1.639174222946167
1772094399589118000,5.078117919921875,-0.735344409942627,-0.022515449672937393,-1.46335768699646
1772094399599068000,5.08806787109375,-0.6467800736427307,-0.3077484965324402,-1.2141268253326416
1772094399609017900,5.098017822265625,-0.5481976270675659,-0.5641674995422363,-0.9114170074462891
1772094399618967000,5.107967041015625,-0.48116475343704224,-0.7052700519561768,-0.5650763511657715
1772094399628917000,5.1179169921875,-0.43784844875335693,-0.689859926700592,-0.263958603143692
1772094399638867000,5.127866943359375,-0.3869067132472992,-0.4484612047672272,-0.04481225088238716
1772094399648815900,5.13781591796875,-0.28521257638931274,-0.14052335917949677,0.0919991210103035
1772094399658766000,5.14776611328125,-0.13599327206611633,0.1632727086544037,0.20376712083816528
1772094399668716000,5.157716064453125,0.042525600641965866,0.4463089406490326,0.33734357357025146
1772094399678665000,5.1676650390625,0.2254188358783722,0.6951649785041809,0.5017317533493042
1772094399688615000,5.177614990234375,0.414806067943573,0.8783353567123413,0.6421761512756348
1772094399698564000,5.187564208984375,0.5680283308029175,0.9251269102096558,0.7232239246368408
1772094399708514000,5.19751416015625,0.665338397026062,0.9128931760787964,0.7269217371940613
1772094399718464000,5.207464111328125,0.7080472111701965,0.8434005975723267,0.6529977321624756
1772094399728413000,5.217412841796875,0.6920781135559082,0.6460514068603516,0.5331426858901978
1772094399738363100,5.227363037109375,0.6486309766769409,0.4428045153617859,0.44461074471473694
1772094399748312800,5.237312744140625,0.6073687076568604,0.36033546924591064,0.44516998529434204
1772094399758262000,5.247261962890625,0.5872602462768555,0.39170554280281067,0.49708986282348633
1772094399768212000,5.2572119140625,0.6023366451263428,0.4875948131084442,0.5425401926040649
1772094399778162000,5.267161865234375,0.6430903077125549,0.5644344091415405,0.5406134724617004
1772094399788110800,5.27711083984375,0.6697941422462463,0.6926602721214294,0.4910251200199127
1772094399798060800,5.287060791015625,0.6779321432113647,0.8871901631355286,0.4208032190799713
1772094399808010000,5.297010009765625,0.6704750061035156,1.0595382452011108,0.35157808661460876
1772094399817960000,5.3069599609375,0.6417085528373718,1.0829013586044312,0.27839913964271545
1772094399827910000,5.316909912109375,0.5907918214797974,0.8913252949714661,0.15997210144996643
1772094399837858800,5.32685888671875,0.5163697004318237,0.559147298336029,-0.005962973926216364
1772094399847808800,5.336808837890625,0.4390586316585541,0.2508632242679596,-0.1740579605102539
1772094399857759000,5.346759033203125,0.36324435472488403,0.013973257504403591,-0.257533997297287
1772094399867708000,5.3567080078125,0.29637184739112854,-0.16213838756084442,-0.20492590963840485
1772094399877657900,5.366657958984375,0.2721005976200104,-0.2531188428401947,-0.011486316099762917
1772094399887608000,5.376608154296875,0.28799009323120117,-0.28405997157096863,0.2981058955192566
1772094399897557000,5.386556884765625,0.28407877683639526,-0.24968069791793823,0.6370717883110046
1772094399907507000,5.3965068359375,0.23101234436035156,-0.19115586578845978,0.8158450126647949
1772094399917456000,5.406455810546875,0.14201772212982178,-0.18412426114082336,0.718196451663971
1772094399927406000,5.416406005859375,0.041088446974754333,-0.31018102169036865,0.3822799623012543
1772094399937356000,5.42635595703125,-0.12073008716106415,-0.6512642502784729,-0.11956898868083954
1772094399947305000,5.436304931640625,-0.37672725319862366,-1.1625269651412964,-0.6776626110076904
1772094399957255000,5.4462548828125,-0.6763210892677307,-1.5855414867401123,-1.1004436016082764
1772094399967205000,5.456205078125,-0.9185220003128052,-1.794819951057434,-1.28853178024292
1772094399977154000,5.466154052734375,-1.0603208541870117,-1.6271623373031616,-1.2563374042510986
1772094399987104000,5.47610400390625,-1.042533040046692,-0.9908767342567444,-1.0536741018295288
1772094399997054000,5.486053955078125,-0.8630443811416626,-0.11219730228185654,-0.778677761554718
1772094400007003100,5.496003173828125,-0.5697989463806152,0.668476402759552,-0.5412308573722839
1772094400016953000,5.505953125,-0.3123329281806946,1.1171683073043823,-0.3809531033039093
1772094400026902000,5.515902099609375,-0.18717527389526367,1.0954071283340454,-0.3682921826839447
1772094400036852000,5.52585205078125,-0.2001686841249466,0.7681481242179871,-0.48038801550865173
1772094400046802000,5.535802001953125,-0.2957892119884491,0.4619714319705963,-0.5568777322769165
1772094400056751000,5.545751220703125,-0.4000139534473419,0.265764057636261,-0.5319100618362427
1772094400066701000,5.555701171875,-0.4591963291168213,0.12672573328018188,-0.45760008692741394
1772094400076651300,5.5656513671875,-0.47277215123176575,0.06761573255062103,-0.31509339809417725
1772094400086600200,5.57560009765625,-0.4214570224285126,0.1374502032995224,-0.07853652536869049
1772094400096550100,5.585550048828125,-0.3232676684856415,0.3170691132545471,0.20885661244392395
1772094400106499000,5.5954990234375,-0.19376534223556519,0.5061322450637817,0.47696685791015625
1772094400116449300,5.60544921875,-0.1060561090707779,0.6437607407569885,0.6955511569976807
1772094400126399200,5.615399169921875,-0.0728669986128807,0.6932998299598694,0.8340418934822083
1772094400136348200,5.62534814453125,-0.08441098034381866,0.5356857776641846,0.8254536390304565
1772094400146298000,5.635298095703125,-0.142441526055336,0.19950538873672485,0.6703290343284607
1772094400156248300,5.645248291015625,-0.21579290926456451,-0.023079944774508476,0.45039743185043335
1772094400166197200,5.655197265625,-0.29794105887413025,-0.06508172303438187,0.24690183997154236
1772094400176147200,5.665147216796875,-0.3811802268028259,-0.03688624128699303,0.08481622487306595
1772094400186097200,5.67509716796875,-0.4285551905632019,-0.014307696372270584,-0.030330874025821686
1772094400196046300,5.68504638671875,-0.44207921624183655,-0.03558715432882309,-0.08100084960460663
1772094400205996300,5.694996337890625,-0.45561525225639343,-0.022625016048550606,-0.047037284821271896
1772094400215945200,5.7049453125,-0.4740722179412842,0.050118036568164825,0.05488396808505058
1772094400225895200,5.714895263671875,-0.4901965856552124,0.14978231489658356,0.1901451051235199
1772094400235845400,5.724845458984375,-0.4803176820278168,0.30620911717414856,0.2948642373085022
1772094400245794300,5.734794189453125,-0.426019549369812,0.45242464542388916,0.3268682360649109
1772094400255744300,5.744744140625,-0.3438752591609955,0.5700064301490784,0.27897384762763977
1772094400265694200,5.754694091796875,-0.2435992807149887,0.6260606646537781,0.15942642092704773
1772094400275643400,5.764643310546875,-0.15158142149448395,0.5489746928215027,-0.014987040311098099
1772094400285593300,5.77459326171875,-0.10104954242706299,0.2774600684642792,-0.23167140781879425
1772094400295543300,5.784543212890625,-0.10648082941770554,-0.07753556966781616,-0.438670814037323
1772094400305492200,5.7944921875,-0.1435842663049698,-0.4246123135089874,-0.5564067959785461
1772094400315442400,5.8044423828125,-0.18918368220329285,-0.7150644659996033,-0.5572488903999329
1772094400325391400,5.814391357421875,-0.21567600965499878,-0.9342346787452698,-0.45487937331199646
1772094400335341300,5.82434130859375,-0.2592332065105438,-1.0068371295928955,-0.21444013714790344
1772094400345291300,5.834291259765625,-0.2693161964416504,-1.0628185272216797,0.09098342061042786
1772094400355240400,5.844240478515625,-0.2005152702331543,-1.106857419013977,0.34722426533699036
1772094400365190100,5.854190185546875,-0.03673166781663895,-1.1245448589324951,0.46537885069847107
1772094400375140000,5.86414013671875,0.08095692843198776,-1.0191818475723267,0.40733397006988525
1772094400385089300,5.87408935546875,0.10936354100704193,-0.7183937430381775,0.2739628553390503
1772094400395039200,5.884039306640625,0.12844480574131012,-0.2841191589832306,0.15182338654994965
1772094400404989200,5.8939892578125,0.17826242744922638,0.16192302107810974,0.056957073509693146
1772094400414938000,5.903938232421875,0.2398776113986969,0.5672391653060913,0.029921360313892365
1772094400424888000,5.91388818359375,0.2847672998905182,0.9389509558677673,0.043874725699424744
1772094400434837200,5.923837158203125,0.31722551584243774,1.2581446170806885,0.052705779671669006
1772094400444787200,5.933787109375,0.34049299359321594,1.4670213460922241,0.01277487725019455
1772094400454737200,5.943737060546875,0.3636854588985443,1.536194086074829,-0.058772049844264984
1772094400464686000,5.95368603515625,0.37922075390815735,1.4584561586380005,-0.13024994730949402
1772094400474636300,5.96363623046875,0.39274758100509644,1.2565021514892578,-0.15349631011486053
1772094400484586200,5.973586181640625,0.41029834747314453,0.9872824549674988,-0.10569122433662415
1772094400494535200,5.98353515625,0.41816622018814087,0.6575384736061096,-0.013784819282591343
1772094400504485000,5.993485107421875,0.3833736181259155,0.2791309952735901,0.08323920518159866
1772094400514434300,6.003434326171875,0.32664307951927185,-0.07080920040607452,0.1566370576620102
1772094400524384300,6.01338427734375,0.2930888533592224,-0.34136131405830383,0.20022422075271606
1772094400534334200,6.023334228515625,0.2796075642108917,-0.620498538017273,0.23394151031970978
1772094400544283100,6.033283203125,0.28169122338294983,-0.916673481464386,0.3164103031158447
1772094400554233300,6.0432333984375,0.3447730839252472,-1.157605528831482,0.4948819577693939
1772094400564183300,6.053183349609375,0.4366534948348999,-1.4040768146514893,0.7644301056861877
1772094400574132200,6.06313232421875,0.5035291314125061,-1.6950600147247314,1.088285207748413
1772094400584082400,6.07308251953125,0.4994771480560303,-1.892661213874817,1.3793604373931885
1772094400594031400,6.08303125,0.45476409792900085,-1.9053022861480713,1.5522929430007935
1772094400603981300,6.092981201171875,0.4161405563354492,-1.6570216417312622,1.620323657989502
1772094400613931300,6.10293115234375,0.41935527324676514,-1.0586470365524292,1.652588129043579
1772094400623880200,6.112880126953125,0.44794031977653503,-0.28022024035453796,1.6301584243774414
1772094400633830400,6.122830322265625,0.42063459753990173,0.36010631918907166,1.480952501296997
1772094400643780400,6.1327802734375,0.2735295593738556,0.6771170496940613,1.1283936500549316
1772094400653729300,6.142729248046875,0.04364243149757385,0.5039803981781006,0.5754579901695251
1772094400663679500,6.152679443359375,-0.18574361503124237,-0.012690156698226929,-0.08496704697608948
1772094400673629200,6.162629150390625,-0.4498295485973358,-0.5220816135406494,-0.6877366304397583
1772094400683578400,6.172578369140625,-0.6848060488700867,-0.8259797096252441,-1.1620522737503052
1772094400693528000,6.182528076171875,-0.8116883635520935,-0.94368577003479,-1.520493745803833
1772094400703477200,6.192477294921875,-0.8043795824050903,-0.7740397453308105,-1.7612810134887695
1772094400713427200,6.20242724609375,-0.7176885008811951,-0.38202357292175293,-1.8772900104522705
1772094400723377200,6.212377197265625,-0.5785385966300964,-0.003984908573329449,-1.830859661102295
1772094400733326000,6.222326171875,-0.4558432996273041,0.25496262311935425,-1.636919379234314
1772094400743276300,6.2322763671875,-0.3631535768508911,0.3941681683063507,-1.3523504734039307
1772094400753226200,6.242226318359375,-0.28457170724868774,0.41183674335479736,-1.0415949821472168
1772094400763175200,6.252175048828125,-0.2567715048789978,0.3755868673324585,-0.7443427443504333
1772094400773125000,6.262125,-0.3398270010948181,0.3361333906650543,-0.47039148211479187
1772094400783074000,6.272073974609375,-0.4379042983055115,0.16671162843704224,-0.21829956769943237
1772094400793024300,6.282024169921875,-0.493495374917984,-0.011627929285168648,-0.006045101210474968
1772094400802974200,6.29197412109375,-0.5170758366584778,-0.05070129781961441,0.1503216028213501
1772094400812923100,6.301923095703125,-0.5138431191444397,0.07234818488359451,0.2749396860599518
1772094400822873300,6.311873291015625,-0.4667387306690216,0.32605448365211487,0.3583352267742157
1772094400832823300,6.3218232421875,-0.3692193627357483,0.6942188143730164,0.39782121777534485
1772094400842772200,6.331772216796875,-0.22253483533859253,1.1466126441955566,0.3889784514904022
1772094400852722200,6.34172216796875,-0.017428813502192497,1.4758191108703613,0.33198341727256775
1772094400862672400,6.35167236328125,0.21139265596866608,1.6808656454086304,0.26095879077911377
1772094400872621300,6.361621337890625,0.42097774147987366,1.8415582180023193,0.1988895982503891
1772094400882571300,6.3715712890625,0.5798140168190002,1.898205280303955,0.16320084035396576
1772094400892520200,6.381520263671875,0.6728249788284302,1.8536642789840698,0.1460525393486023
1772094400902470400,6.391470458984375,0.7008941769599915,1.7407288551330566,0.13922739028930664
1772094400912420400,6.40142041015625,0.6793844103813171,1.487714409828186,0.12567158043384552
1772094400922369300,6.411369384765625,0.6156044006347656,1.0578128099441528,0.08960597962141037
1772094400932319200,6.4213193359375,0.49666011333465576,0.5327895283699036,0.007102431729435921
1772094400942268200,6.43126806640625,0.29177966713905334,0.12775786221027374,-0.21451491117477417
1772094400952218400,6.44121826171875,0.13794341683387756,-0.33227968215942383,-0.3270873725414276
1772094400962168300,6.451168212890625,0.04661111533641815,-0.5434768795967102,-0.30495092272758484
1772094400972117200,6.4611171875,-0.03521551936864853,-0.5323588848114014,-0.1678774356842041
1772094400982067500,6.4710673828125,-0.04547960311174393,-0.28830650448799133,0.0943744108080864
1772094400992017200,6.48101708984375,-0.004502458032220602,0.14956198632717133,0.43198972940444946
1772094401001966300,6.49096630859375,0.06488008052110672,0.6627147793769836,0.7445383071899414
1772094401011916300,6.500916259765625,0.14420463144779205,0.9761762619018555,0.9319422841072083
1772094401021866200,6.5108662109375,0.2151176929473877,1.0482441186904907,0.913946270942688
1772094401031815200,6.520815185546875,0.2847932279109955,0.7703068256378174,0.6684245467185974
1772094401041765000,6.53076513671875,0.3632659316062927,0.12148886173963547,0.3316532075405121
1772094401051714300,6.54071435546875,0.40249964594841003,-0.5693899989128113,0.0770367756485939
1772094401061664300,6.550664306640625,0.315531462430954,-1.1438111066818237,-0.002570698969066143
1772094401071614200,6.5606142578125,0.09990747272968292,-1.6798288822174072,0.0334622897207737
1772094401081563100,6.570563232421875,-0.1509881317615509,-2.4433367252349854,-0.07794652879238129
1772094401091513000,6.58051318359375,-0.31388798356056213,-3.160984992980957,-0.5180544853210449
1772094401101463300,6.59046337890625,-0.31947848200798035,-3.2910544872283936,-1.0559501647949219
1772094401111412200,6.600412109375,-0.2177554965019226,-2.712846279144287,-1.4408466815948486
1772094401121362200,6.610362060546875,-0.13363583385944366,-1.813933253288269,-1.6700173616409302
1772094401131311000,6.62031103515625,-0.21109449863433838,-0.8363909721374512,-1.666259527206421
1772094401141261000,6.630260986328125,-0.33208614587783813,0.0765874981880188,-1.439475655555725
1772094401151211300,6.640211181640625,-0.410055547952652,0.8395196199417114,-1.1391706466674805
1772094401161160200,6.65016015625,-0.3934933543205261,1.1599434614181519,-0.950326681137085
1772094401171110100,6.660110107421875,-0.31818926334381104,0.9703637957572937,-0.9204719662666321
1772094401181060400,6.670060302734375,-0.19431205093860626,0.4320680797100067,-0.9722585082054138
1772094401191009300,6.68000927734375,-0.04653927683830261,-0.23938104510307312,-0.9768038392066956
1772094401200959200,6.689959228515625,0.05902176350355148,-0.7592583298683167,-0.8480088114738464
1772094401210908200,6.699908203125,0.10032570362091064,-0.9332237839698792,-0.5918453335762024
1772094401220858000,6.709858154296875,0.11768126487731934,-0.8908158540725708,-0.30099672079086304
1772094401230808300,6.719808349609375,0.1457357108592987,-0.7738314867019653,-0.051090169697999954
1772094401240757200,6.72975732421875,0.17720894515514374,-0.4499293267726898,0.1528155505657196
1772094401250707200,6.739707275390625,0.21417218446731567,0.046230293810367584,0.315166711807251
1772094401260657400,6.749657470703125,0.24337002635002136,0.5998141169548035,0.4207594692707062
1772094401270606300,6.7596064453125,0.26049867272377014,1.0843305587768555,0.4800264239311218
1772094401280556300,6.769556396484375,0.26220306754112244,1.3524928092956543,0.4811052680015564
1772094401290505200,6.779505126953125,0.23669403791427612,1.3896554708480835,0.4355950355529785
1772094401300455200,6.789455078125,0.19593408703804016,1.2164226770401,0.3823773264884949
1772094401310405400,6.7994052734375,0.12379589676856995,0.9060044288635254,0.3419039249420166
1772094401320354300,6.809354248046875,0.05098959803581238,0.6243895292282104,0.31649523973464966
1772094401330304300,6.81930419921875,0.0155970249325037,0.37165892124176025,0.263999342918396
1772094401340254200,6.829254150390625,0.015867868438363075,0.1817702353000641,0.18130871653556824
1772094401350203400,6.839203369140625,0.02251964434981346,0.15616074204444885,0.12145017087459564
1772094401360153000,6.849153076171875,0.02276385761797428,0.25410196185112,0.09278817474842072
1772094401370102300,6.859102294921875,0.0428299754858017,0.38037145137786865,0.1053609549999237
1772094401380052000,6.869052001953125,0.07846546918153763,0.5055016875267029,0.16494758427143097
1772094401390002200,6.879002197265625,0.14052389562129974,0.5799021124839783,0.2555752396583557
1772094401399951000,6.888951171875,0.21565592288970947,0.5748085379600525,0.3361382484436035
1772094401409901000,6.898901123046875,0.28735002875328064,0.5107827186584473,0.37857139110565186
1772094401419851300,6.908851318359375,0.3304804563522339,0.4033278822898865,0.35958757996559143
1772094401429800200,6.91880029296875,0.3661041557788849,0.2988227307796478,0.28041064739227295
1772094401439750100,6.928750244140625,0.37828943133354187,0.2184288054704666,0.1598045825958252
1772094401449699000,6.938698974609375,0.3621286153793335,0.12541727721691132,-0.004506601020693779
1772094401459649300,6.948649169921875,0.3101554214954376,-0.01074216514825821,-0.2007562667131424
1772094401469599200,6.95859912109375,0.23124313354492188,-0.20990493893623352,-0.4206719398498535
1772094401479548200,6.968548095703125,0.16060519218444824,-0.39349740743637085,-0.6262543797492981
1772094401489498000,6.978498046875,0.12367786467075348,-0.4622524380683899,-0.7677302956581116
1772094401499448300,6.9884482421875,0.1075766533613205,-0.367396742105484,-0.819780707359314
1772094401509397200,6.998397216796875,0.07282288372516632,-0.1520364135503769,-0.7592976689338684
1772094401519347200,7.00834716796875,0.014131074771285057,0.07392588257789612,-0.6233864426612854
1772094401529296100,7.018296142578125,-0.08319585025310516,0.2086409032344818,-0.4661009609699249
1772094401539246300,7.028246337890625,-0.18601945042610168,0.29812392592430115,-0.32401812076568604
1772094401549196300,7.0381962890625,-0.265271931886673,0.3022134006023407,-0.2342904657125473
1772094401559145200,7.048145263671875,-0.32380393147468567,0.16744813323020935,-0.20983386039733887
1772094401569095200,7.05809521484375,-0.3709125518798828,-0.06826995313167572,-0.22934897243976593
1772094401579045400,7.06804541015625,-0.4006030857563019,-0.29518193006515503,-0.2520284354686737
1772094401588994300,7.077994384765625,-0.4157295525074005,-0.4233276844024658,-0.23356443643569946
1772094401598944300,7.0879443359375,-0.40037986636161804,-0.43868348002433777,-0.176200732588768
1772094401608893200,7.09789306640625,-0.3519956171512604,-0.36248543858528137,-0.12085063010454178
1772094401618843400,7.107843505859375,-0.27813151478767395,-0.27815642952919006,-0.06354951858520508
1772094401628793300,7.11779345703125,-0.15657258033752441,-0.21073441207408905,0.012178432196378708
1772094401638742300,7.1277421875,-0.015491087920963764,-0.2150343507528305,0.12536676228046417
1772094401648692200,7.137692138671875,0.09233253449201584,-0.24906867742538452,0.24092279374599457
1772094401658641200,7.14764111328125,0.14928369224071503,-0.2660734951496124,0.3343779146671295
1772094401668591400,7.15759130859375,0.16617915034294128,-0.26148590445518494,0.38880616426467896
1772094401678541000,7.167541015625,0.15789805352687836,-0.2605993151664734,0.39962366223335266
1772094401688490200,7.177490234375,0.16761469841003418,-0.2774523198604584,0.3727792799472809
1772094401698440200,7.187440185546875,0.15178780257701874,-0.29786625504493713,0.26423871517181396
1772094401708390100,7.19739013671875,0.13223667442798615,-0.37921369075775146,0.07262369245290756
1772094401718339300,7.20733935546875,0.11408405005931854,-0.6045458912849426,-0.17827297747135162
1772094401728289000,7.2172890625,-0.050924152135849,-0.8127238154411316,-0.41488412022590637
1772094401738238200,7.22723828125,-0.25408047437667847,-0.9226697683334351,-0.5537315011024475
1772094401748188200,7.237188232421875,-0.4035836458206177,-0.9776408672332764,-0.5722454190254211
1772094401758138000,7.24713818359375,-0.49000054597854614,-1.007171869277954,-0.5177603363990784
1772094401768087000,7.257087158203125,-0.5282536149024963,-1.0287710428237915,-0.3779234290122986
1772094401778037200,7.267037353515625,-0.5415393710136414,-1.1044676303863525,-0.18020552396774292
1772094401787987200,7.2769873046875,-0.5552542805671692,-1.0561062097549438,0.07313595712184906
1772094401797936000,7.28693603515625,-0.5216017365455627,-0.7274420261383057,0.39693108201026917
1772094401807886000,7.296885986328125,-0.39220771193504333,-0.2685334384441376,0.6818208694458008
1772094401817835000,7.3068349609375,-0.18472376465797424,0.11278649419546127,0.8081868290901184
1772094401827785200,7.31678515625,0.011968636885285378,0.316606342792511,0.7687439918518066
1772094401837735200,7.326735107421875,0.11618026345968246,0.3022098243236542,0.5495985746383667
1772094401847684000,7.33668408203125,0.11677376925945282,0.2088964283466339,0.23913078010082245
1772094401857634300,7.34663427734375,0.058393023908138275,0.11219890415668488,-0.0926937684416771
1772094401867584300,7.356584228515625,-0.06950441002845764,0.0539596788585186,-0.37125423550605774
1772094401877533200,7.366533203125,-0.2672576904296875,0.06538117676973343,-0.5361590385437012
1772094401887483100,7.376483154296875,-0.48261481523513794,0.11683684587478638,-0.6030976176261902
1772094401897432000,7.38643212890625,-0.6204121112823486,0.15408435463905334,-0.5763131380081177
1772094401907382300,7.39638232421875,-0.6923151016235352,0.16091015934944153,-0.5003429055213928
1772094401917332200,7.406332275390625,-0.7282525897026062,0.16152481734752655,-0.37424328923225403
1772094401927281200,7.41628125,-0.7323586940765381,0.14462162554264069,-0.19100704789161682
1772094401937231400,7.4262314453125,-0.6527474522590637,0.09701921790838242,0.03278210386633873
1772094401947180300,7.43618017578125,-0.49817973375320435,0.06939022243022919,0.2571055591106415
1772094401957130200,7.446130126953125,-0.32869216799736023,0.07274366915225983,0.40871986746788025
1772094401967080200,7.456080078125,-0.16380056738853455,0.10940451174974442,0.41382160782814026
1772094401977029400,7.466029296875,-0.07444939017295837,0.24040541052818298,0.30994713306427
1772094401986979300,7.475979248046875,-0.031258322298526764,0.45771360397338867,0.18395470082759857
1772094401996929300,7.48592919921875,-0.005189971067011356,0.7846463918685913,0.11593624204397202
1772094402006878200,7.495878173828125,0.003247582819312811,1.2140161991119385,0.1650341898202896
1772094402016828400,7.505828369140625,-0.012497026473283768,1.5838384628295898,0.31475311517715454
1772094402026777300,7.51577734375,-0.012990291230380535,1.7906783819198608,0.5373222231864929
1772094402036727300,7.525727294921875,0.020300554111599922,1.8184798955917358,0.7706260681152344
1772094402046677000,7.535677001953125,0.0702214241027832,1.6821967363357544,0.9864715933799744
1772094402056626400,7.54562646484375,0.1211775541305542,1.4287922382354736,1.1607331037521362
1772094402066576100,7.555576171875,0.18474414944648743,1.0684889554977417,1.2999368906021118
1772094402076525000,7.565525146484375,0.24898011982440948,0.5198515057563782,1.3892366886138916
1772094402086475000,7.57547509765625,0.2515725791454315,-0.12121466547250748,1.3954730033874512
1772094402096425000,7.585425048828125,0.24978533387184143,-0.6271020770072937,1.3695436716079712
1772094402106374100,7.5953740234375,0.2848408818244934,-0.8401085138320923,1.3156006336212158
1772094402116324000,7.605323974609375,0.3488331735134125,-0.8026767373085022,1.1817818880081177
1772094402126274000,7.615274169921875,0.4283200800418854,-0.4158177077770233,0.961486279964447
1772094402136223000,7.625222900390625,0.5479767322540283,0.07726257294416428,0.8150134682655334
1772094402146173000,7.6351728515625,0.6131517291069031,0.45782169699668884,0.6959425806999207
1772094402156121900,7.645121826171875,0.5569388270378113,0.6737965941429138,0.5601480007171631
1772094402166072000,7.655072021484375,0.42812997102737427,0.7098672986030579,0.46419066190719604
1772094402176022000,7.66502197265625,0.2656947076320648,0.6341435313224792,0.41537171602249146
1772094402185971000,7.674970947265625,0.17263703048229218,0.5955221652984619,0.4388233721256256
1772094402195921200,7.684921142578125,0.1929846554994583,0.5592861175537109,0.548138439655304
1772094402205871000,7.69487109375,0.2595660090446472,0.49525222182273865,0.7206234335899353
1772094402215820000,7.704820068359375,0.3080967962741852,0.5299015641212463,0.9263065457344055
1772094402225770000,7.71477001953125,0.314104288816452,0.6888076066970825,1.0899477005004883
1772094402235719000,7.724718994140625,0.26373645663261414,0.805941641330719,1.1367865800857544
1772094402245669000,7.734669189453125,0.1907285451889038,0.6937548518180847,1.0634751319885254
1772094402255619000,7.744619140625,0.09372476488351822,0.3939252495765686,0.8541579246520996
1772094402265568000,7.754568115234375,-0.05357995256781578,-0.019519196823239326,0.5097904205322266
1772094402275518200,7.764518310546875,-0.27544763684272766,-0.5102665424346924,0.003500645514577627
1772094402285467100,7.774467041015625,-0.5573641657829285,-1.0719084739685059,-0.6554588675498962
1772094402295417000,7.7844169921875,-0.8641525506973267,-1.5481029748916626,-1.412732720375061
1772094402305367000,7.794366943359375,-1.058406114578247,-1.6591663360595703,-2.0759665966033936
1772094402315316200,7.804316162109375,-1.023532509803772,-1.202440857887268,-2.4053831100463867
1772094402325266200,7.81426611328125,-0.7805023789405823,-0.27572524547576904,-2.3118672370910645
1772094402335215000,7.824215087890625,-0.4346272647380829,0.7032578587532043,-1.8660527467727661
1772094402345165000,7.8341650390625,-0.03893040120601654,1.392024278640747,-1.2348942756652832
1772094402355115300,7.844115234375,0.20056766271591187,1.7401041984558105,-0.6323575973510742
1772094402365064200,7.854064208984375,0.1877981275320053,1.7002284526824951,-0.2619849741458893
1772094402375014100,7.86401416015625,-0.0325680673122406,1.1439383029937744,-0.13091962039470673
1772094402384964000,7.873964111328125,-0.2891802191734314,0.3198105990886688,-0.10212147235870361
1772094402394913300,7.883913330078125,-0.43619975447654724,-0.2873363196849823,-0.08725224435329437
1772094402404863200,7.89386328125,-0.3817223906517029,-0.41596364974975586,-0.07344190776348114
1772094402414812200,7.903812255859375,-0.20269005000591278,-0.2745276987552643,-0.08642082661390305
1772094402424762000,7.91376220703125,-0.0058257095515728,0.06378553807735443,-0.09559452533721924
1772094402434712000,7.923712158203125,0.14986002445220947,0.5500686764717102,-0.09579852223396301
1772094402444661200,7.9336611328125,0.22768983244895935,1.1095657348632812,0.05037882179021835
1772094402454611000,7.94361083984375,0.15326352417469025,1.367741346359253,0.34264156222343445
1772094402464560000,7.95356005859375,0.0011635618284344673,1.05147123336792,0.5560471415519714
1772094402474510000,7.963510009765625,-0.0677230954170227,0.684146523475647,0.6652588248252869
1772094402484460000,7.9734599609375,-0.07183222472667694,0.4589078426361084,0.6669490337371826
1772094402494409000,7.983408935546875,-0.03174019604921341,0.2711528539657593,0.5288457870483398
1772094402504359000,7.99335888671875,0.0937231257557869,0.15230202674865723,0.33007413148880005
1772094402514309000,8.00330908203125,0.2433195412158966,0.11282332241535187,0.09863290935754776
1772094402524258000,8.013258056640625,0.3303946554660797,0.0802697017788887,-0.11015482246875763
1772094402534208000,8.0232080078125,0.3791981339454651,0.12264672666788101,-0.30125874280929565
1772094402544157000,8.033156982421875,0.39009514451026917,0.2646791636943817,-0.41729089617729187
1772094402554107100,8.043107177734376,0.38070565462112427,0.43513423204421997,-0.3842301666736603
1772094402564057000,8.05305712890625,0.26612588763237,0.4426663815975189,-0.22211021184921265
1772094402574006000,8.063006103515624,0.1310999095439911,0.22468534111976624,0.015654679387807846
