time,seconds_elapsed,z,y,x
1772094095054902500,0.102902587890625,0.18179449099898337,0.03789713879111223,-0.01028437038809061
1772094095064852500,0.1128525390625,0.15048516049981117,0.08614527433258481,-0.050843321400135755
1772094095074801400,0.122801513671875,0.10413783534467219,0.13824054115572942,-0.09411401558890939
1772094095084750300,0.132750244140625,0.08424655543863772,0.09818716504564508,-0.025448183380812405
1772094095094699300,0.14269921875,0.118864279833436,0.0141998267987743,0.09055120854079723
1772094095104649500,0.1526494140625,0.18955986430346963,-0.06452738069649785,0.10785992460772395
1772094095114598400,0.162598388671875,0.25232874742746353,-0.09093388771545141,0.0571435905881226
1772094095124547600,0.172547607421875,0.3245142781943083,-0.027726138250157236,-0.017742723570019006
1772094095134496500,0.18249658203125,0.2554524324059486,0.028237923697195945,-0.11474296211972831
1772094095144446500,0.192446533203125,0.06910977658331394,0.10222978236679918,-0.16254282417073845
1772094095154395600,0.202395751953125,0.10642448497712612,0.017454691275721416,-0.0757065444998443
1772094095164344600,0.212344482421875,0.06800970638692379,-0.0996002467139624,-0.09203545574918388
1772094095174293500,0.22229345703125,-0.0465682744294405,-0.10547181476163678,0.003074146748334169
1772094095184243500,0.232243408203125,-0.15456746137738228,-0.05283334443988278,0.0084777593575418
1772094095194192400,0.2421923828125,-0.15442483803629875,-0.0502858427810017,-0.02801511125937104
1772094095204141300,0.252141357421875,-0.13386369604468346,-0.022542744262889026,-0.04865662501081824
1772094095214090200,0.26209033203125,-0.06661679072380065,0.020872683025663717,-0.08717398719266056
1772094095224040400,0.27204052734375,0.014182254609465598,0.012507681593904271,-0.06289294789507985
1772094095233989400,0.2819892578125,0.09610650458037853,-0.010532846990134567,0.012240619022399186
1772094095243938600,0.2919384765625,0.05542027392685413,-0.005987915303185582,0.02053513076752424
1772094095253887500,0.301887451171875,0.02665069103837013,0.03831471574921161,0.01361950616016984
1772094095263837700,0.311837646484375,0.060946928393840784,0.05944011316061951,-0.017327274636924267
1772094095273786600,0.32178662109375,0.14198153604865074,0.06912346718194894,-0.06263897313401103
1772094095283735600,0.331735595703125,0.209242469894886,0.08280689629064872,-0.07759615763872861
1772094095293684500,0.3416845703125,0.25317805773317814,0.0532012370373588,-0.029270664278417825
1772094095303634400,0.351634521484375,0.26143501394689084,-0.02419511457979679,0.006170213067531585
1772094095313583400,0.361583251953125,0.18461597816050052,-0.06346246401187963,-0.00015957447588443754
1772094095323532500,0.371532470703125,0.09532792142331599,-0.07835702247601002,0.0024893325977027414
1772094095333481500,0.3814814453125,0.04263678019940853,-0.04358191556241363,-0.02409676877185702
1772094095343431400,0.391431396484375,0.009554010286927223,-0.005821061703143641,-0.0826302062831819
1772094095353380400,0.40138037109375,0.03719955758154392,-0.016026868695998564,-0.07971037331372499
1772094095363329500,0.41132958984375,0.06088847620487213,-0.030268927201302722,-0.06759221162721514
1772094095373278500,0.421278564453125,0.0469733480989933,-0.05790192554160021,-0.06917611981779337
1772094095383227400,0.431227294921875,-0.04530512262582779,-0.03685889091771096,-0.037480566480010746
1772094095393177600,0.441177490234375,-0.13678747453689574,0.04864827730758115,-0.033231969124823804
1772094095403126500,0.45112646484375,-0.13344167124032974,0.04315919663831591,-0.036723026110976935
1772094095413075500,0.461075439453125,-0.023627543824911116,-0.03028751317076385,0.00834463449716568
1772094095423024400,0.4710244140625,0.0641530309587717,-0.06235714225163683,0.03409428504258394
1772094095432974600,0.480974609375,0.12345979093015193,-0.06500971172018907,0.032250703002512454
1772094095442923500,0.490923583984375,0.19384967045187948,-0.02151265229647979,-0.0038826866522431373
1772094095452872400,0.50087255859375,0.16734861701726914,0.027509417626401408,-0.03596855448186397
1772094095462821400,0.5108212890625,0.09778408240377902,0.0424192284585908,-0.06684855365306139
1772094095472771300,0.520771240234375,0.0860650030374527,0.04876768416985869,-0.04923062550649047
1772094095482720300,0.53072021484375,0.15667700087726116,0.08225834989664145,0.025895634887367486
1772094095492669700,0.540669677734375,0.13679215071201323,-0.02251434015231207,-0.08865165852978825
1772094095502618600,0.55061865234375,0.32916941052377224,-0.08024039767035282,-0.07259206574112176
1772094095512568600,0.560568603515625,0.44431203948557374,-0.004618882839148864,-0.1652699110470712
1772094095522517500,0.570517578125,0.40478550026118754,-0.00014705292102880775,-0.23467516344562173
1772094095532466400,0.580466552734375,0.22618074521422385,-0.006918437618948519,-0.2142994610235095
1772094095542415400,0.590415283203125,-0.10429039555788039,-0.08357304009124636,-0.10502075565904379
1772094095552365600,0.600365478515625,-0.4099585189849138,-0.10698884086161851,-0.029760055230557917
1772094095562314500,0.610314453125,-0.5205582438200712,-0.14358558284495956,0.03730331021696329
1772094095572263400,0.620263427734375,-0.46661564123034477,-0.12256753653185441,-0.007157616669684648
1772094095582212400,0.63021240234375,-0.3478934002161026,-0.10399144914392382,-0.09932356693074107
1772094095592162300,0.640162353515625,-0.2590963418662548,-0.044681008511269465,0.014877981788665055
1772094095602111500,0.650111572265625,-0.1343453420817852,0.029510099057480692,0.06855842631086707
1772094095612060700,0.660060791015625,0.011765841117501258,0.00581420270409435,0.0616794804520905
1772094095622009600,0.670009521484375,0.14769582204222678,0.10490522125428542,0.09491261862069368
1772094095631959600,0.67995947265625,0.3168909437090158,0.054966621008375655,0.06734393595457076
1772094095641908500,0.689908447265625,0.37155367726683614,0.03270810964750126,0.014793226114660501
1772094095651857400,0.699857421875,0.4086088579416275,0.07955681758667342,0.0751427731372416
1772094095661806300,0.709806396484375,0.36442601734399793,0.06168485988010652,0.07441767373308539
1772094095671756500,0.719756591796875,0.25880700353085995,0.003208778579207137,-0.0376665905714035
1772094095681705500,0.72970556640625,0.06755728644430636,0.03143226275909692,-0.03163900084495544
1772094095691654400,0.739654296875,-0.0814157159268856,0.12340591445160097,0.046857612764835355
1772094095701603300,0.749603271484375,-0.1755243246883154,0.08287821709434501,0.12213000363111495
1772094095711553500,0.759553466796875,-0.23076515039503573,-0.06478287156121805,0.07384805715158581
1772094095721502500,0.76950244140625,-0.19712357755601406,-0.07890513961175456,0.056135582589358086
1772094095731451400,0.779451416015625,-0.11116261941492557,0.014227463724371045,-0.0648193128477782
1772094095741400600,0.789400634765625,-0.08942541938126086,0.09433536672201007,-0.1910103553727269
1772094095751350500,0.7993505859375,0.0016319851160049438,0.13406433318331837,-0.1916699883252382
1772094095761296400,0.80929638671875,0.038436405900120735,0.004000047687906772,-0.14718750719390808
1772094095771245600,0.81924560546875,0.05346621724963188,-0.0505219622249715,-0.1103419506818056
1772094095781194500,0.829194580078125,0.12276830153465271,0.022488986515346913,0.046642874035611744
1772094095791144400,0.83914453125,0.1792927373111248,-0.052667303690593685,0.11055296308398246
1772094095801093600,0.84909375,0.44454117206633087,-0.2716979214218445,-0.16542086382508278
1772094095811042600,0.85904248046875,0.5023468798249959,0.04087705878419801,-0.043985126068443056
1772094095820991500,0.868991455078125,0.33432314002513885,0.0835726747650653,-0.05146079571135342
1772094095830941400,0.87894140625,0.05281856699585914,-0.016362375127524136,0.06755670192241668
1772094095840890400,0.888890380859375,-0.0665887336730957,-0.10502787951957433,0.17134484704658387
1772094095850839300,0.89883935546875,-0.016871055302023888,-0.07035628777937963,0.10119622893482447
1772094095860788200,0.908788330078125,-0.06111760878562927,0.05806479708626866,-0.003008826427161693
1772094095870738400,0.918738525390625,-0.18790975900888443,0.12061271266965194,-0.023963936172425745
1772094095880687400,0.928687255859375,-0.2066191356539726,0.04300018841801211,0.0026383126143366097
1772094095890636500,0.938636474609375,-0.09844985283613204,0.008537161394581199,0.015147592510282993
1772094095900585500,0.94858544921875,0.08986965601742267,-0.0003521561722271144,-0.02299048803038895
1772094095910535700,0.95853564453125,0.13317220664918422,0.034034901271853595,-0.05019347918927669
1772094095920484600,0.968484619140625,0.18286708866655826,0.05755381535682827,-0.028550167984142897
1772094095930433500,0.97843359375,0.2856348047018051,-0.020306929768528787,0.006009250352159142
1772094095940382500,0.988382568359375,0.3483803069502115,-0.04260404697358608,-0.05054010066986084
1772094095950332400,0.99833251953125,0.2844920644074678,0.03262063229344785,-0.1196446165561676
1772094095960281300,1.00828125,0.20367957507073878,0.023984467503800986,-0.11949527121335267
1772094095970230500,1.01823046875,0.11243570809066294,0.013222323536127805,-0.1480354292601347
1772094095980179500,1.028179443359375,0.032950667965412135,0.00790522016659379,-0.12861425108388067
1772094095990129400,1.03812939453125,-0.003187397864460945,-0.04273797555156052,-0.0927889044649899
1772094096000078300,1.048078369140625,0.00843348182439804,-0.10306028750734403,-0.036939006949216126
1772094096010027500,1.058027587890625,0.037084991291165346,-0.1146847656590864,-0.01519976108893752
1772094096019976400,1.0679765625,0.03180500506162643,-0.09079162970054894,-0.016247370445728302
1772094096029926700,1.0779267578125,-0.012739654585719108,-0.029925657588429747,-0.03514189439937472
1772094096039875600,1.08787548828125,-0.09421732983291149,-0.01745110194599256,-0.05594692814946174
1772094096049824500,1.097824462890625,-0.1384276429593563,0.004700286645442247,-0.072557140558213
1772094096059773400,1.1077734375,-0.08248480646312237,0.017746632560156284,-0.10663125959560274
1772094096069723400,1.117723388671875,0.04728022209107875,-0.018720519093610347,-0.08770151819810271
1772094096079672600,1.127672607421875,0.13544891940951345,-0.031733565526921304,-0.04719955807030201
1772094096089621500,1.13762158203125,0.16828092943131923,0.03157835669890046,0.021462913136929274
1772094096099570400,1.1475703125,0.13368483234643935,0.03541199831133708,0.06662336659505963
1772094096109519400,1.157519287109375,0.14052081584632395,-0.017932291325367986,0.07046557510644197
1772094096119469300,1.16746923828125,0.22777356736361978,0.013888148767407982,0.05349295912608504
1772094096129418500,1.17741845703125,0.3589133914023638,-0.04071171215465292,-0.006739245127141475
1772094096139367700,1.18736767578125,0.40176527565717696,-0.048324653110094366,-0.04441942583248019
1772094096149316600,1.197316650390625,0.1911953565508127,-0.025909042358212172,0.000741173756122589
1772094096159266600,1.2072666015625,-0.07499006679356097,0.041076563411671665,0.05510419371500611
1772094096169215500,1.217215576171875,-0.2237216616243124,0.08099869609121232,-0.009916559989005327
1772094096179164400,1.227164306640625,-0.26972119625508784,0.0031465909300372004,-0.04469941181764006
1772094096189113300,1.23711328125,-0.21615385671854018,-0.04692664114674553,0.013433628199249505
1772094096199063600,1.2470634765625,-0.1194967325180769,-0.019022625579033045,0.08000058843195437
1772094096209012500,1.257012451171875,-0.06521978340744972,-0.06610124241709708,0.08030906985923647
1772094096218961400,1.26696142578125,-0.059006315720081325,-0.0433045781920664,0.030023528472334145
1772094096228911400,1.276911376953125,0.002410568273067474,0.05017650978816673,-0.03868643513843417
1772094096238860300,1.2868603515625,0.0926660087376833,-0.022541136827692387,-0.08392068448513745
1772094096248809500,1.2968095703125,0.19509879373013972,-0.02990582037679851,-0.09111293407678604
1772094096258758700,1.306758544921875,0.3649725453108549,-0.1796206358249299,-0.2657014392197132
1772094096268708400,1.316708251953125,0.3800257375359535,0.019821119012963025,-0.22543884080573914
1772094096278657500,1.326657470703125,0.26392040102183817,0.08962415682375431,0.09503376078233122
1772094096288606500,1.3366064453125,0.28869945296943184,-0.1465409163860604,-0.04400777629166841
1772094096298555400,1.346555419921875,0.25967794114649295,-0.17052903715167195,-0.035033903980255125
1772094096308505600,1.356505615234375,0.14076923764944077,-0.027566856035217642,0.03194938196837902
1772094096318454500,1.36645458984375,-0.025467618733644483,-0.02822256173128262,-0.0021725217334926127
1772094096328403500,1.376403564453125,-0.26569793208837506,0.020071020387113093,0.01673822270259261
1772094096338352400,1.386352294921875,-0.3485720301300287,0.1017224082333967,-0.033291005835682154
1772094096348302300,1.39630224609375,-0.3670850074201822,0.06225654968768358,-0.030111645147204397
1772094096358251500,1.40625146484375,-0.2472194415897131,0.046526408049091694,-0.03562733982875943
1772094096368200400,1.416200439453125,-0.061893269333243364,-0.03055153440181166,-0.0001014145478606224
1772094096378149600,1.426149658203125,0.08768763580322265,-0.0191833142997697,0.04651274484992027
1772094096388099300,1.436099365234375,0.271231600818038,0.006185721163917333,-0.011676555398851632
1772094096398048500,1.446048583984375,0.3552811723798513,0.010190445026941598,-0.09327245019823312
1772094096407997400,1.45599755859375,0.34639176348149775,0.03514741082470864,-0.10761033376082778
1772094096417946600,1.465946533203125,0.32886779722869397,0.038931879533175374,-0.10873612292036414
1772094096427896600,1.475896484375,0.2714648250520229,-0.01441699494710192,-0.10322525054439902
1772094096437845500,1.485845458984375,0.1342927351117134,-0.07416136088445782,-0.10760887245610355
1772094096447794400,1.49579443359375,-0.07313888596892357,-0.02973422666955739,-0.08592544843629002
1772094096457743400,1.505743408203125,-0.24573943216502664,0.01573092708988115,-0.07911942168325185
1772094096467693600,1.515693603515625,-0.1478776083499193,0.03211067347731441,-0.06723375357836485
1772094096477642500,1.525642578125,0.0093763156324625,-0.04082443354781717,-0.04745747835412621
1772094096487591400,1.53559130859375,0.13821955316662787,-0.07725684268176555,-0.030518910773843524
1772094096497540400,1.545540283203125,0.1563046604335308,-0.0999331319301389,-0.009391074810177088
1772094096507490300,1.555490234375,0.11762918508052825,-0.0782549503410235,-0.03267462750300765
1772094096517439500,1.565439453125,0.14782500137984753,-0.04553065674370155,-0.04942234868630767
1772094096527388700,1.575388671875,0.14784838225543498,0.006249963772855699,-0.09833470202386378
1772094096537337600,1.585337646484375,0.12236673499643802,0.06711719626029954,-0.11579758573919534
1772094096547287600,1.59528759765625,0.049886605197191236,0.056149008326511825,-0.11555486302450299
1772094096557236500,1.605236572265625,-0.07763152121305465,0.01489542611381039,-0.014397797056287527
1772094096567185400,1.615185302734375,-0.0933668504834175,0.01465367151349783,0.061432227692753076
1772094096577134300,1.62513427734375,-0.049687867754697794,-0.007310816203709691,0.03556289629042148
1772094096587084500,1.63508447265625,0.04182546381652355,0.029759233246650547,-0.008742547773569823
1772094096597033500,1.645033447265625,0.14164017526507378,0.019140589402895418,-0.0432043509542942
1772094096606982400,1.654982421875,0.16573592112362384,-0.002780881156492978,-0.06779737881049513
1772094096616931300,1.664931396484375,0.13092179737389087,0.019844609486404804,-0.06051511284783482
1772094096626881300,1.67488134765625,0.023545710760354995,0.042234610872995106,-0.03569792084693908
1772094096636830500,1.68483056640625,0.009070610684156417,0.030788941620569676,-0.02612228325009346
1772094096646779600,1.694779541015625,0.08167407460212707,0.008238872567750513,-0.04202113251909614
1772094096656728600,1.704728515625,0.09132862265408039,0.0020328575344756242,-0.044513095465302466
1772094096666678500,1.714678466796875,0.10662088433206081,-0.0016080014522187411,-0.010978782393038271
1772094096676627500,1.72462744140625,0.14506138188540935,-0.028029870437085627,-0.036527211277931924
1772094096686576400,1.734576416015625,0.13799743484854698,-0.05707585911415517,-0.07584098453447222
1772094096696525600,1.744525634765625,0.051940615117549896,-0.03224476645207033,-0.06666691347584128
1772094096706475500,1.7544755859375,0.004818798458576202,-0.03077467563319951,-0.0060891106553375715
1772094096716424400,1.764424560546875,-0.004768529576063156,-0.013058931401651352,0.0008067863382399082
1772094096726373400,1.774373291015625,-0.018000351592898367,0.023970146717503665,-0.025259090549498795
1772094096736322300,1.784322265625,-0.027497078734636304,0.03574714854983613,-0.004120294800400734
1772094096746272500,1.7942724609375,-0.020682138022780416,0.032306944968085734,0.02128507235199213
1772094096756221400,1.804221435546875,0.014085808497667312,0.006811397047899663,0.02957856118381023
1772094096766169300,1.81416943359375,0.09489303713738918,-0.018270656434260308,0.01668678477630019
1772094096776119300,1.824119384765625,0.232857154238224,-0.021679606361221522,-0.009669891751557589
1772094096786068200,1.834068115234375,0.2925502831786871,-0.011824749964196234,-0.04706687160134315
1772094096796017200,1.84401708984375,0.20996143181920052,0.014530045133829116,-0.05003185888677835
1772094096805966000,1.853966064453125,0.0629109219431877,0.021541184271220117,-0.019042992513626813
1772094096815916300,1.863916259765625,-0.03761690621078014,0.013161916852090507,0.0006439969919621944
1772094096825865200,1.873865234375,-0.08586509655117988,-0.014561883310507982,0.021863895153254268
1772094096835814100,1.883814208984375,-0.0670154346525669,-0.028417846841365096,0.01067322357520461
1772094096845763300,1.893763427734375,-0.024551672932505608,-0.03437023417344317,-0.03235810889974236
1772094096855713300,1.90371337890625,0.056904959526658055,-0.015517667931690812,-0.045788960620015855
1772094096865662500,1.913662353515625,0.1289198099017143,-0.03328035657750442,-0.028893793790042397
1772094096875611400,1.923611328125,0.1342886434584856,-0.022703067657444623,-0.05105199571475386
1772094096885560300,1.933560302734375,0.10183832623064518,0.02969088071817532,-0.08771379315778613
1772094096895510300,1.94351025390625,0.041381811702251435,0.030304573903419077,-0.08271540034860372
1772094096905459200,1.953459228515625,-0.02429623686671257,-0.01801920242384076,-0.051893707235902545
1772094096915408400,1.963408447265625,-0.06832827081680297,-0.054139915260113775,0.015195523305237293
1772094096925357300,1.973357421875,-0.018739771783351896,-0.034403296192828565,0.025280571728944778
1772094096935307300,1.983307373046875,0.0860650030374527,-0.010533650707732885,-0.010198737931251525
1772094096945256200,1.993256103515625,0.19267419693171978,-0.0021858744054101408,-0.03635682314708829
1772094096955205000,2.003205078125,0.199400874838233,0.005857932247966527,-0.03176423465982079
1772094096965154000,2.013154052734375,0.12037409987449646,0.03515840714275837,-0.033426030392199754
1772094096975104300,2.023104248046875,-0.014423662149906157,0.06364497183877975,-0.04321268039122224
1772094096985053200,2.03305322265625,-0.054875499525666234,0.04267749580228701,-0.02809402171447873
1772094096995002400,2.04300244140625,-0.043106735798716544,0.005286708231270313,-0.02380465395748615
1772094097004951300,2.052951416015625,0.014867314264178276,-0.024562797114718704,-0.048152621011435984
1772094097014901200,2.0629013671875,0.057552025258541105,-0.049917256063781675,-0.04936623458489776
1772094097024850400,2.072850341796875,0.08996902473866938,-0.05723822833532467,-0.06052928750365972
1772094097034799400,2.08279931640625,0.053722237837314606,-0.042007798113487656,-0.05562354141399264
1772094097044749300,2.092749267578125,0.0064256491333246225,0.009274517492111771,-0.07171499064564704
1772094097054698200,2.1026982421875,-0.00213233585357666,0.02137161812428385,-0.062140522092580794
1772094097064647200,2.112647216796875,0.018182722422480584,0.002787767555005848,-0.027547347617149352
1772094097074596000,2.12259619140625,0.043915714094042775,-0.018301343833468854,-0.009925766208767891
1772094097084546300,2.13254638671875,0.06045008478760719,-0.03899047785261646,-0.016054916613548992
1772094097094495200,2.1424951171875,0.12034019760489463,-0.04231039778925478,-0.024202713364362714
1772094097104444200,2.152444091796875,0.1370721366971731,-0.048211840385384855,-0.03781199039146304
1772094097114393300,2.162393310546875,0.13324059571027755,0.006448299356549978,-0.06032850423455238
1772094097124343000,2.172343017578125,0.1444669231235981,0.0681285835262388,-0.08292948149070144
1772094097134292500,2.18229248046875,0.1475122821688652,0.061065531538520006,-0.06913973333016038
1772094097144241400,2.192241455078125,0.1608838049173355,0.015566183248534798,-0.02326104860007763
1772094097154190300,2.2021904296875,0.11931377716660499,-0.03816065769866109,-0.022672142796218393
1772094097164140300,2.212140380859375,0.1219493863672018,-0.052504916203115135,-0.007699468461424112
1772094097174089200,2.222089111328125,0.11660101107656955,-0.10010101757664233,-0.00806581755578518
1772094097184038100,2.2320380859375,0.08464227675795555,-0.0814738027896732,-0.022018939584493635
1772094097193987300,2.2419873046875,0.02269055523574352,0.013661737866699695,-0.0517246342793107
1772094097203937300,2.251937255859375,-0.058387307038903234,0.06006685762368142,-0.11607713333293795
1772094097213886200,2.26188623046875,-0.09205401431918143,0.03469928346471861,-0.0895654123738408
1772094097223835100,2.271835205078125,-0.07355740364193916,-0.016961236069817094,-0.024379238975048064
1772094097233784300,2.281784423828125,-0.0619441227376461,-0.07223426527939736,0.019426585003733635
1772094097243734300,2.291734375,-0.018031331253051758,-0.07600914417561143,0.05330401242524385
1772094097253683500,2.301683349609375,0.07193944705128669,-0.04098420895310118,0.01157163371965289
1772094097263632400,2.31163232421875,0.1160579902410507,0.026368878422304988,-0.06433949344158173
1772094097273581300,2.321581298828125,0.12853519449830053,0.10417080603251233,-0.08741685603782534
1772094097283531300,2.33153125,0.09205284527540207,0.1110845492100343,-0.0565454785645008
1772094097293480200,2.341480224609375,0.04941489603221416,0.06744118578396738,-0.012535510315746068
1772094097303429400,2.351429443359375,0.013491349735856055,0.02530616282792762,0.008775427129864692
1772094097313379300,2.36137939453125,0.038032501274347305,-0.020706852338928727,0.03730871704444289
1772094097323328300,2.371328369140625,0.12993980059921742,-0.04123199143540114,0.012240472891926766
1772094097333277200,2.381277099609375,0.152857734850049,-0.0010354805275797844,-0.05679112388864159
1772094097343226000,2.39122607421875,0.12614040831625462,0.06589762787008657,-0.11078487214371562
1772094097353176300,2.40117626953125,0.1343622932165861,0.025724954495579003,-0.09241261849850416
1772094097363125200,2.411125244140625,0.12246727276146412,-0.025151940380595622,-0.06472834662869573
1772094097373074200,2.42107421875,0.037767128336429596,-0.06619756066473201,-0.005651596020907163
1772094097383023400,2.4310234375,-0.05396890607476234,-0.04749158155312761,0.013523206178843974
1772094097392973300,2.440973388671875,-0.08754442794024944,-0.001512833982054144,-0.015839520297199487
1772094097402922200,2.450922119140625,-0.04910626847445965,-0.002667593507748097,-0.00754310885593295
1772094097412871400,2.460871337890625,0.04824877486228943,-0.007836593643482773,-0.010980974350124597
1772094097422820400,2.4708203125,0.17995792322158813,-0.007586180812679231,-0.02440627311244607
1772094097432770300,2.480770263671875,0.23787585918307302,-0.016177666210383176,-0.04653890220448374
1772094097442719200,2.49071923828125,0.2147930897593498,0.009991762383375317,-0.04262202102169394
1772094097452668200,2.500668212890625,0.13322890527248382,0.041731593254301695,-0.05903802603259682
1772094097462617000,2.5106171875,0.00845218652486801,0.01753832357171923,-0.053164750085026025
1772094097472567300,2.5205673828125,-0.054829322296380996,-0.00972357643386349,0.007135843229293823
1772094097482516200,2.53051611328125,-0.03434299910664558,-0.03912924700248986,-0.0017331074029207228
1772094097492465200,2.540465087890625,-0.004548164823651313,-0.08656263209497556,0.006542261250317097
1772094097502415000,2.5504150390625,0.03193593796491623,-0.09878865633644163,0.029069150356948376
1772094097512364000,2.560364013671875,0.0534042579293251,-0.04106532963160425,0.010724515371024607
1772094097522313500,2.5703134765625,0.0831581756800413,0.024521131663769482,-0.03864566473662853
1772094097532262400,2.580262451171875,0.1060065518260002,0.06634310661526396,-0.04704597494378686
1772094097542212400,2.59021240234375,0.11492051064372062,0.0898759030951187,-0.0849801304101944
1772094097552161300,2.600161376953125,0.07418108849823475,0.017708309843763707,-0.08504019003435968
1772094097562110200,2.610110107421875,0.042667759859561914,-0.059059434146806596,-0.02366597613915801
1772094097572059100,2.62005908203125,0.018844985723495484,-0.0717619715925306,0.001712064614892006
1772094097582009300,2.63000927734375,-0.017505846074223518,-0.0739043721823953,0.007122837617248297
1772094097591958300,2.639958251953125,0.06251870775520801,-0.06360568100800737,0.015323825860023498
1772094097601907200,2.6499072265625,0.1629448291003704,-0.040351171746570616,-0.016333733554929494
1772094097611856100,2.659856201171875,0.19246902974843977,0.0024672303637489675,-0.0543736874833703
1772094097621806000,2.66980615234375,0.13634966764152048,0.01589212726727128,-0.10028364413455128
1772094097631755300,2.67975537109375,0.08244330540895461,-0.01910610261140391,-0.06932005833312868
1772094097641704400,2.689704345703125,-0.01106207676231861,-0.039877051428798584,-0.03270648394599557
1772094097651654100,2.699654052734375,-0.10680559324920177,-0.04735602727364748,-0.01096270804107189
1772094097661603300,2.709603271484375,-0.11093231779038905,-0.052697479633148754,0.0024262042336165904
1772094097671552300,2.71955224609375,-0.022317045748233795,-0.05015796948447823,-0.0028993747033178806
1772094097681501200,2.729501220703125,0.09033785805106162,-0.05581625097449869,-0.016666326510161162
1772094097691451400,2.739451416015625,0.16616086853742598,-0.0407034557829611,-0.01896642014607787
1772094097701400300,2.749400390625,0.18976561600863934,0.004531158889923245,-0.0575816897444427
1772094097711349200,2.759349365234375,0.13924012838602065,0.02864659582963213,-0.07992182410731911
1772094097721298200,2.769298095703125,0.08832184205353259,0.021783048469386994,-0.058307812061905856
1772094097731248000,2.779248046875,0.03675181381404399,-0.005682429550588131,-0.05258256628289818
1772094097741197300,2.789197265625,-0.0011965163081884384,-0.012592519466299563,-0.03446238770261407
1772094097751146200,2.799146240234375,-0.021195932763814925,-0.03908155366955325,-0.0031371289819478987
1772094097761095200,2.80909521484375,-0.009242460119724273,-0.07233796311588958,0.0325568463422358
1772094097771046000,2.8190458984375,0.034625907701253886,-0.05549416114697232,0.020366496202349663
1772094097780994800,2.828994873046875,0.07421440624594688,-0.006982826358359307,-0.04073854536265135
1772094097790944000,2.838944091796875,0.033303134664893146,0.039505880028847605,-0.08007979114800691
1772094097800893200,2.84889306640625,-0.019573299998044965,0.08693884499622509,-0.06834536808207631
1772094097810843000,2.8588427734375,0.005042085820436477,0.06855488264691084,-0.028304887986183164
1772094097820792000,2.8687919921875,0.08514905723631382,-0.009077497082669287,0.016711919217556714
1772094097830741000,2.878740966796875,0.1849170069336891,-0.06434970430834218,0.055836891903728245
1772094097840691200,2.888691162109375,0.1994914757311344,-0.05051050924919545,0.036546646630764006
1772094097850640100,2.89864013671875,0.2675210558623075,-0.037998069281782954,0.07551160644963384
1772094097860589000,2.908589111328125,0.14988018034398554,0.00458796711107716,0.020443506961315867
1772094097870538000,2.9185380859375,0.017194880428910254,-0.006014858109038323,-0.14372253449708222
1772094097880488000,2.928488037109375,-0.040294600987434384,0.1434861319253221,-0.03444324461072683
1772094097890436900,2.938436767578125,-0.06286591375768184,-0.04442256763763725,-0.029664193640649317
1772094097900386000,2.948385986328125,0.01884673928916454,0.023773418569006024,-0.02798413159921765
1772094097910335000,2.9583349609375,0.010834113225340843,0.009788915021345018,-0.07811872020810842
1772094097920285000,2.968284912109375,-0.00002864157259464264,-0.07453399358913301,0.0027193419612944122
1772094097930233900,2.97823388671875,0.037945992034673685,0.004259411010146141,0.023687165057659148
1772094097940183000,2.98818310546875,0.043539866518974304,-0.0267976617610082,-0.043537236170470714
1772094097950132000,2.998132080078125,0.0417447997957468,-0.030897096436470744,-0.05774988591820001
1772094097960082200,3.008082275390625,0.058407180783152574,0.009548950519319623,-0.026375527358800173
1772094097970031000,3.018031005859375,0.07065408341586589,0.025480971405562013,-0.0031545185081660746
1772094097979980000,3.02797998046875,0.041074937710165974,0.03968604063503444,-0.05233063734844327
1772094097989930000,3.037929931640625,0.01430500420629978,0.019098978750873356,0.04120762417912483
1772094097999879200,3.047879150390625,-0.04460544992387294,-0.04732824421757832,0.06319952962622045
1772094098009828000,3.057828125,-0.010849310794472693,0.01847354032890871,0.11860957442000508
1772094098019777000,3.067777099609375,0.051584641286730765,0.07892000838732346,0.03233706611171364
1772094098029727000,3.07772705078125,0.0864963801920414,0.09927740796776488,-0.08933233427032827
1772094098039676000,3.087676025390625,0.10224982964098453,0.10899157725246622,-0.09098127052113414
1772094098049624800,3.097624755859375,0.24930209308266638,-0.0566581451587379,-0.20490254099443553
1772094098059574000,3.107573974609375,0.4665636187821626,-0.05806479708626866,-0.3084248747892678
1772094098069524000,3.11752392578125,0.23560557616353034,0.21328319665305315,0.1304549105145037
1772094098079473000,3.127472900390625,-0.02015314571261406,0.010302253104653209,0.1742236173532903
1772094098089422000,3.137422119140625,-0.1537859556108713,-0.20753402200918644,0.024070611417293546
1772094098099371000,3.14737109375,-0.08972703267633915,-0.044037623440660534,-0.06897007585167884
1772094098109321200,3.1573212890625,0.11606792711317539,0.006765493813250214,-0.2056711872793734
1772094098119270100,3.167270263671875,0.09015431817770003,0.12427167356861754,-0.18114362587481736
1772094098129219000,3.177218994140625,-0.0909276406377554,0.03583857142664492,0.07766746930927038
1772094098139169000,3.1871689453125,-0.08782324488162994,-0.11765444738594814,0.09563201893642544
1772094098149118000,3.197117919921875,-0.011101239728927612,-0.12784419829314575,0.08538198920935391
1772094098159067000,3.20706689453125,0.1051835450053215,-0.11968672039853408,-0.06695157563611864
1772094098169016000,3.21701611328125,0.10684709430336951,0.029987397713027893,-0.026465397599339482
1772094098178966000,3.226966064453125,0.1149561664789915,0.020378387569542973,-0.03242196791619062
1772094098188915000,3.2369150390625,0.14241349772512912,-0.08417454964835196,-0.1575738035865128
1772094098198864000,3.24686376953125,0.1659691453576088,-0.03798661630600691,-0.0453591909006238
1772094098208813000,3.25681298828125,0.14907354013621807,-0.025460129546932875,0.0017817688502371311
1772094098218763000,3.266762939453125,0.10259586659967898,-0.0129556354239583,0.0175948395319283
1772094098228712200,3.276712158203125,0.0725268915504217,0.03266516555491835,0.012257424026727675
1772094098238661000,3.2866611328125,0.023215455892682074,0.03565335105285048,-0.028361586609482764
1772094098248610000,3.296610107421875,0.04198211568295956,-0.010284443453326821,-0.002728255920112133
1772094098258560000,3.30656005859375,0.09147299956083298,-0.0684907496358268,0.03438756890073418
1772094098268509000,3.316509033203125,0.1560918944656849,-0.07435573267908767,0.012814181126654148
1772094098278458000,3.3264580078125,0.15980477750897407,-0.02596418834524229,-0.00881517461836338
1772094098288408000,3.336407958984375,0.04960603469014167,0.02289557628855109,-0.04935527479946613
1772094098298357000,3.34635693359375,-0.1111135195761919,0.08960916018402203,-0.05966740997731685
1772094098308306000,3.356305908203125,-0.09431552951037883,0.025072226207889615,-0.014195260221511125
1772094098318254800,3.3662548828125,-0.116790396168828,0.005274524603132158,0.029426731622964143
1772094098328205000,3.376205078125,-0.033061727124452586,0.013071772616915405,0.0747680946059525
1772094098338154000,3.386154052734375,-0.005159574720263481,-0.027961207381356507,0.05342077067270875
1772094098348103200,3.396103271484375,0.09404138874411583,0.031811763595975935,-0.029716069958359
1772094098358052000,3.406052001953125,0.15975860027968883,0.028282822284847495,-0.04564809084460139
1772094098368002000,3.416001953125,0.1979179428040981,-0.012898571474477647,-0.017371552170068024
1772094098377951000,3.425950927734375,0.2034872673690319,0.02297711709216237,-0.019992109932005404
1772094098387900200,3.435900146484375,0.12476210570037365,0.07538534972146153,-0.0021598083823919294
1772094098397850000,3.44585009765625,0.0548421817779541,0.0913263393654488,0.014428922846913337
1772094098407799000,3.455799072265625,-0.002574234402179718,0.043453284214064476,-0.0056403439745306965
1772094098417748000,3.465748046875,-0.022346271842718122,-0.013334332543238996,0.010999240659177303
1772094098427697000,3.47569677734375,-0.00017886369824409484,-0.04221411607423797,0.00324555779248476
1772094098437647000,3.485647216796875,0.04639642499387264,-0.07337426562737673,-0.010128887565433979
1772094098447596000,3.495595947265625,0.09142039259076118,-0.0344433724748902,-0.03802110309749841
1772094098457545000,3.505544921875,0.11793489002883434,0.007306815882027149,-0.07105053538754583
1772094098467494000,3.515493896484375,0.11069324833750724,0.04230835196264088,-0.0785365072287619
1772094098477443800,3.52544384765625,0.06460778898894787,0.04315585390375927,-0.05068593888133764
1772094098487393000,3.53539306640625,0.03209785052835941,0.005186133933626115,-0.013569529538601636
1772094098497342200,3.54534228515625,0.025710195317864417,-0.04636506174122915,0.025155191783607006
1772094098507291100,3.555291015625,0.055908934226632116,-0.04654049137337133,0.029774522147327658
1772094098517241000,3.565240966796875,0.07040040091574191,-0.018336031554359943,-0.02029796101078391
1772094098527190000,3.57518994140625,0.09993161582648753,0.01977422939762473,-0.043110242930054665
1772094098537139000,3.585138916015625,0.15788754571080207,0.013912735219392925,-0.04357055391818285
1772094098547089200,3.595089111328125,0.17804887472987174,-0.002220123734883964,-0.030139702197909353
1772094098557038000,3.6050380859375,0.10779869593977928,-0.011228062712680547,0.005985796411335468
1772094098566987000,3.614987060546875,-0.009039046502113342,0.0033731296949088573,0.016435878755152223
1772094098576936000,3.62493603515625,-0.03933189343512058,0.01428582458179444,0.028795740243047475
1772094098586886000,3.634885986328125,0.014204466441273688,-0.004789809826109558,0.032077538392692805
1772094098596834800,3.644834716796875,0.10050094014704226,-0.028862430537398905,0.040447891853004694
1772094098606784000,3.654783935546875,0.15160393539667127,-0.02432960941335186,0.021352146238833664
1772094098616733200,3.664733154296875,0.15801964765787124,0.01845781303681433,-0.021092910780757663
1772094098626683000,3.674682861328125,0.05797229649722576,0.04776574058569968,-0.041472850986570116
1772094098636632000,3.684632080078125,-0.031392332607507706,0.055936004896648225,-0.024226386500895022
1772094098646581000,3.6945810546875,-0.060196986809372896,0.022460363209061324,-0.003008680296689272
1772094098656530000,3.704530029296875,-0.011958148819208144,-0.04226310631511733,-0.014832096820324658
1772094098666480000,3.714480224609375,0.04203063099980354,-0.03797772061349824,-0.03045724371448159
1772094098676429000,3.724428955078125,0.05535071582198143,-0.012998780445940791,-0.03500482401624322
1772094098686378000,3.7343779296875,0.015139116942882537,-0.024561920331884174,-0.015145692814141512
1772094098696328000,3.744327880859375,0.016046294915676117,-0.014335655072890221,-0.0022815350659191607
1772094098706276900,3.75427685546875,0.08213175524175166,-0.018070585551206022,-0.03470686398297548
1772094098716226000,3.76422607421875,0.1522352190375328,-0.01747082955976948,-0.0745075439736247
1772094098726175000,3.774175048828125,0.20515724640786648,-0.005773852427396923,-0.05996347031444311
1772094098736125000,3.784125,0.1600818408846855,0.006576492313481867,-0.04356090930700302
1772094098746073900,3.794073974609375,0.035470541831851006,-0.002522449416015297,-0.013833733432739971
1772094098756023000,3.80402294921875,-0.05833996076583862,-0.01261889601657167,0.04579495196938514
1772094098765971700,3.8139716796875,-0.0785749395430088,-0.01844024084750563,0.03403276411369443
1772094098775921700,3.823921630859375,-0.06678454850614071,0.012735069742146879,-0.022093758386373518
1772094098785870600,3.83387060546875,0.005427870267629623,0.039066009040549396,-0.05920096150934696
1772094098795819500,3.843819580078125,0.13322773622870446,0.00022167992666363714,-0.057701808992773294
1772094098805768400,3.8537685546875,0.20646832900643347,-0.04773275163155049,-0.03235533242076635
1772094098815718700,3.86371875,0.1751958233863115,-0.06469612485952675,-0.0013813713558018207
1772094098825667600,3.87366748046875,0.1041290675163269,-0.027941004843544212,-0.027012510088086125
1772094098835616500,3.883616455078125,0.07831248921453952,-0.009106887573935091,-0.04359203509762883
1772094098845566500,3.89356640625,0.07401040810644627,-0.017258337586559355,-0.04587722342535853
1772094098855515400,3.903515380859375,0.041759997364878655,-0.008871800176426768,-0.04199146803319454
1772094098865464600,3.913464599609375,-0.019935119047760963,-0.00015508096385747193,-0.031713819646835326
1772094098875413800,3.923413818359375,-0.0869575679630041,-0.02159757236726582,0.013743278670310973
1772094098885363500,3.933363525390625,-0.1141676464498043,-0.05307299841465428,0.039420594631880516
1772094098895312600,3.943312744140625,-0.029465163937211034,-0.059346416128333655,0.007368044549971819
1772094098905261600,3.953261474609375,0.11308335834443568,-0.05195044239182025,-0.027921733887493607
1772094098915210500,3.96321044921875,0.2095826616346836,-0.013413553525600582,-0.05715265067741274
1772094098925160700,3.97316064453125,0.1926683517128229,0.01994529338190332,-0.07389832603409886
1772094098935109600,3.983109619140625,0.1124725329697132,0.05324722247039899,-0.04945508191213011
1772094098945058600,3.99305859375,0.0327910934895277,0.02142720250273123,0.001507628083974123
1772094098955008500,4.003008544921875,-0.060491585841774935,-0.027946064611151813,0.04352408442795276
1772094098964957400,4.01295751953125,-0.11565467013716697,-0.06382113212328404,0.07497486922442913
1772094098974906600,4.02290673828125,-0.06367723014056682,-0.05250694376341998,0.04355754830613732
1772094098984855600,4.03285546875,0.0617044687628746,-0.01637649498442188,-0.01238645723387599
1772094098994805500,4.042805419921875,0.19990823983848094,0.02324696527579799,-0.057379152909666296
1772094099004754400,4.05275439453125,0.2606815652310848,0.052914392053149635,-0.08554536307752132
1772094099014703600,4.06270361328125,0.23529110338687895,0.07003120227716862,-0.09638678282648325
1772094099024652500,4.072652587890625,0.14883330163955688,0.0495751646278426,-0.06824117705523967
1772094099034602800,4.082602783203125,0.056446694365143775,-0.007142820959351957,-0.01708703614026308
1772094099044551700,4.0925517578125,-0.031764088529348374,-0.04738269608486444,0.016852204471081496
1772094099054500600,4.10250048828125,-0.062116556695103645,-0.05706802286757156,0.028753946927934884
1772094099064449500,4.112449462890625,-0.04662672661840916,0.0010681772207841278,-0.0141734867811203
1772094099074399500,4.1223994140625,0.06964987480938434,0.04550265449192375,-0.05109729616120457
1772094099084348700,4.1323486328125,0.14880466006696225,0.08093215192733332,-0.06658361910656094
1772094099094297600,4.142297607421875,0.1620779831379652,0.11492980819502845,-0.08481266488879918
1772094099104247600,4.15224755859375,0.16478607305288315,0.056963484780862925,-0.07654810989052056
1772094099114196500,4.162196533203125,0.08113105376660823,0.03955642290599644,-0.09301628348007798
1772094099124145400,4.1721455078125,0.021014146456122398,0.009892247531656176,-0.06118161393254995
1772094099134094600,4.182094482421875,0.0070423197269439694,-0.023167506831418723,-0.09105638158395886
1772094099144044500,4.19204443359375,0.03400280736684799,-0.039725148802716284,-0.07949088534414768
1772094099153993700,4.20199365234375,0.06667115125954151,-0.022948146726004776,-0.04437061825469136
1772094099163942700,4.211942626953125,0.11418868923783301,-0.01138612108491361,-0.011296323909610509
1772094099173891600,4.2218916015625,0.1423182206571102,0.006806830470636486,-0.01926920248493552
1772094099183841800,4.231841796875,0.053286184507608414,0.034797008218150585,-0.035375849285721774
1772094099193790700,4.241790771484375,-0.002461421677470207,0.05700567995477467,-0.0269711551643908
1772094099203739600,4.25173974609375,0.03407996425628662,0.01573348437314853,-0.04007818175777793
1772094099213689600,4.261689697265625,0.02149286988377571,-0.025592523754946885,-0.017825141156464813
1772094099223638500,4.271638427734375,-0.024226678761839864,-0.0009973952732048928,0.022217677026987074
1772094099233587500,4.28158740234375,0.03395487657189369,0.010862426004372537,0.0348825128108263
1772094099243536400,4.291536376953125,0.1372562610924244,-0.018927165847923606,-0.019516455244272948
1772094099253486600,4.301486572265625,0.1287023677587509,-0.0016543978772126137,-0.0568660888209939
1772094099263435500,4.311435546875,0.11119418359696864,0.06262625978291034,-0.10792217618897557
1772094099273384400,4.321384521484375,0.034032617983222005,0.02731620574239641,-0.12234218507707119
1772094099283334400,4.33133447265625,-0.0621007746040821,-0.007736275074165314,-0.06646949120759964
1772094099293283600,4.34128369140625,-0.07203238603174686,-0.02320489796604961,-0.017476473849266767
1772094099303232800,4.351232666015625,-0.012462591210007666,-0.026178707878757267,-0.036841245663166045
1772094099313181700,4.361181640625,0.08010755593776703,-0.0036773185395635663,-0.07650836240202188
1772094099323131600,4.371131591796875,0.12244739901721477,0.011230017207749188,-0.08218290090709925
1772094099333080600,4.38108056640625,0.12239888370037078,0.036571835870947686,-0.07098375376164913
1772094099343029500,4.391029541015625,0.09598317046165465,0.02234004303133115,-0.04996843826174736
1772094099352978700,4.400978759765625,0.059467503491044044,0.03896755363475531,-0.018103081315010785
1772094099362928600,4.4109287109375,0.039217327144742006,0.04959379626307636,-0.008361293371021747
1772094099372877600,4.420877685546875,0.05154781640768051,0.027707506614923477,-0.019119711011648177
1772094099382826500,4.430826416015625,0.08656184664368628,0.014285331391450017,-0.02841360905766487
1772094099392776400,4.4407763671875,0.13099603165388107,-0.0018554186083376406,-0.029923575229197738
1772094099402725600,4.4507255859375,0.1378355222851038,0.0064311655586585395,-0.01023278633132577
1772094099412674600,4.460674560546875,0.17610826205611227,0.013864731359202414,0.006974369057267904
1772094099422623700,4.470623779296875,0.17618424990177153,0.012145268889144063,-0.015750526839494704
1772094099432573400,4.480573486328125,0.14267302544414998,0.01681693222830072,-0.01911751905456185
1772094099442522600,4.490522705078125,0.05818330889940262,0.008406593817472458,-0.0019148937106132505
1772094099452471600,4.500471435546875,-0.013598317241668701,-0.010010576681699603,0.03459536643251777
1772094099462420700,4.510420654296875,-0.02335632566809654,-0.0011287848342210053,0.010218319414556027
1772094099472370700,4.52037060546875,-0.0005003507375717163,0.004585062767937779,-0.020862024634331462
1772094099482319600,4.530319580078125,0.015313888987898826,0.0028441739173606035,-0.030719694042950867
1772094099492268500,4.5402685546875,0.04750000232160091,0.010729940464813261,-0.035882483633607624
1772094099502218500,4.550218505859375,0.07250467971861362,-0.016631766653433442,-0.051392918106913564
1772094099512167700,4.560167724609375,0.05632394476830959,-0.05513093559145927,-0.04233195203393698
1772094099522116600,4.57011669921875,0.08383680559396743,-0.07819463498853146,-0.020868454375118015
1772094099532065500,4.5800654296875,0.08735036667287349,-0.10474581117518246,-0.03495397061184048
1772094099542015500,4.590015380859375,0.07381400875151158,-0.06462552557503805,-0.04563420844972133
1772094099551964400,4.59996435546875,0.02058627643287182,0.0007857618165202438,-0.043894525175541634
1772094099561913600,4.60991357421875,-0.031741292175650596,0.026158706270344553,-0.041792292199283834
1772094099571862800,4.61986279296875,-0.023657938963174818,-0.00025627631600946187,-0.019470131884515286
1772094099581812700,4.629812744140625,0.013928572109341621,-0.06901685586916283,-0.021634178050607442
1772094099591761700,4.63976171875,0.059982467275857924,-0.09917107978276908,-0.005337123244255781
1772094099601710600,4.649710693359375,0.10496668738424778,-0.08321189689496532,0.0013540449574589728
1772094099611660500,4.65966064453125,0.1323410165220499,-0.06358944225925951,-0.003063917615264654
1772094099621609700,4.669609619140625,0.15341536873281,-0.018857297215797007,-0.015515695170313119
1772094099631558700,4.67955859375,0.1493593713402748,0.029261951248999683,-0.038695787488669156
1772094099641507600,4.689507568359375,0.092217095926404,0.051581481215264645,-0.09089403062909841
1772094099651457500,4.69945751953125,0.01498480316400528,0.02962349630407989,-0.0822474905759096
1772094099661406500,4.709406494140625,-0.0326952318996191,0.011787541492655873,-0.031441724707186224
1772094099671355400,4.71935546875,-0.11485855132341384,-0.010221077627222984,0.00868643367215991
1772094099681304600,4.7293046875,-0.13473989435732364,-0.018916845383308827,0.01438216109573841
1772094099691254500,4.739254638671875,-0.0019371055424213409,-0.011891330660693348,-0.029046792394667863
1772094099701203700,4.74920361328125,0.18636895930767058,-0.032339148470945656,-0.0666238049864769
1772094099711152600,4.759152587890625,0.2863876688957214,-0.02941916937101632,-0.09944763170182705
1772094099721102600,4.7691025390625,0.24445114592015743,-0.036187147402297705,-0.0894844560921192
1772094099731051800,4.7790517578125,0.15408055464327333,-0.03991440603081137,-0.05816518872082233
1772094099741000700,4.789000732421875,0.06120411802530289,-0.03980363913271576,-0.04327507810294628
1772094099750949600,4.79894970703125,0.021589315995573996,0.015476093812286852,-0.08482990828454494
1772094099760899600,4.808899658203125,-0.0018003274202346802,0.03335607042852789,-0.11254530594497919
1772094099770848800,4.818848876953125,0.034568040034174914,-0.0012623115533962844,-0.09358721523582934
1772094099780797700,4.828797607421875,0.0054822308033704754,-0.05133366220034659,-0.0721656570225954
1772094099790747000,4.838746826171875,-0.0636737230092287,-0.07384827634729445,0.003367868997901678
1772094099800696800,4.84869677734375,-0.07679507038891314,-0.056858983226772394,0.03361673065871
1772094099810645800,4.858645751953125,0.00855330881178379,-0.031353918559569864,0.009793079739809035
1772094099820594700,4.8685947265625,0.14479250181615352,0.009417177365813404,-0.043984541546553374
1772094099830545000,4.878544921875,0.19407588042318819,0.06292087708162143,-0.07542407429665327
1772094099840493800,4.888493896484375,0.13843757983148097,0.0883066627507098,-0.07542845821082592
1772094099850443000,4.898443115234375,0.0554869094222784,0.04036079809144139,-0.009511924710869788
1772094099860392000,4.908391845703125,0.0026157354563474656,-0.009640866586472839,0.058020665683597324
1772094099870342000,4.918341796875,-0.01899579237103462,-0.0003385477719828486,0.05341463319286704
1772094099880290800,4.928290771484375,0.026367782443761825,0.0057993521948345,0.025479455301910637
1772094099890240000,4.938239990234375,0.113405429905653,-0.016846121790166944,-0.028358225608617067
1772094099900190000,4.94818994140625,0.16415771202147006,-0.010697609097789973,-0.0741328654423356
1772094099910139000,4.958138916015625,0.10822072074413298,0.005860087672434747,-0.0777250447154045
1772094099920087800,4.968087890625,0.024392682978510855,0.0006107340431772172,-0.032724604124575854
1772094099930036700,4.97803662109375,-0.021811434313654898,-0.03426496543437242,0.01831745471805334
1772094099939987000,4.987987060546875,-0.03125964613854885,-0.07975912609258666,0.04399360163584351
1772094099949935900,4.997935791015625,-0.029165888729691503,-0.08833988916687667,0.035044571504741905
1772094099959884800,5.007884765625,0.013612930288910864,-0.06541704127890989,0.008571721251308917
1772094099969834800,5.017834716796875,0.054176995867490765,-0.015032058105524628,-0.012859919964522123
1772094099979783700,5.02778369140625,0.08883505227267742,0.04330940049765631,-0.05575023653358221
1772094099989732900,5.03773291015625,0.12794248930215835,0.06266226267805322,-0.06872618409320712
1772094099999682000,5.04768212890625,0.16730360883176326,-0.0023287352085113525,-0.0590446019038558
1772094100009632000,5.057632080078125,0.18260931451320647,-0.04697765894792974,-0.07699015456959604
1772094100019581000,5.067580810546875,0.17400982847213745,-0.07104138396671042,-0.07035685403496027
1772094100029529900,5.07752978515625,0.1272691200852394,-0.07841028703320771,-0.06909209479615092
1772094100039478800,5.087478759765625,-0.0003787701845169067,-0.056209287146385754,-0.06255874750465154
1772094100049429000,5.097428955078125,-0.05197568643093109,-0.04056793803609907,-0.018268501009792087
1772094100059378000,5.1073779296875,-0.0030278233885765076,-0.061232485603261735,-0.0063056760154664515
1772094100069326800,5.117326904296875,0.029994156247377394,-0.09495154412528499,-0.0279493525467813
1772094100079276800,5.12727685546875,0.0583148263245821,-0.05276055319830775,-0.029330285511165857
1772094100089225700,5.137225830078125,0.07544716291129588,-0.012599296266958116,-0.05678381736502051
1772094100099174700,5.147174560546875,0.07804068653583526,-0.009221380799077451,-0.07275982352346182
1772094100109123800,5.157123779296875,0.07523673503100872,0.009157996706664562,-0.0604353256098926
1772094100119073800,5.16707373046875,0.08248948263823985,-0.0012887611689046024,-0.052532735791802405
1772094100129022700,5.177022705078125,0.13328560389578342,-0.028689558188524096,-0.044955140144377945
1772094100138972000,5.186971923828125,0.09804010299146175,-0.031014548803679643,-0.014122194985300303
1772094100148921900,5.196921875,0.04799509236216545,-0.005970872836839407,0.008917027557641267
1772094100158871000,5.20687109375,-0.013157003214955328,0.012199465028103441,-0.009653671269118785
1772094100168820000,5.216820068359375,-0.033389643904566765,0.008108926045149564,-0.02398570961281657
1772094100178769000,5.226768798828125,-0.013687164568901062,-0.018279259865824134,-0.011237287198752164
1772094100188718800,5.23671875,0.047806291791796685,-0.04318011156218126,-0.015814239725470542
1772094100198667800,5.246667724609375,0.11003683025538921,-0.05654832810871303,-0.020725392642617226
1772094100208616700,5.25661669921875,0.150304543235898,-0.026845062832999974,-0.016663111639767886
1772094100218567000,5.26656689453125,0.11827975794374943,0.00825067260339856,-0.024322248090803623
1772094100228515800,5.276515869140625,0.0498532874494791,0.014472597591858356,-0.010338146401941776
1772094100238464800,5.28646484375,-0.04841361003518104,0.03774988494068384,-0.007473112359642982
1772094100248413700,5.29641357421875,-0.09038988049924374,0.015938487159647047,0.009562193593382834
1772094100258363600,5.30636376953125,-0.018439327532052994,-0.04784311667084694,0.04755436285734176
1772094100268312800,5.316312744140625,0.10301730688214301,-0.0717660632457584,0.05166749726459384
1772094100278262000,5.326261962890625,0.19567747040092945,-0.04641956840744242,0.018837825330346822
1772094100288211700,5.336211669921875,0.22742753040492533,0.024977040471415964,0.00038300796821713444
1772094100298161000,5.346160888671875,0.2101975786626339,0.0637318098720163,-0.027335312301665544
1772094100308109800,5.35610986328125,0.1643734005987644,0.02566849333429709,-0.018093436703830956
1772094100318058800,5.366058837890625,0.10925123283565044,-0.025628764112107454,0.014172756128758192
1772094100328009000,5.376009033203125,0.04438683873713016,-0.06261646904125809,-0.009257219297438859
1772094100337958000,5.3859580078125,-0.06538695666790008,-0.07681295310547574,-0.03702814653739333
1772094100347906800,5.39590673828125,-0.12082651981711387,-0.021429558856599033,-0.04517930428907275
1772094100357856800,5.405856689453125,-0.10210019203722476,0.005315696863736957,-0.0637675387725234
1772094100367806000,5.415805908203125,-0.04088905974924564,-0.017751765393000093,-0.053593789152055975
1772094100377755000,5.4257548828125,0.07307751117050647,-0.023754859999008476,-0.013658376865833996
1772094100387703800,5.435703857421875,0.16232055972218512,-0.04349087627809495,-0.002798398546874523
1772094100397653800,5.44565380859375,0.19133681084811685,-0.023781930669024585,-0.021179127759486435
1772094100407602700,5.455602783203125,0.17450199590325355,-0.0036272871190682053,-0.05669920782148838
1772094100417552000,5.4655517578125,0.10744155306518077,0.01194671410974115,-0.05655716900229454
1772094100427501800,5.475501708984375,-0.006342647024989128,0.016260777916572988,-0.0350499783322215
1772094100437451000,5.485450927734375,-0.08164484850764274,0.014546923203393815,0.00433306076824665
1772094100447400000,5.49539990234375,-0.10304068775773048,-0.0426848388585262,0.037910190068930386
1772094100457348900,5.505348876953125,-0.07820669075250625,-0.07045395773388445,0.04154723139703274
1772094100467298800,5.515298828125,-0.0065092357635498045,-0.04803988135196268,-0.00544803627282381
1772094100477248000,5.525248046875,0.10276420890390872,-0.031979521378315987,-0.04241904579550028
1772094100487197000,5.535197021484375,0.19017770394086836,-0.026059081820771098,-0.05467267042994499
1772094100497147000,5.54514697265625,0.22500468717217445,0.0046114393182098866,-0.06798807907700538
1772094100507095800,5.555095703125,0.20308979248404502,0.04607062710560858,-0.09748524558767675
1772094100517044700,5.565044677734375,0.10812193654477596,0.06570645267954096,-0.10894611240923405
1772094100526993700,5.57499365234375,0.024375147321820258,0.029414146136026827,-0.07281783732101321
1772094100536943900,5.58494384765625,-0.05478723672032356,-0.0497824141703546,-0.027500439735502005
1772094100546892800,5.594892822265625,-0.042266193321347234,-0.11047449102029204,0.014427753803133964
1772094100556841700,5.604841796875,0.015069558838009834,-0.1131462675128132,0.02394566986337304
1772094100566791700,5.614791748046875,0.11284662697911262,-0.050383302672952414,0.005060644390434027
1772094100576740900,5.624740966796875,0.2007727477133274,-0.010794475334696471,-0.04677329548224807
1772094100586690000,5.63468994140625,0.24047990420162677,-0.0034401487828232347,-0.06782178259938955
1772094100596639000,5.644638916015625,0.19726912350654602,-0.012425583667866886,-0.053084378325194116
1772094100606589000,5.6545888671875,0.08237316278219223,-0.03503054297938943,-0.03414718427360058
1772094100616537900,5.664537841796875,-0.052090837243199344,-0.019065807133633643,-0.029450112498551607
1772094100626486800,5.67448681640625,-0.12540624882280826,-0.054797009195666754,0.00022591771036386488
1772094100636437000,5.68443701171875,-0.12798574392199516,-0.06530106848273426,0.016818302201479673
1772094100646386000,5.694385986328125,-0.03830956465005875,-0.05570683578327298,0.019765753830224275
1772094100656334800,5.7043349609375,0.05275368506610393,-0.02936305526960641,0.004792787234485149
1772094100666283800,5.71428369140625,0.14210720825493334,0.013098039569333196,-0.03376826795861125
1772094100676233700,5.724233642578125,0.1820809067249298,0.03306059461329132,-0.05006634567826986
1772094100686182700,5.7341826171875,0.122376087346673,0.043876752056833355,-0.04859802669137716
1772094100696131800,5.7441318359375,0.07900280956625938,0.07238527285633609,-0.05134601022526621
1772094100706081800,5.754081787109375,0.01523965470790863,0.059199372340459376,-0.0689218527957797
1772094100716030700,5.76403076171875,-0.030381694260239598,0.017635920460987834,-0.03580781096220016
1772094100725980000,5.77397998046875,0.0008516483932733535,-0.03515552106592804,-0.01207680676281452
1772094100735928800,5.7839287109375,0.07642039185762405,-0.09151585232187062,-0.02212751452550292
1772094100745879000,5.793879150390625,0.1521831965893507,-0.08684080971553922,-0.008689502412080764
1772094100755828000,5.803827880859375,0.1740858163177967,-0.043329347307141865,-0.0054912908926606175
1772094100765777000,5.81377685546875,0.16894319273233413,0.025557507240492848,-0.03734247318357229
1772094100775727000,5.82372705078125,0.09092939420342445,0.08335700445408001,-0.058112289489805694
1772094100785676000,5.833676025390625,0.005834697502851486,0.07531060398481786,-0.06122954472750425
1772094100795625000,5.843625,-0.023837971705198288,0.004621138728316873,-0.05243015220016241
1772094100805574100,5.85357421875,-0.011800327908992766,-0.04989486156888306,-0.04396729815080762
1772094100815524000,5.863524169921875,0.013181553134322165,-0.06860144346868619,-0.012673019090294836
1772094100825473000,5.87347314453125,0.07158288869857787,-0.053510257320757953,0.01565700333714485
1772094100835422000,5.883421875,0.16091829170882702,-0.04056156309423968,0.0038823943912982936
1772094100845372200,5.8933720703125,0.2227197911053896,-0.013912479491066186,-0.0525306899651885
1772094100855321000,5.903321044921875,0.20383213528394697,-0.013697740761842579,-0.09935630015656352
1772094100865270000,5.91327001953125,0.09097498691082,-0.015172032831795513,-0.1100301082536578
1772094100875219200,5.92321923828125,-0.03984218104481697,-0.002254446129593998,-0.07673910241797566
1772094100885169200,5.933169189453125,-0.10568331122100352,0.023003219647798685,-0.03408288686573505
1772094100895118000,5.9431181640625,-0.06818155582249164,0.008138206938561052,-0.0015568740531802176
1772094100905067300,5.9530673828125,-0.007955342918634414,-0.006645648559555411,0.01949351276010275
1772094100915017200,5.963017333984375,0.04490881678462028,-0.028206688308715817,0.01939706664830446
1772094100924966100,5.972966064453125,0.044649873587489126,-0.04627464351141825,0.014656886383891106
1772094100934915000,5.9829150390625,0.027048165923357008,-0.00510178011842072,0.0033598318219184875
1772094100944864000,5.992864013671875,0.057301849889755244,0.08242814437244086,-0.016488193464279172
1772094100954814200,6.002814208984375,0.0874935745358467,0.12878557079648598,-0.01749795502871275
1772094100964763100,6.01276318359375,0.09947919588387012,0.08973950856542215,0.013127192598581314
1772094100974712000,6.022712158203125,0.09102057961821555,0.01644758745925501,0.04147153581231832
1772094100984662000,6.032662109375,0.06490764871835708,-0.042775001360010355,0.046160570411384105
1772094100994611000,6.04261083984375,0.10451777457296847,-0.06102140013584867,0.004253858052194118
1772094101004560000,6.052559814453125,0.16259703857600688,-0.02296159072946757,-0.04228606706559658
1772094101014509300,6.06250927734375,0.17282850973308087,0.017287454083189366,-0.07737082445025444
1772094101024459000,6.072458984375,0.14529226803183554,0.0496757023928687,-0.05491700057983398
1772094101034408200,6.082408203125,0.11028174492716789,0.03563274665623903,-0.033178777632862325
1772094101044357000,6.092357177734375,0.07532090618312358,0.015370660676434635,-0.0583398146353662
1772094101054307000,6.10230712890625,0.03356616951525211,-0.010265391692984849,-0.07066285124421119
1772094101064256300,6.11225634765625,-0.02328793660700321,-0.030027163467835634,-0.05031286778524518
1772094101074205200,6.122205078125,-0.09111936381757259,-0.037065592470951376,-0.03791764272302389
1772094101084154000,6.132154052734375,-0.09240355840921402,-0.019091818357724694,-0.029665801075845957
1772094101094104000,6.14210400390625,-0.00854629454910755,-0.007032638583146035,-0.04236497752070427
1772094101104053000,6.152052978515625,0.08378244505822659,0.01356949300598353,-0.04462532366812229
1772094101114002000,6.162001953125,0.16377075853049755,0.02111983532030135,-0.04285495299473405
1772094101123952000,6.1719521484375,0.16304712043106556,0.006267444630619138,-0.03215659497827291
1772094101133901000,6.181901123046875,0.07758826659321784,0.022772041240427643,-0.026073475672304627
1772094101143850000,6.19185009765625,0.005205167427659034,0.063409391250927,-0.011699059491604566
1772094101153799200,6.201799072265625,-0.021640753921866415,0.04220790552916005,-0.002578764446824789
1772094101163748900,6.211748779296875,0.021655951490998266,0.011006419318635016,0.015466449201107024
1772094101173698300,6.2216982421875,0.08557575821578502,-0.013913977328408508,-0.0020636545315384862
1772094101183647200,6.231647216796875,0.10566168391108512,-0.033398320401366796,0.007436433611065149
1772094101193597200,6.24159716796875,0.10019114354550838,-0.030591994276363402,0.01949818893522024
1772094101203546000,6.251546142578125,0.08159574866890906,0.0018177534790709614,0.000592559065669775
1772094101213495000,6.2614951171875,0.09113806851804256,0.041424810593761505,-0.03233633545935154
1772094101223445200,6.2714453125,0.11151742420196532,0.03266996959419921,-0.043441520711034534
1772094101233394200,6.281394287109375,0.08298048102557659,0.033072047589067365,-0.051954789773374796
1772094101243343000,6.291343017578125,0.016866379126906392,0.03173246954837814,-0.04700549680292606
1772094101253292000,6.3012919921875,-0.037489480438828465,-0.0070242908799089485,-0.00033770752176642414
1772094101263242000,6.311241943359375,-0.02556406484544277,-0.03430546184154227,0.019596534743160008
1772094101273191000,6.32119091796875,0.03183656924366951,-0.017359879998583346,-0.00396904976144433
1772094101283140000,6.33114013671875,0.09121697897315025,0.00011350684445351362,-0.03426438091248274
1772094101293089000,6.341089111328125,0.14925708000957966,0.006653448273520916,-0.05104892697483301
1772094101303039000,6.3510390625,0.18442308593690393,-0.0005129544908180833,-0.05319719104990363
1772094101312988200,6.36098828125,0.15834171921908854,0.006832585966400802,-0.050468058346956966
1772094101322937000,6.37093701171875,0.10837152739167213,-0.005384798310883343,-0.039173341872543094
1772094101332887300,6.38088720703125,0.037083822247385975,0.01567764426637441,-0.027993630079925058
1772094101342836200,6.390836181640625,-0.027763036194443702,0.031880426651705054,-0.015545798047631978
1772094101352785200,6.40078515625,-0.002614566412568092,0.012405819521471857,0.031478403455764054
1772094101362734000,6.410734130859375,0.046074937954545016,0.019879388538841157,0.03528583291471004
1772094101372684000,6.42068408203125,0.08563888657987118,0.010733392797224224,-0.004432283359020948
1772094101382633000,6.430633056640625,0.10697510459721088,0.03197228791993111,-0.05450681234374642
1772094101392582100,6.44058203125,0.11861878063976763,0.06922134719900787,-0.08616028010547161
1772094101402532000,6.450531982421875,0.09614508302509785,0.08831427980158478,-0.08243556049391627
1772094101412481000,6.46048095703125,0.03887421279549599,0.04579009313117712,-0.06920958369597792
1772094101422430000,6.470429931640625,-0.002212415352463722,-0.024059450702462345,-0.005451981795579194
1772094101432380200,6.480380126953125,-0.049395606809854505,-0.06694826943418011,0.0644770022161305
1772094101442329000,6.4903291015625,-0.05246025507748127,-0.07184957681074738,0.0592950695335865
1772094101452278000,6.500278076171875,-0.005165419939160347,-0.04508638357492163,0.025552228277176618
1772094101462227200,6.510227294921875,0.06251286253631115,0.005556081490870565,0.02404796119406819
1772094101472177200,6.52017724609375,0.11395721856951713,0.04988729931693524,0.005910977609455585
1772094101482126000,6.5301259765625,0.16603285824358463,0.05771861399710178,-0.026714696185290814
1772094101492075300,6.5400751953125,0.17082418417334555,0.060825128645077345,-0.04961626382321119
1772094101502025200,6.550025146484375,0.10496902547180652,0.054391807661950585,-0.04035115348026156
1772094101511974100,6.55997412109375,0.07271803020834923,0.014750775212422013,-0.014621376679092645
1772094101521923000,6.569923095703125,0.055824763074517246,-0.031448866834025826,-0.013049305056780576
1772094101531872000,6.5798720703125,0.02500467739701271,-0.04684152014655992,-0.023629005129635332
1772094101541822200,6.589822265625,-0.0045031566381454466,-0.04953214747002348,-0.010413695856183767
1772094101551771100,6.599771240234375,-0.0014034370571374892,-0.06538381486274301,-0.01745090101659298
1772094101561720000,6.609719970703125,0.01312251642346382,-0.05076455707550048,-0.025206775840371846
1772094101571670000,6.619669921875,-0.0006979191362857818,-0.012738978732284158,-0.05124094241559505
1772094101581619000,6.629618896484375,-0.013210194706916808,0.012882606720365583,-0.06451236579045654
1772094101591568000,6.63956787109375,0.023808161088824272,0.014958243950642644,-0.04135127043351531
1772094101601517300,6.649517333984375,0.09043313511908053,0.011080270006135106,-0.016151801116764543
1772094101611467000,6.659467041015625,0.15669512105584144,0.01630156658468768,0.006857903070747852
1772094101621416200,6.669416259765625,0.178516492241621,0.01756203324086964,0.021660919927060603
1772094101631365000,6.679365234375,0.14605799170732497,0.018423673305194822,0.02343085220903158
1772094101641315000,6.689315185546875,0.14264730648100377,-0.004582194957416504,0.0349587929174304
1772094101651264300,6.69926416015625,0.11972878770828246,0.011448263068310916,0.006552928774803877
1772094101661213200,6.709213134765625,0.08897066135108471,0.04751161969415843,-0.05776932127103209
1772094101671162000,6.719162109375,0.03791793498396873,0.06030033758599311,-0.05959712122008204
1772094101681112000,6.729112060546875,0.0618266338378191,0.035562585763167585,-0.024398674327880142
1772094101691061000,6.73906103515625,0.06319499958157539,0.006393683092482388,-0.008903291293233632
1772094101701010000,6.749010009765625,0.04446399562656879,0.011514533237554133,-0.015417495492845773
1772094101710960000,6.758960205078125,-0.006018237376213074,0.024061807056330143,-0.04269011782184243
1772094101720909000,6.768908935546875,-0.053635144075751304,-0.001605955625604838,-0.030105361536890266
1772094101730858000,6.77885791015625,-0.07730652704238891,-0.01232753012087196,-0.03198722976073622
1772094101740807200,6.78880712890625,-0.061469490963220595,-0.015649221889488397,-0.020994418842345475
1772094101750756900,6.7987568359375,-0.001637245813012123,0.00217668645195663,-0.010829290919750928
1772094101760706300,6.808706298828125,0.07829261547029018,0.02712992592267692,0.010821692135185003
1772094101770655200,6.8186552734375,0.14293664481639862,0.049431865433324125,0.005003361245244741
1772094101780605200,6.828605224609375,0.1652186192512512,0.05486306016920134,-0.017658406287431715
1772094101790554000,6.83855419921875,0.14162205508649348,0.052977703080326316,-0.03985270243883133
1772094101800503000,6.8485029296875,0.11733458604812622,0.05001662478502839,-0.04539791547581553
1772094101810452000,6.858451904296875,0.12626900313198566,0.007455631501879543,-0.04515183176025748
1772094101820402200,6.868402099609375,0.11213994001448153,-0.045844709395244716,-0.03106163934841752
1772094101830351000,6.87835107421875,0.09715396780669688,-0.06120119541585445,-0.013904168320447205
1772094101840300000,6.888300048828125,0.06131576170623302,-0.06484875813797115,-0.016905395963042972
1772094101850250000,6.89825,-0.004460486540198326,-0.049366307650133966,-0.03610840134397149
1772094101860199000,6.908198974609375,-0.038971243429183955,-0.02061972204474732,-0.08287643612921237
1772094101870148000,6.918148193359375,-0.013968319597840308,-0.047715325572714205,-0.08409224165976047
1772094101880098000,6.92809814453125,0.01117021331191063,-0.04171118978708982,-0.03990969332307577
1772094101890047000,6.938046875,0.01625087757706642,-0.03010583646092564,-0.007102233220636844
1772094101899996200,6.94799609375,0.029614217019081113,-0.06354786813985557,0.021946020478755233
1772094101909945000,6.957945068359375,0.05756430021822452,-0.03956756535451859,-0.014337445171177387
1772094101919895300,6.967895263671875,0.12402385455369949,-0.023935952186957002,-0.04379530258476734
1772094101929844200,6.97784423828125,0.1896060415327549,-0.004664977870043367,-0.08098243907615542
1772094101939793200,6.987793212890625,0.202845462334156,-0.014374781506881117,-0.06735474960952997
1772094101949742000,6.9977421875,0.1466495278596878,0.0024418949930928645,-0.04815335166379809
1772094101959692000,7.007692138671875,0.016383564046025274,0.019211298285238442,-0.02501359135583043
1772094101969641000,7.017640869140625,-0.07234393619894981,0.041236430148500945,-0.007549100205302238
1772094101979590100,7.027590087890625,-0.11651917801201343,0.043773200350813564,0.006214490600675344
1772094101989540000,7.0375400390625,-0.09502397004067897,0.03233737663896754,0.014800386507809161
1772094101999489000,7.047489013671875,-0.0006944120049476623,-0.008186174266133456,0.004191752601414919
1772094102009438000,7.05743798828125,0.0947223567456007,-0.04385242133317515,-0.025685499268025158
1772094102019388200,7.06738818359375,0.1818500205785036,-0.06139748517293483,-0.06764306503161788
1772094102029337000,7.077337158203125,0.24522271481454372,-0.05343909178068861,-0.0895005304440856
1772094102039286000,7.0872861328125,0.2550789229184389,0.0034308329652063545,-0.11440788494646549
1772094102049235200,7.097235107421875,0.16425766526460647,0.030957503120508042,-0.13729776214659214
1772094102059185200,7.10718505859375,0.014973697248101233,0.03163255283785984,-0.11001286485791206
1772094102069134000,7.117134033203125,-0.1332429337978363,0.02408474954050034,-0.0710186789445579
1772094102079083300,7.127083251953125,-0.13436463130414486,-0.04152275454290211,-0.036149902398139235
1772094102089033200,7.137033203125,-0.032144027757644654,-0.09693785910429432,-0.03403276411369443
1772094102098982100,7.146982177734375,0.056312838852405546,-0.07409587616650387,-0.07176745148524642
1772094102108931000,7.15693115234375,0.1384492702692747,-0.02532981769815087,-0.1131806812390685
1772094102118880000,7.1668798828125,0.17058979089558124,0.0021446656121872363,-0.13229542381465434
1772094102128830200,7.176830322265625,0.1650438472062349,0.00811922824345529,-0.13055647119283675
1772094102138779100,7.186779052734375,0.1171656592220068,-0.011937142563797533,-0.10928060506060719
1772094102148728000,7.19672802734375,0.05864917284548282,-0.044012781260348854,-0.04767287467047572
1772094102158678000,7.206677978515625,-0.035918285599350924,-0.061958041665144264,0.010185732319206
1772094102168627000,7.216626953125,-0.08937047432363032,-0.03224083919562399,0.04156301348805427
1772094102178576000,7.226575927734375,-0.07416063023209571,-0.007183262567594647,0.055283203543722625
1772094102188525300,7.236525390625,0.014711246919631956,0.039615021225437516,0.01856046969369054
1772094102198475000,7.24647509765625,0.13073884202241898,0.05935206041783094,-0.030157676246017215
1772094102208424200,7.256424072265625,0.18044833708703517,0.04460811680499464,-0.07548997913971543
1772094102218373000,7.266373046875,0.1586181980729103,-0.016144768587779253,-0.06078413904756307
1772094102228323000,7.276322998046875,0.08229425232708454,-0.07749174741618335,0.0037631519258022306
1772094102238272300,7.286272216796875,-0.03277414235472679,-0.050820177986565976,0.04347323102355003
1772094102248221200,7.29622119140625,-0.07808920185267924,-0.01551036140806973,0.06222191676571965
1772094102258170000,7.306170166015625,-0.04330839585065841,-0.059531873964145776,0.07996303290054202
1772094102268120000,7.3161201171875,0.0015168343037366865,-0.07181956526497378,0.062224108722805975
1772094102278069000,7.326069091796875,0.03232698310911655,-0.025545469742827117,-0.012774872029572724
1772094102288018000,7.336017822265625,0.01989946321249008,0.010195011604204773,-0.03559109947159886
1772094102297968000,7.345968017578125,0.030361820515990255,0.06708044444648549,-0.04938596219867467
1772094102307917000,7.3559169921875,0.019774375528097153,0.06966061539910734,-0.028446926805377006
1772094102317866000,7.365865966796875,0.09831891993284225,0.04394115906255319,-0.017969079671800135
1772094102327815200,7.375815185546875,0.13349369368851183,-0.002734283802099526,-0.016058277614414692
1772094102337764900,7.385764892578125,0.146126965290308,-0.0162476809729822,-0.0002601122409105301
1772094102347714300,7.39571435546875,0.16588263611793516,-0.019430201732926068,0.012108370944857597
1772094102357663200,7.405663330078125,0.1717512358903885,0.037962504778057335,-0.0419648722872138
1772094102367613200,7.41561328125,0.14980711510777472,0.09590327362585813,-0.1064709544673562
1772094102377562000,7.42556201171875,0.09726561148762702,0.13273591585746033,-0.10091726586297153
1772094102387511000,7.435510986328125,0.031493454894423484,0.09060597093533725,-0.046480303885042665
1772094102397460000,7.4454599609375,0.013781272593140602,0.018421170820854604,0.030246085181832312
1772094102407410200,7.45541015625,0.01703647499680519,-0.053873190615326166,0.0801641084305942
1772094102417359000,7.465359130859375,0.03456687099039554,-0.03228626750623807,0.05396992898806929
1772094102427308000,7.47530810546875,0.026006547915935516,0.021881266413163392,-0.015992957293242214
1772094102437258000,7.485258056640625,0.04323533061444759,0.06134217478912323,-0.05264131073281168
1772094102447207000,7.49520703125,0.12600304567217827,0.03359705784386024,-0.08161898341402411
1772094102457156000,7.505156005859375,0.19265666127502917,-0.001955773710273206,-0.08806494468301534
1772094102467105000,7.51510498046875,0.19498598100543021,-0.024975834895018485,-0.07880275694951415
1772094102477055000,7.525054931640625,0.1760585776954889,-0.0583556515253149,-0.03591390168517828
1772094102487004200,7.535004150390625,0.11445230861008167,-0.05916336944531649,-0.018360709337890146
1772094102496953000,7.544953125,-0.002897475007176399,-0.023544450385030356,-0.018204641993343828
1772094102506903300,7.5549033203125,-0.08958207124769688,-0.026132567182090134,-0.017817834632843733
1772094102516852200,7.564852294921875,-0.07225918052494526,-0.06452075002631172,-0.03914835356175899
1772094102526801200,7.57480126953125,-0.03613163608908653,-0.1022800055835396,-0.068104398933053
1772094102536750000,7.58475,0.016513912427425382,-0.13788568156976252,-0.0476835421949625
1772094102546700000,7.594699951171875,0.10833587155640124,-0.12983623062688857,-0.024727906282246113
1772094102556649000,7.60464892578125,0.21094284407198427,-0.1155397567869164,-0.016678747600317
1772094102566598100,7.61459814453125,0.2709340791761875,-0.028122078765183686,-0.057859337642043825
1772094102576548000,7.624548095703125,0.23748715212643146,0.08335651126373558,-0.12171280113235115
1772094102586497000,7.6344970703125,0.14154548271894454,0.1159245913860388,-0.1259532151810825
1772094102596446000,7.644446044921875,0.03639817807078361,0.06140373225063085,-0.06860460354015231
1772094102606395000,7.654394775390625,0.00819908854663372,-0.06986306090233847,0.02339081245958805
1772094102616345000,7.664344970703125,-0.028157588469982144,-0.1511979301453568,0.04801861936822533
1772094102626294000,7.6742939453125,-0.03039338469803333,-0.10895217682383954,0.041254824321717024
1772094102636243200,7.6842431640625,0.023469138392806052,-0.036499245558772236,-0.010920330204069614
1772094102646193200,7.694193115234375,0.01664601437449455,0.027288404420018196,-0.10803878830596804
1772094102656142000,7.70414208984375,-0.019053660038113592,0.08772000370286405,-0.1183639290958643
1772094102666091300,7.71409130859375,0.015421441015601157,0.012044110069610177,-0.14301131748780607
1772094102676040200,7.724040283203125,0.053776598373055456,-0.024617742172349244,0.029369448477774857
1772094102685990100,7.733990234375,0.030786767929792402,-0.007579130017384886,0.021808219443261622
1772094102695939000,7.74393896484375,0.004931026661396026,-0.051918019693251695,-0.00977481343075633
1772094102705888000,7.753887939453125,0.052291328251361846,-0.0023974895957857368,0.03802884801253676
1772094102715838200,7.763838134765625,0.0523585482686758,-0.01068727036686614,0.003946253407746553
1772094102725787100,7.773787109375,0.06714695207774639,-0.051039684222452336,-0.005957739360630512
1772094102735736000,7.783736083984375,0.10231003539562225,-0.088098098033946,0.024584552288800476
1772094102745685000,7.79368505859375,0.05402209756672382,-0.0517894066112116,0.05606164057031274
1772094102755635000,7.803635009765625,0.037653731089830396,-0.0034181744130328297,0.06961451123505831
1772094102765584000,7.813583984375,0.08338555469512939,-0.0031443989729508758,0.012711013013124465
1772094102775532500,7.823532470703125,0.11969956161379813,0.004610434671211987,-0.04103928187489509
1772094102785482500,7.833482421875,0.06247486861348152,0.01065236345026642,-0.03332067032158375
1772094102795431400,7.843431396484375,-0.029059505745768547,-0.025329013980552553,0.02462283847257495
1772094102805380400,7.85338037109375,-0.01595686306655407,-0.08019879615148529,0.05749576502665877
1772094102815329300,7.863329345703125,0.004164133942127227,-0.09772643393240868,0.042646132549643515
1772094102825279500,7.873279541015625,0.019877835902571677,-0.05026422460423782,0.017163754638284442
1772094102835228400,7.883228515625,0.07857260145545006,0.010562091350927949,-0.038551118320971724
1772094102845177300,7.89317724609375,0.1665694493383169,0.018976631012838332,-0.08458923139646649
1772094102855126300,7.903126220703125,0.24680969174504278,0.010442319162469356,-0.09792889770194887
1772094102865076200,7.913076171875,0.1930652420759201,0.02447020519413054,-0.08913710395917296
1772094102875025200,7.923025146484375,0.08443360244333743,-0.02649696178138256,-0.030437223839759824
1772094102884974600,7.932974609375,0.011922492983937263,-0.059038701886031775,0.0276084301546216
1772094102894924300,7.94292431640625,-0.06185118375718593,-0.040922158301249144,0.035896073767542835
1772094102904873500,7.95287353515625,-0.0841302355825901,-0.016135653699561953,0.06316533509567379
1772094102914822400,7.962822509765625,-0.07452128023803234,-0.01524438568195328,0.054841158864647147
1772094102924771300,7.972771240234375,-0.016057400831580162,0.014024579829722642,0.022301263657212255
1772094102934721500,7.982721435546875,0.0544587354183197,0.04501832330739125,-0.02543254742026329
1772094102944670500,7.99267041015625,0.1602776557177305,0.02445204848293215,-0.057722851780802005
1772094102954619400,8.002619384765625,0.20980185734331608,-0.017303583234082907,-0.05992123860791325
1772094102964569300,8.0125693359375,0.17363982611596585,-0.03989566479772329,-0.03307020269185305
1772094102974518300,8.022518310546875,0.12667992202043532,-0.05729185821870342,0.0008830664448440074
1772094102984467200,8.03246728515625,0.05882979010939598,-0.05121275750072673,0.03365399392917752
1772094102994416400,8.04241650390625,0.005799626189470291,0.009663206282444298,0.02411255086287856
1772094103004366300,8.052366455078126,0.0033341128587722774,0.04077765353033319,-0.030542730040848252
1772094103014315300,8.062315185546876,0.035734161204099654,-0.007658405798673629,-0.02941840218603611
1772094103024264400,8.072264404296876,0.08575462191402912,-0.04417584460126236,-0.04298837011605501
1772094103034214400,8.08221435546875,0.07152560555338859,-0.06093463516784831,-0.03892681976556778
1772094103044163600,8.09216357421875,0.06935410673320293,-0.0366586921704933,-0.030383009434491393
1772094103054112500,8.102112548828124,0.07356558694839477,0.0048989327563904225,-0.025727877105027434
1772094103064061400,8.1120615234375,0.11430384005010127,0.031062954522669314,-0.004419277746975422
1772094103074011400,8.122011474609375,0.1373731654703617,0.04801376053001731,-0.028206688308715817
1772094103083960300,8.131960205078125,0.1110001223295927,0.040151959380041805,-0.020133125837892292
1772094103093909200,8.1419091796875,0.06411854416728019,-0.02249835713189095,0.007510960152000188
1772094103103859500,8.151859375,0.009917582902312278,-0.08141279331743717,0.031696722381561994
1772094103113808400,8.161808349609375,-0.007162146714329719,-0.08040500451438129,0.04841594812273979
1772094103123757300,8.17175732421875,-0.003680734339356422,-0.04094747540559619,0.041418490450829265
1772094103133706200,8.181706298828125,0.059037295380234715,-0.024087562552094457,-0.0023262509904801846
1772094103143656400,8.191656494140625,0.1174310321599245,0.03706040483918041,-0.06937354208603501
1772094103153605400,8.20160546875,0.1466980431765318,0.10704785930616781,-0.10652151561081409
1772094103163554300,8.21155419921875,0.10644026706814766,0.11893062306791544,-0.11203238798677921
1772094103173503500,8.22150341796875,0.028624621459841727,0.06106896560462191,-0.06297784969955682
1772094103183453400,8.231453369140626,-0.007142272970080375,-0.025715401215944438,0.029198621955513954
1772094103193402400,8.24140234375,-0.021113515177369115,-0.08637408725293352,0.05346680177152156
1772094103203351600,8.2513515625,0.008130114963650703,-0.10025465550208464,0.07200593641623854
1772094103213301500,8.261301513671874,0.06515665504336357,-0.044364298111759126,-0.03750555479079485
1772094103223250400,8.27125048828125,0.146488784340024,-0.007038100209552795,-0.08732304027453064
1772094103233199400,8.281199462890624,0.21532383563518523,0.09803325312556699,-0.041848990822583435
1772094103243148300,8.291148193359374,0.1833925738453865,0.09634268795643001,-0.0455124817661941
1772094103253098500,8.301098388671875,0.09731938750147819,0.05262205804307014,-0.09932941214963793
1772094103263047400,8.31104736328125,0.0407470209300518,0.01774794773440808,-0.005253536614030599
1772094103272996400,8.320996337890625,-0.023346388795971867,-0.08857468430344015,-0.05213219216689467
1772094103282946300,8.3309462890625,-0.09092121089696883,-0.09792279675472527,-0.010485445918142796
1772094103292895200,8.340895263671875,-0.13570143286585806,-0.0043057891688309605,-0.007415536953508854
1772094103302844200,8.35084423828125,0.01659282288253307,0.02671179184215143,0.03546192013397813
1772094103312793600,8.360793701171875,0.1920966893047094,-0.011842121224105358,-0.04679316922649741
1772094103322743300,8.370743408203126,0.2913023289442062,0.012438004758022725,-0.01493614171668887
1772094103332692500,8.3806923828125,0.15632044252455235,0.08472907825857401,0.0670329703092575
1772094103342641400,8.390641357421876,-0.1084469307154417,0.026867365996353327,0.18053864571899175
1772094103352591400,8.40059130859375,-0.2218687272340059,0.00884359699524939,0.13237053487747907
1772094103362540500,8.41054052734375,-0.15839666427671908,0.0026769275916740296,-0.04963102300092578
1772094103372489500,8.420489501953124,-0.013805822512507438,0.028521508145239204,-0.166645729444921
1772094103382438400,8.4304384765625,0.17287819409370422,0.06437151428135111,-0.20903335718885063
1772094103392388400,8.440388427734375,0.27682313721477986,0.06223075765930116,-0.17536022016778588
1772094103402337300,8.450337158203125,0.2902268086671829,0.017784571684058753,-0.08351707212030887
1772094103412286200,8.4602861328125,0.1855178954362869,-0.05318053217604756,0.016463351283967493
1772094103422235400,8.4702353515625,-0.05125263285338878,-0.04871012703003361,0.13943784291520714
1772094103432185300,8.480185302734375,-0.16164952859282491,-0.08758079616157337,0.14616042916849253
1772094103442134300,8.49013427734375,-0.15258184051811693,-0.08260271548805757,-0.047387335727363825
