time,seconds_elapsed,z,y,x
1772094095054902500,0.102902587890625,0.011124863289296627,0.013652291148900986,0.02687985822558403
1772094095064852500,0.1128525390625,0.005961471237242222,0.012697895988821983,0.03181057795882225
1772094095074801400,0.122801513671875,0.007792128250002861,0.00012884102761745453,0.034304894506931305
1772094095084750300,0.132750244140625,0.011063076555728912,-0.00646582804620266,0.03596668317914009
1772094095094699300,0.14269921875,0.025343479588627815,-0.015142939984798431,0.036287859082221985
1772094095104649500,0.1526494140625,0.04113215580582619,-0.02120891585946083,0.017732199281454086
1772094095114598400,0.162598388671875,0.042934849858284,-0.0049457913264632225,-0.013431845232844353
1772094095124547600,0.172547607421875,0.037461355328559875,0.025693051517009735,-0.04659629240632057
1772094095134496500,0.18249658203125,0.014759236946702003,-0.024613793939352036,-0.03652794659137726
1772094095144446500,0.192446533203125,0.002020846586674452,-0.0251281950622797,-0.03548672795295715
1772094095154395600,0.202395751953125,-0.005153443198651075,-0.015165576711297035,-0.053058795630931854
1772094095164344600,0.212344482421875,-0.005544239189475775,-0.004849325865507126,-0.05702247843146324
1772094095174293500,0.22229345703125,0.0028585665859282017,-0.020957190543413162,-0.03978943079710007
1772094095184243500,0.232243408203125,0.0023329565301537514,-0.0276976078748703,-0.014528768137097359
1772094095194192400,0.2421923828125,0.002667183056473732,-0.0190894715487957,0.004352245479822159
1772094095204141300,0.252141357421875,-0.0007303929887712002,-0.017372285947203636,0.02052413672208786
1772094095214090200,0.26209033203125,-0.00893053226172924,-0.01577625423669815,0.02552102506160736
1772094095224040400,0.27204052734375,0.0004432979039847851,-0.0006250771693885326,0.01882856711745262
1772094095233989400,0.2819892578125,0.003776243422180414,0.008996923454105854,0.011456936597824097
1772094095243938600,0.2919384765625,0.015527300536632538,0.00581174623221159,0.01774146780371666
1772094095253887500,0.301887451171875,0.01746022328734398,-0.0005113971419632435,0.02617303654551506
1772094095263837700,0.311837646484375,0.016580797731876373,-0.00822029635310173,0.021997228264808655
1772094095273786600,0.32178662109375,0.008889323100447655,-0.002055079210549593,0.014584051445126534
1772094095283735600,0.331735595703125,0.003210298251360655,-0.005387802608311176,0.0013947011902928352
1772094095293684500,0.3416845703125,0.003404176328331232,-0.002430095337331295,-0.01714249886572361
1772094095303634400,0.351634521484375,0.00795470830053091,-0.000512612983584404,-0.03178247809410095
1772094095313583400,0.361583251953125,0.005495810881257057,-0.007189956959336996,-0.03524592146277428
1772094095323532500,0.371532470703125,0.006520387716591358,-0.017288558185100555,-0.02990918979048729
1772094095333481500,0.3814814453125,-0.0030536758713424206,-0.019499247893691063,-0.019778259098529816
1772094095343431400,0.391431396484375,-0.01341233029961586,-0.020058566704392433,-0.021664027124643326
1772094095353380400,0.40138037109375,-0.021152008324861526,-0.013253659009933472,-0.022388938814401627
1772094095363329500,0.41132958984375,-0.02460629492998123,-0.009982187300920486,-0.030554678291082382
1772094095373278500,0.421278564453125,-0.02368377521634102,-0.005551219917833805,-0.03416326269507408
1772094095383227400,0.431227294921875,-0.022733598947525024,-0.002707282081246376,-0.01799338310956955
1772094095393177600,0.441177490234375,-0.022982072085142136,-0.013882173225283623,0.006163617130368948
1772094095403126500,0.45112646484375,-0.021811485290527344,-0.01771683618426323,0.017375187948346138
1772094095413075500,0.461075439453125,-0.008764659985899925,-0.0060306210070848465,0.01212130393832922
1772094095423024400,0.4710244140625,-0.0027642915956676006,-0.005561023484915495,0.005057905334979296
1772094095432974600,0.480974609375,-0.0007791712414473295,0.00234483671374619,-0.00004604272544384003
1772094095442923500,0.490923583984375,-0.0073911831714212894,0.008335861377418041,-0.0012368974275887012
1772094095452872400,0.50087255859375,-0.013212853111326694,-0.030187830328941345,-0.0029668868519365788
1772094095462821400,0.5108212890625,-0.028758734464645386,-0.06546387076377869,0.004613923374563456
1772094095472771300,0.520771240234375,-0.011541398242115974,-0.05925578251481056,0.007115430664271116
1772094095482720300,0.53072021484375,-0.031158871948719025,-0.08769012987613678,-0.008446795865893364
1772094095492669700,0.540669677734375,-0.04338517785072327,-0.09265585988759995,-0.01888399012386799
1772094095502618600,0.55061865234375,-0.0509200319647789,-0.06648678332567215,-0.059139546006917953
1772094095512568600,0.560568603515625,-0.08540477603673935,-0.026505006477236748,-0.11528484523296356
1772094095522517500,0.570517578125,-0.10719205439090729,0.016794651746749878,-0.14907990396022797
1772094095532466400,0.580466552734375,-0.11424197256565094,0.03492971509695053,-0.136297807097435
1772094095542415400,0.590415283203125,-0.12332723289728165,0.029273798689246178,-0.09471708536148071
1772094095552365600,0.600365478515625,-0.1131046861410141,0.018127139657735825,-0.0344657227396965
1772094095562314500,0.610314453125,-0.10505638271570206,0.00809541530907154,0.027148768305778503
1772094095572263400,0.620263427734375,-0.10698584467172623,0.002870027208700776,0.07074897736310959
1772094095582212400,0.63021240234375,-0.10376156121492386,-0.016069304198026657,0.11907544732093811
1772094095592162300,0.640162353515625,-0.09025374799966812,-0.025034569203853607,0.1384270340204239
1772094095602111500,0.650111572265625,-0.07536009699106216,-0.02819465473294258,0.15699341893196106
1772094095612060700,0.660060791015625,-0.07010141760110855,-0.0237429141998291,0.1466560810804367
1772094095622009600,0.670009521484375,-0.04923321306705475,-0.03603465482592583,0.13021734356880188
1772094095631959600,0.67995947265625,-0.04526270553469658,-0.04020276665687561,0.09580504149198532
1772094095641908500,0.689908447265625,-0.04483647644519806,-0.028620846569538116,0.05465790629386902
1772094095651857400,0.699857421875,-0.03924623504281044,-0.04017630219459534,0.014974940568208694
1772094095661806300,0.709806396484375,-0.034253548830747604,-0.03226093575358391,0.0003654933534562588
1772094095671756500,0.719756591796875,-0.02323179319500923,-0.038917504251003265,-0.01748514175415039
1772094095681705500,0.72970556640625,-0.02443147636950016,-0.0288710817694664,-0.017076436430215836
1772094095691654400,0.739654296875,-0.01943059265613556,-0.05269066244363785,0.014859924092888832
1772094095701603300,0.749603271484375,-0.008574497886002064,-0.07908424735069275,0.06042880564928055
1772094095711553500,0.759553466796875,0.001641920767724514,-0.106402687728405,0.10228384286165237
1772094095721502500,0.76950244140625,0.005852211732417345,-0.10651662945747375,0.1272486299276352
1772094095731451400,0.779451416015625,-0.009122476913034916,-0.08952859044075012,0.14851956069469452
1772094095741400600,0.789400634765625,-0.035175640136003494,-0.08806279301643372,0.16360428929328918
1772094095751350500,0.7993505859375,-0.04068918526172638,-0.07489186525344849,0.17207419872283936
1772094095761296400,0.80929638671875,-0.05475755035877228,-0.058156635612249374,0.16579028964042664
1772094095771245600,0.81924560546875,-0.05186216160655022,-0.036483827978372574,0.15909084677696228
1772094095781194500,0.829194580078125,-0.03617088869214058,-0.07152888178825378,0.14508122205734253
1772094095791144400,0.83914453125,-0.037837229669094086,-0.05925304442644119,0.1224169209599495
1772094095801093600,0.84909375,-0.020882928743958473,0.03006669506430626,0.041388485580682755
1772094095811042600,0.85904248046875,-0.030216775834560394,0.09040486812591553,-0.032921962440013885
1772094095820991500,0.868991455078125,-0.02998715452849865,0.09596547484397888,-0.037903811782598495
1772094095830941400,0.87894140625,-0.011863810010254383,0.052105873823165894,-0.006487566512078047
1772094095840890400,0.888890380859375,0.013431638479232788,0.03480719402432442,0.002721137134358287
1772094095850839300,0.89883935546875,0.019255172461271286,0.04013298451900482,0.001501675695180893
1772094095860788200,0.908788330078125,0.02179373800754547,0.019224893301725388,0.01712609827518463
1772094095870738400,0.918738525390625,0.02611365169286728,-0.003211972303688526,0.04622273147106171
1772094095880687400,0.928687255859375,0.03513670712709427,-0.017296437174081802,0.06606339663267136
1772094095890636500,0.938636474609375,0.04060311242938042,-0.000994694884866476,0.06156265363097191
1772094095900585500,0.94858544921875,0.042353786528110504,0.007162056863307953,0.045865606516599655
1772094095910535700,0.95853564453125,0.03711801394820213,0.01857024058699608,0.04814021289348602
1772094095920484600,0.968484619140625,0.037692390382289886,0.02384231984615326,0.0302348081022501
1772094095930433500,0.97843359375,0.04589998722076416,0.02570519968867302,-0.003786809276789427
1772094095940382500,0.988382568359375,0.03656884282827377,0.047415945678949356,-0.03446916490793228
1772094095950332400,0.99833251953125,0.026839785277843475,0.052583277225494385,-0.05995188653469086
1772094095960281300,1.00828125,0.013159648515284061,0.052950453013181686,-0.06167137995362282
1772094095970230500,1.01823046875,-0.0021841537673026323,0.06024644896388054,-0.049078624695539474
1772094095980179500,1.028179443359375,-0.007798896171152592,0.06669849157333374,-0.038360998034477234
1772094095990129400,1.03812939453125,-0.00556397158652544,0.06180626153945923,-0.037949804216623306
1772094096000078300,1.048078369140625,-0.005625496152788401,0.08988424390554428,-0.046382222324609756
1772094096010027500,1.058027587890625,-0.0056215012446045876,0.11168887466192245,-0.04765574261546135
1772094096019976400,1.0679765625,-0.008403398096561432,0.11940417438745499,-0.038562458008527756
1772094096029926700,1.0779267578125,-0.004458990413695574,0.12867756187915802,-0.025756914168596268
1772094096039875600,1.08787548828125,-0.014015519060194492,0.12273939698934555,0.004293740727007389
1772094096049824500,1.097824462890625,-0.025901205837726593,0.0948137566447258,0.03543568029999733
1772094096059773400,1.1077734375,-0.017567193135619164,0.06654352694749832,0.039095018059015274
1772094096069723400,1.117723388671875,-0.013722654432058334,0.08834922313690186,0.008973336778581142
1772094096079672600,1.127672607421875,-0.011995073407888412,0.09833421558141708,-0.018893500789999962
1772094096089621500,1.13762158203125,0.0023164870217442513,0.08544185757637024,-0.0244752187281847
1772094096099570400,1.1475703125,0.01823854073882103,0.06376469880342484,-0.01688365265727043
1772094096109519400,1.157519287109375,0.019117383286356926,0.04628503695130348,-0.028204217553138733
1772094096119469300,1.16746923828125,0.02745158225297928,0.04100463539361954,-0.05924609303474426
1772094096129418500,1.17741845703125,0.036335889250040054,0.05763448029756546,-0.10839952528476715
1772094096139367700,1.18736767578125,0.042903654277324677,0.08721509575843811,-0.13626590371131897
1772094096149316600,1.197316650390625,0.04580037668347359,0.07536935061216354,-0.11950397491455078
1772094096159266600,1.2072666015625,0.04756961390376091,0.05670250207185745,-0.06801916658878326
1772094096169215500,1.217215576171875,0.04917416721582413,0.019662724807858467,-0.01127865444868803
1772094096179164400,1.227164306640625,0.05786283686757088,0.010864739306271076,0.025258677080273628
1772094096189113300,1.23711328125,0.06180164963006973,0.022208474576473236,0.03699522837996483
1772094096199063600,1.2470634765625,0.0814044177532196,0.02723557874560356,0.05776168033480644
1772094096209012500,1.257012451171875,0.09518015384674072,0.025572434067726135,0.08047924190759659
1772094096218961400,1.26696142578125,0.08632504940032959,0.03404265642166138,0.07812400162220001
1772094096228911400,1.276911376953125,0.08349810540676117,0.03236912563443184,0.08594437688589096
1772094096238860300,1.2868603515625,0.07421916723251343,0.053813546895980835,0.06897574663162231
1772094096248809500,1.2968095703125,0.05413813516497612,0.04904355853796005,0.02642163261771202
1772094096258758700,1.306758544921875,0.030807863920927048,0.12911492586135864,-0.03348521888256073
1772094096268708400,1.316708251953125,0.050237223505973816,0.13036607205867767,-0.07000275701284409
1772094096278657500,1.326657470703125,0.04686430096626282,0.12410174310207367,-0.09634410589933395
1772094096288606500,1.3366064453125,0.05031336098909378,0.13398954272270203,-0.13074150681495667
1772094096298555400,1.346555419921875,0.05896018072962761,0.13633835315704346,-0.15306074917316437
1772094096308505600,1.356505615234375,0.06629079580307007,0.12469368427991867,-0.14833922684192657
1772094096318454500,1.36645458984375,0.06550803035497665,0.09043485671281815,-0.0981598049402237
1772094096328403500,1.376403564453125,0.06668727844953537,0.04387587681412697,-0.027872327715158463
1772094096338352400,1.386352294921875,0.06398886442184448,0.0011009362060576677,0.036501821130514145
1772094096348302300,1.39630224609375,0.055392712354660034,-0.01478189043700695,0.07916565984487534
1772094096358251500,1.40625146484375,0.06287264823913574,-0.03193981200456619,0.10215635597705841
1772094096368200400,1.416200439453125,0.06732331961393356,-0.0429392009973526,0.0968547984957695
1772094096378149600,1.426149658203125,0.07023485004901886,-0.0346623994410038,0.07797769457101822
1772094096388099300,1.436099365234375,0.06335936486721039,0.004715633112937212,0.04992128536105156
1772094096398048500,1.446048583984375,0.05331747978925705,0.029568303376436234,0.01568501628935337
1772094096407997400,1.45599755859375,0.0343022421002388,0.040885940194129944,-0.017447637394070625
1772094096417946600,1.465946533203125,0.02683602273464203,0.053406063467264175,-0.04125850275158882
1772094096427896600,1.475896484375,0.020630590617656708,0.055265214294195175,-0.06524612754583359
1772094096437845500,1.485845458984375,0.0139126256108284,0.06047339364886284,-0.05681665614247322
1772094096447794400,1.49579443359375,0.0038884878158569336,0.011682684533298016,-0.011673145927488804
1772094096457743400,1.505743408203125,-0.0017512270715087652,-0.020629018545150757,0.026494957506656647
1772094096467693600,1.515693603515625,-0.004000799264758825,-0.022190961986780167,0.025655530393123627
1772094096477642500,1.525642578125,-0.003786372020840645,-0.01959371194243431,0.015734069049358368
1772094096487591400,1.53559130859375,0.000776155386120081,-0.022698158398270607,0.005392482504248619
1772094096497540400,1.545540283203125,0.0015263059176504612,-0.018279630690813065,-0.002275950275361538
1772094096507490300,1.555490234375,-0.001068145502358675,-0.02775781974196434,-0.0011672764085233212
1772094096517439500,1.565439453125,-0.009420229122042656,-0.021614862605929375,-0.004974012263119221
1772094096527388700,1.575388671875,-0.022845756262540817,-0.016698401421308517,-0.012904107570648193
1772094096537337600,1.585337646484375,-0.03004664182662964,-0.011586863547563553,-0.018803134560585022
1772094096547287600,1.59528759765625,-0.03522862121462822,-0.014686251059174538,-0.014073359780013561
1772094096557236500,1.605236572265625,-0.027748925611376762,-0.019512619823217392,0.0019270526245236397
1772094096567185400,1.615185302734375,-0.01967661827802658,-0.0225124042481184,0.013790902681648731
1772094096577134300,1.62513427734375,-0.016366207972168922,-0.022359494119882584,0.020014755427837372
1772094096587084500,1.63508447265625,-0.01490466482937336,-0.012208589352667332,0.012520620599389076
1772094096597033500,1.645033447265625,-0.01752152293920517,0.007044601254165173,-0.0010214271023869514
1772094096606982400,1.654982421875,-0.023526951670646667,0.01946478709578514,-0.01193452812731266
1772094096616931300,1.664931396484375,-0.02476256527006626,0.017399556934833527,-0.005612452048808336
1772094096626881300,1.67488134765625,-0.022319646552205086,0.000261582899838686,0.007084434852004051
1772094096636830500,1.68483056640625,-0.023601723834872246,-0.004227583296597004,0.0032488559372723103
1772094096646779600,1.694779541015625,-0.025877395644783974,-0.0029500648379325867,-0.005307614337652922
1772094096656728600,1.704728515625,-0.02531133033335209,-0.010514874011278152,-0.011425459757447243
1772094096666678500,1.714678466796875,-0.022279322147369385,-0.008471163921058178,-0.020824020728468895
1772094096676627500,1.72462744140625,-0.024726008996367455,0.0019147759303450584,-0.031330909579992294
1772094096686576400,1.734576416015625,-0.03469102457165718,0.011050216853618622,-0.03463216498494148
1772094096696525600,1.744525634765625,-0.03172047436237335,0.00235571782104671,-0.02238309569656849
1772094096706475500,1.7544755859375,-0.02918780967593193,0.007941165938973427,-0.009444128721952438
1772094096716424400,1.764424560546875,-0.029987331479787827,0.015135839581489563,0.00044373422861099243
1772094096726373400,1.774373291015625,-0.030689340084791183,0.011758418753743172,0.009624982252717018
1772094096736322300,1.784322265625,-0.024541759863495827,0.014488489367067814,0.018195217475295067
1772094096746272500,1.7942724609375,-0.02034701593220234,0.011027445085346699,0.020480209961533546
1772094096756221400,1.804221435546875,-0.011318674311041832,-0.0028315004892647266,0.020260844379663467
1772094096766169300,1.81416943359375,-0.008367892354726791,-0.016782470047473907,0.0012259013019502163
1772094096776119300,1.824119384765625,-0.007939225994050503,-0.017249608412384987,-0.02863200008869171
1772094096786068200,1.834068115234375,-0.009063879027962685,-0.013442087918519974,-0.049842748790979385
1772094096796017200,1.84401708984375,-0.011545471847057343,-0.016871893778443336,-0.052683666348457336
1772094096805966000,1.853966064453125,-0.01111563853919506,-0.016334468498826027,-0.03947891294956207
1772094096815916300,1.863916259765625,-0.004707480780780315,-0.01739531010389328,-0.026807911694049835
1772094096825865200,1.873865234375,0.0003346824087202549,-0.012421057559549809,-0.00872558169066906
1772094096835814100,1.883814208984375,0.00206149835139513,-0.010001227259635925,0.0037123416550457478
1772094096845763300,1.893763427734375,0.00021859118714928627,-0.0065186116844415665,0.0013160291127860546
1772094096855713300,1.90371337890625,-0.0008588004857301712,-0.0035919640213251114,-0.006549852434545755
1772094096865662500,1.913662353515625,-0.001137633342295885,-0.000035046134144067764,-0.013565683737397194
1772094096875611400,1.923611328125,-0.0027437249664217234,0.007666471414268017,-0.01714617758989334
1772094096885560300,1.933560302734375,-0.013422202318906784,0.013805324211716652,-0.011961536481976509
1772094096895510300,1.94351025390625,-0.014304650947451591,0.012124436907470226,-0.005192548036575317
1772094096905459200,1.953459228515625,-0.012630587443709373,0.0056806523352861404,0.007956276647746563
1772094096915408400,1.963408447265625,-0.00906506646424532,-0.004956048913300037,0.021663717925548553
1772094096925357300,1.973357421875,-0.0030947919003665447,-0.007584322243928909,0.021903403103351593
1772094096935307300,1.983307373046875,-0.004705061204731464,-0.0005454202182590961,0.00887439027428627
1772094096945256200,1.993256103515625,-0.0036693576257675886,0.010949315503239632,-0.01287857536226511
1772094096955205000,2.003205078125,-0.004256216809153557,0.015451712533831596,-0.021960750222206116
1772094096965154000,2.013154052734375,-0.0057169608771800995,0.015971560031175613,-0.018146038055419922
1772094096975104300,2.023104248046875,-0.0044972533360123634,0.005976371932774782,-0.003293749410659075
1772094096985053200,2.03305322265625,0.0006295978091657162,0.00047960737720131874,0.007486726623028517
1772094096995002400,2.04300244140625,-0.0009333535563200712,0.0020300084725022316,0.012081113643944263
1772094097004951300,2.052951416015625,-0.001105660106986761,0.004190897103399038,0.013574081473052502
1772094097014901200,2.0629013671875,-0.0012888445053249598,0.009041167795658112,0.007229820359498262
1772094097024850400,2.072850341796875,-0.003401796566322446,0.018810441717505455,0.003515243297442794
1772094097034799400,2.08279931640625,-0.006749160122126341,0.021715577691793442,0.012140460312366486
1772094097044749300,2.092749267578125,-0.008400586433708668,0.017262771725654602,0.016418563202023506
1772094097054698200,2.1026982421875,-0.012642202898859978,0.024310041218996048,0.022729143500328064
1772094097064647200,2.112647216796875,-0.008801393210887909,0.018400486558675766,0.027963854372501373
1772094097074596000,2.12259619140625,-0.007547580637037754,0.01752534508705139,0.026155386120080948
1772094097084546300,2.13254638671875,-0.003083589719608426,0.012132709845900536,0.020050089806318283
1772094097094495200,2.1424951171875,-0.003660527989268303,0.003138931468129158,0.01504188310354948
1772094097104444200,2.152444091796875,-0.0029662419110536575,-0.0015357150696218014,0.014512180350720882
1772094097114393300,2.162393310546875,-0.00678695784881711,-0.006914948578923941,0.010068236850202084
1772094097124343000,2.172343017578125,-0.014065643772482872,-0.011174939572811127,0.0014095013029873371
1772094097134292500,2.18229248046875,-0.013578181155025959,-0.013564283028244972,-0.010929674841463566
1772094097144241400,2.192241455078125,-0.012344338931143284,-0.011040939018130302,-0.01396328117698431
1772094097154190300,2.2021904296875,-0.009354163892567158,-0.02931053377687931,-0.015893567353487015
1772094097164140300,2.212140380859375,-0.004551419056952,-0.039514169096946716,-0.02573954313993454
1772094097174089200,2.222089111328125,-0.0018755560740828514,-0.04146520420908928,-0.03440628573298454
1772094097184038100,2.2320380859375,-0.0009921856690198183,-0.040412455797195435,-0.027316953986883163
1772094097193987300,2.2419873046875,-0.01125307660549879,-0.033883437514305115,-0.017422553151845932
1772094097203937300,2.251937255859375,-0.020450303331017494,-0.023389780893921852,-0.004940582439303398
1772094097213886200,2.26188623046875,-0.024391785264015198,-0.016889527440071106,0.006005229894071817
1772094097223835100,2.271835205078125,-0.015335173346102238,0.0007248860783874989,0.012519855052232742
1772094097233784300,2.281784423828125,-0.002466304926201701,0.0016924790106713772,0.021478116512298584
1772094097243734300,2.291734375,0.005478437524288893,0.002337496727705002,0.024912528693675995
1772094097253683500,2.301683349609375,0.006589567754417658,0.0048357173800468445,0.01977625861763954
1772094097263632400,2.31163232421875,-0.001627615885809064,0.012410545721650124,0.011074112728238106
1772094097273581300,2.321581298828125,-0.006494828499853611,0.01677248440682888,0.004208501894026995
1772094097283531300,2.33153125,-0.003649773309007287,0.02333957329392433,0.008868500590324402
1772094097293480200,2.341480224609375,-0.0013566280249506235,0.016702931374311447,0.015414503403007984
1772094097303429400,2.351429443359375,0.007001436781138182,0.00017615128308534622,0.01775462180376053
1772094097313379300,2.36137939453125,0.013589357025921345,-0.0043342700228095055,0.01457098126411438
1772094097323328300,2.371328369140625,0.01575610414147377,-0.004767299629747868,0.006654468830674887
1772094097333277200,2.381277099609375,0.006060429848730564,-0.007285289000719786,0.003667821642011404
1772094097343226000,2.39122607421875,-0.005198882892727852,-0.0011991672217845917,0.002499226713553071
1772094097353176300,2.40117626953125,-0.010671831667423248,0.0037599806673824787,-0.014203088358044624
1772094097363125200,2.411125244140625,-0.007382295560091734,0.013616605661809444,-0.017941633239388466
1772094097373074200,2.42107421875,-0.005576590076088905,0.009130489081144333,-0.007786091882735491
1772094097383023400,2.4310234375,-0.0021653473377227783,0.009367244318127632,0.012949014082551003
1772094097392973300,2.440973388671875,0.0012909644283354282,0.010081147775053978,0.029089804738759995
1772094097402922200,2.450922119140625,0.0006057331338524818,0.0031675812788307667,0.03454289212822914
1772094097412871400,2.460871337890625,-0.0010901326313614845,0.00024939607828855515,0.02354346588253975
1772094097422820400,2.4708203125,-0.0031873718835413456,-0.004589833784848452,0.002718079835176468
1772094097432770300,2.480770263671875,-0.004161899443715811,-0.011344360187649727,-0.020338697358965874
1772094097442719200,2.49071923828125,-0.006060733459889889,-0.015899164602160454,-0.02718888223171234
1772094097452668200,2.500668212890625,-0.011038823053240776,-0.015501627698540688,-0.025753669440746307
1772094097462617000,2.5106171875,-0.0063532572239637375,-0.020799187943339348,-0.01967500150203705
1772094097472567300,2.5205673828125,-0.0021656148601323366,-0.019548572599887848,-0.0011878013610839844
1772094097482516200,2.53051611328125,-0.0021056937985122204,-0.02155393362045288,0.0030844416469335556
1772094097492465200,2.540465087890625,0.007681321818381548,-0.02253001183271408,0.00020653940737247467
1772094097502415000,2.5504150390625,0.013967713341116905,-0.017639119178056717,0.00591209577396512
1772094097512364000,2.560364013671875,0.017094695940613747,-0.012946674600243568,0.0053541152738034725
1772094097522313500,2.5703134765625,0.01477108709514141,-0.003607767168432474,0.0005055642686784267
1772094097532262400,2.580262451171875,0.006948235910385847,0.011914489790797234,-0.00006312970072031021
1772094097542212400,2.59021240234375,0.00007701385766267776,0.016120953485369682,0.0002639065496623516
1772094097552161300,2.600161376953125,-0.0009626650717109442,0.007838043384253979,-0.0007467819377779961
1772094097562110200,2.610110107421875,0.0067365337163209915,0.0038691344670951366,0.003823468927294016
1772094097572059100,2.62005908203125,0.0037302938289940357,-0.007667869795113802,0.014750823378562927
1772094097582009300,2.63000927734375,0.00795832835137844,-0.02057408168911934,0.022909417748451233
1772094097591958300,2.639958251953125,0.010168222710490227,-0.02115117385983467,0.014093780890107155
1772094097601907200,2.6499072265625,0.003213910385966301,-0.0059948572888970375,0.00598552031442523
1772094097611856100,2.659856201171875,-0.002995237475261092,0.0003706682473421097,-0.009849347174167633
1772094097621806000,2.66980615234375,-0.01180444099009037,0.00897347740828991,-0.01849423535168171
1772094097631755300,2.67975537109375,-0.014168132096529007,0.022274233400821686,-0.012926949188113213
1772094097641704400,2.689704345703125,-0.009417053312063217,0.02011893503367901,-0.0010367333889007568
1772094097651654100,2.699654052734375,-0.00568248238414526,0.015617182478308678,0.01508336327970028
1772094097661603300,2.709603271484375,0.0003999113105237484,0.0096152164041996,0.02748037874698639
1772094097671552300,2.71955224609375,0.00635405583307147,-0.0011867485009133816,0.0263238362967968
1772094097681501200,2.729501220703125,0.00877460278570652,-0.0009049861691892147,0.010858327150344849
1772094097691451400,2.739451416015625,0.001551697961986065,0.005335164722055197,-0.0006923056207597256
1772094097701400300,2.749400390625,-0.001669395249336958,0.004656591452658176,-0.009011754766106606
1772094097711349200,2.759349365234375,-0.006053425371646881,0.01330806128680706,-0.01190967857837677
1772094097721298200,2.769298095703125,-0.012747546657919884,0.01909298077225685,-0.010289676487445831
1772094097731248000,2.779248046875,-0.013521326705813408,0.016906408593058586,-0.00671171210706234
1772094097741197300,2.789197265625,-0.009446957148611546,0.017423328012228012,-0.00025993771851062775
1772094097751146200,2.799146240234375,-0.0050797187723219395,0.016113340854644775,0.006941141560673714
1772094097761095200,2.80909521484375,0.004669314716011286,0.0032108589075505733,0.010923366993665695
1772094097771046000,2.8190458984375,0.0065103089436888695,0.011859583668410778,0.009730862453579903
1772094097780994800,2.828994873046875,0.0018084985204041004,0.017116131260991096,0.012086961418390274
1772094097790944000,2.838944091796875,-0.0034179212525486946,0.011059675365686417,0.020536866039037704
1772094097800893200,2.84889306640625,-0.009775685146450996,0.010005330666899681,0.0330292209982872
1772094097810843000,2.8588427734375,-0.0030135484412312508,-0.0027351859025657177,0.028970349580049515
1772094097820792000,2.8687919921875,0.0038211876526474953,0.00950763188302517,0.015222578309476376
1772094097830741000,2.878740966796875,0.014765474945306778,0.014493684284389019,-0.0005482309497892857
1772094097840691200,2.888691162109375,0.03483079373836517,0.049585625529289246,-0.029190793633461
1772094097850640100,2.89864013671875,0.0444602333009243,0.04022747650742531,-0.05271710082888603
1772094097860589000,2.908589111328125,0.029662910848855972,0.0481083020567894,-0.044478610157966614
1772094097870538000,2.9185380859375,0.02662551961839199,0.0270910132676363,-0.030363699421286583
1772094097880488000,2.928488037109375,0.028391193598508835,0.008269655518233776,0.0023194130044430494
1772094097890436900,2.938436767578125,0.02944883331656456,0.04296213015913963,-0.016388198360800743
1772094097900386000,2.948385986328125,0.014651244506239891,0.03874794393777847,-0.016812440007925034
1772094097910335000,2.9583349609375,0.023269766941666603,0.027877986431121826,0.007056940346956253
1772094097920285000,2.968284912109375,0.028765466064214706,0.03066178970038891,0.0019045225344598293
1772094097930233900,2.97823388671875,0.024264968931674957,0.03761709854006767,-0.003570609726011753
1772094097940183000,2.98818310546875,0.020650792866945267,0.014529889449477196,0.00836381409317255
1772094097950132000,2.998132080078125,0.023908821865916252,0.012780481949448586,0.014835985377430916
1772094097960082200,3.008082275390625,0.029870839789509773,0.0185166634619236,0.010396230034530163
1772094097970031000,3.018031005859375,0.023940399289131165,0.01926867850124836,0.006414527073502541
1772094097979980000,3.02797998046875,0.03555524721741676,0.01421852596104145,0.011776268482208252
1772094097989930000,3.037929931640625,0.046605151146650314,-0.003600128460675478,0.017312074080109596
1772094097999879200,3.047879150390625,0.06753093749284744,0.01655494049191475,0.015455052256584167
1772094098009828000,3.057828125,0.07972325384616852,0.004550735931843519,0.03411668911576271
1772094098019777000,3.067777099609375,0.07702067494392395,0.0185919851064682,0.03766375407576561
1772094098029727000,3.07772705078125,0.06763724982738495,0.030597127974033356,0.027480969205498695
1772094098039676000,3.087676025390625,0.04230685904622078,-0.015253184363245964,0.013005891814827919
1772094098049624800,3.097624755859375,0.00672057643532753,0.04843320697546005,-0.031065598130226135
1772094098059574000,3.107573974609375,0.012145434506237507,0.10018081963062286,-0.08450990915298462
1772094098069524000,3.11752392578125,0.025712866336107254,0.06177550554275513,-0.06029606983065605
1772094098079473000,3.127472900390625,0.04041910544037819,0.012954172678291798,-0.007440843153744936
1772094098089422000,3.137422119140625,0.03242019936442375,0.0035603900905698538,0.0165984109044075
1772094098099371000,3.14737109375,0.02175849862396717,-0.0031771413050591946,0.008892286568880081
1772094098109321200,3.1573212890625,-0.001932249404489994,0.051736220717430115,-0.020159214735031128
1772094098119270100,3.167270263671875,0.009126527234911919,0.03683716431260109,-0.012850968167185783
1772094098129219000,3.177218994140625,0.01224372535943985,-0.003380135167390108,0.017320558428764343
1772094098139169000,3.1871689453125,0.034721069037914276,0.012952499091625214,0.03102438524365425
1772094098149118000,3.197117919921875,0.027783166617155075,0.009842414408922195,0.020268095657229424
1772094098159067000,3.20706689453125,0.028255611658096313,0.02376408874988556,0.01470501720905304
1772094098169016000,3.21701611328125,0.02545478567481041,0.008468291722238064,0.01878492161631584
1772094098178966000,3.226966064453125,0.010636159218847752,-0.010677705518901348,0.011228468269109726
1772094098188915000,3.2369150390625,0.002701699733734131,-0.012193090282380581,-0.004016580525785685
1772094098198864000,3.24686376953125,0.0017621363513171673,-0.0240020789206028,-0.014771223068237305
1772094098208813000,3.25681298828125,0.005814181175082922,-0.03176504001021385,-0.013406682759523392
1772094098218763000,3.266762939453125,0.008314622566103935,-0.03464977815747261,-0.006489655002951622
1772094098228712200,3.276712158203125,0.0034818113781511784,-0.030694376677274704,0.0019996464252471924
1772094098238661000,3.2866611328125,-0.0006548766978085041,-0.038334451615810394,0.006906786933541298
1772094098248610000,3.296610107421875,0.005743417888879776,-0.04868016391992569,0.0032520145177841187
1772094098258560000,3.30656005859375,0.008136267773807049,-0.046661220490932465,-0.0051696994341909885
1772094098268509000,3.316509033203125,0.010348519310355186,-0.04010913521051407,-0.020162668079137802
1772094098278458000,3.3264580078125,0.007511985953897238,-0.03061123751103878,-0.021248172968626022
1772094098288408000,3.336407958984375,0.0006536799483001232,-0.039367858320474625,-0.015128768980503082
1772094098298357000,3.34635693359375,-0.0018752575851976871,-0.03254297375679016,0.015251507051289082
1772094098308306000,3.356305908203125,0.005267349071800709,-0.034151241183280945,0.027365921065211296
1772094098318254800,3.3662548828125,0.01453488226979971,-0.012363387271761894,0.03697274252772331
1772094098328205000,3.376205078125,0.020996324717998505,-0.01871851272881031,0.04901779815554619
1772094098338154000,3.386154052734375,0.02204427868127823,-0.009473880752921104,0.04823962226510048
1772094098348103200,3.396103271484375,0.015781167894601822,-0.00598133122548461,0.036277033388614655
1772094098358052000,3.406052001953125,0.015531630255281925,-0.010780347511172295,0.022787589579820633
1772094098368002000,3.416001953125,0.01537824235856533,-0.011583272367715836,0.0023989251349121332
1772094098377951000,3.425950927734375,0.011985907331109047,-0.006784255616366863,-0.009504339657723904
1772094098387900200,3.435900146484375,0.01238518487662077,-0.0066399541683495045,-0.0033975662663578987
1772094098397850000,3.44585009765625,0.009218952618539333,-0.008079925552010536,0.002930370857939124
1772094098407799000,3.455799072265625,0.01222456805408001,-0.003359575290232897,0.013895712792873383
1772094098417748000,3.465748046875,0.01044850517064333,-0.0035073808394372463,0.02049848809838295
1772094098427697000,3.47569677734375,0.012971172109246254,-0.006117180921137333,0.018788501620292664
1772094098437647000,3.485647216796875,0.010815342888236046,-0.001459311693906784,0.015733322128653526
1772094098447596000,3.495595947265625,0.001159972045570612,0.0000768234021961689,0.008677169680595398
1772094098457545000,3.505544921875,-0.00702259037643671,0.01433512195944786,0.0037053138948976994
1772094098467494000,3.515493896484375,-0.012944065034389496,0.010029247030615807,0.004651929717510939
1772094098477443800,3.52544384765625,-0.014847958460450172,0.006804957985877991,0.009951354004442692
1772094098487393000,3.53539306640625,-0.015238297171890736,-0.0008678990416228771,0.008567151613533497
1772094098497342200,3.54534228515625,-0.008416343480348587,-0.008580946363508701,0.006092541851103306
1772094098507291100,3.555291015625,-0.01064271666109562,-0.010851187631487846,0.008058445528149605
1772094098517241000,3.565240966796875,-0.01248216163367033,-0.0138190146535635,0.008827300742268562
1772094098527190000,3.57518994140625,-0.018226146697998047,-0.014676528051495552,0.004517398774623871
1772094098537139000,3.585138916015625,-0.017687655985355377,-0.006822067778557539,-0.008913987316191196
1772094098547089200,3.595089111328125,-0.020186733454465866,-0.00014863209798932076,-0.018512915819883347
1772094098557038000,3.6050380859375,-0.010864605195820332,-0.005552984774112701,-0.01245289295911789
1772094098566987000,3.614987060546875,-0.007048327475786209,-0.015278136357665062,0.000264597125351429
1772094098576936000,3.62493603515625,-0.003980099689215422,-0.017383364960551262,0.007670315448194742
1772094098586886000,3.634885986328125,0.00035796361044049263,-0.01834304817020893,0.002118610544130206
1772094098596834800,3.644834716796875,0.005035273265093565,-0.016686560586094856,-0.01018838956952095
1772094098606784000,3.654783935546875,0.005225860979408026,-0.006771373562514782,-0.021159103140234947
1772094098616733200,3.664733154296875,0.003979500848799944,-0.0029465416446328163,-0.021873895078897476
1772094098626683000,3.674682861328125,-0.0011864115949720144,0.0009552482515573502,-0.012924805283546448
1772094098636632000,3.684632080078125,0.0018447982147336006,0.0036873850040137768,0.005160188768059015
1772094098646581000,3.6945810546875,0.0014592204242944717,0.0006523365154862404,0.0122095150873065
1772094098656530000,3.704530029296875,0.002131402026861906,0.008357660844922066,0.005775051657110453
1772094098666480000,3.714480224609375,0.004065375775098801,0.007940824143588543,-0.0010924208909273148
1772094098676429000,3.724428955078125,0.006631331518292427,0.01090598851442337,0.0004221186973154545
1772094098686378000,3.7343779296875,0.009091228246688843,-0.0003138347528874874,0.007420244626700878
1772094098696328000,3.744327880859375,0.00840999186038971,-0.0075485785491764545,0.014873100444674492
1772094098706276900,3.75427685546875,-0.0010796377900987864,-0.00885693822056055,0.00731529388576746
1772094098716226000,3.76422607421875,-0.006553765386343002,0.0008838395588099957,-0.006289730314165354
1772094098726175000,3.774175048828125,-0.011689484119415283,0.012044372037053108,-0.019363828003406525
1772094098736125000,3.784125,-0.015514583326876163,0.02065996453166008,-0.01914944313466549
1772094098746073900,3.794073974609375,-0.009100081399083138,0.0210280641913414,-0.011634026654064655
1772094098756023000,3.80402294921875,-0.0035396674647927284,0.01837129332125187,0.009598024189472198
1772094098765971700,3.8139716796875,-0.001149546355009079,0.018329260870814323,0.023611968383193016
1772094098775921700,3.823921630859375,-0.004588219802826643,0.01336885616183281,0.03452879935503006
1772094098785870600,3.83387060546875,-0.0074209305457770824,0.007721117697656155,0.023529496043920517
1772094098795819500,3.843819580078125,-0.009030811488628387,0.01031104102730751,0.0007538762874901295
1772094098805768400,3.8537685546875,-0.007185221649706364,0.007229547016322613,-0.014643307775259018
1772094098815718700,3.86371875,-0.005768153816461563,-0.000576444435864687,-0.021202940493822098
1772094098825667600,3.87366748046875,-0.008654706180095673,-0.011196188628673553,-0.018593592569231987
1772094098835616500,3.883616455078125,-0.014214321970939636,-0.012299003079533577,-0.02125169336795807
1772094098845566500,3.89356640625,-0.01574983447790146,-0.0035479306243360043,-0.01894233748316765
1772094098855515400,3.903515380859375,-0.015495236031711102,0.0003980747424066067,-0.014292191714048386
1772094098865464600,3.913464599609375,-0.011482013389468193,0.012110704556107521,-0.005439261440187693
1772094098875413800,3.923413818359375,-0.004099464043974876,0.0066003575921058655,0.017743555828928947
1772094098885363500,3.933363525390625,0.005484703462570906,0.0010476140305399895,0.031803201884031296
1772094098895312600,3.943312744140625,0.0060242596082389355,0.004443410784006119,0.03379897400736809
1772094098905261600,3.953261474609375,0.005566051229834557,0.014541151002049446,0.02119186706840992
1772094098915210500,3.96321044921875,0.0006653019227087498,0.027470000088214874,0.0031151280272752047
1772094098925160700,3.97316064453125,-0.006119683384895325,0.03499248996376991,-0.004859857261180878
1772094098935109600,3.983109619140625,-0.004341490566730499,0.043566007167100906,-0.0005673742853105068
1772094098945058600,3.99305859375,-0.0005373912863433361,0.04647456482052803,0.010469218716025352
1772094098955008500,4.003008544921875,0.011956028640270233,0.037006229162216187,0.02580583095550537
1772094098964957400,4.01295751953125,0.026172902435064316,0.023874279111623764,0.045463185757398605
1772094098974906600,4.02290673828125,0.031341563910245895,0.01464189775288105,0.050262201577425
1772094098984855600,4.03285546875,0.02386922761797905,0.014792777597904205,0.03624046966433525
1772094098994805500,4.042805419921875,0.020877165719866753,0.02300410158932209,0.017976511269807816
1772094099004754400,4.05275439453125,0.01322859339416027,0.03654235228896141,-0.003493684343993664
1772094099014703600,4.06270361328125,0.0051839835941791534,0.0399906150996685,-0.016574332490563393
1772094099024652500,4.072652587890625,0.004986788611859083,0.0409279465675354,-0.020340071991086006
1772094099034602800,4.082602783203125,0.010740282014012337,0.03094189241528511,-0.014510413631796837
1772094099044551700,4.0925517578125,0.020660651847720146,0.018645839765667915,-0.0021833516657352448
1772094099054500600,4.10250048828125,0.021799152716994286,0.009685900062322617,0.011204092763364315
1772094099064449500,4.112449462890625,0.02453172765672207,-0.004258705303072929,0.01627892628312111
1772094099074399500,4.1223994140625,0.02219453826546669,0.0031424860935658216,0.008709423243999481
1772094099084348700,4.1323486328125,0.010072682052850723,-0.0004321024753153324,0.0008591227233409882
1772094099094297600,4.142297607421875,0.005443575792014599,0.008128362707793713,-0.004143625497817993
1772094099104247600,4.15224755859375,-0.006445176433771849,0.01400075014680624,-0.01292780414223671
1772094099114196500,4.162196533203125,-0.010780270211398602,0.012631086632609367,-0.007804947439581156
1772094099124145400,4.1721455078125,-0.019854072481393814,0.0062547773122787476,-0.0011179870925843716
1772094099134094600,4.182094482421875,-0.02282882295548916,0.002592930570244789,-0.00009080581367015839
1772094099144044500,4.19204443359375,-0.026392679661512375,-0.004592330195009708,-0.006204870995134115
1772094099153993700,4.20199365234375,-0.022857867181301117,-0.013484624214470387,-0.014814604073762894
1772094099163942700,4.211942626953125,-0.01797585003077984,-0.005565444007515907,-0.021806804463267326
1772094099173891600,4.2218916015625,-0.016276486217975616,-0.0019786981865763664,-0.029695086181163788
1772094099183841800,4.231841796875,-0.014481889083981514,-0.008952232077717781,-0.01978950947523117
1772094099193790700,4.241790771484375,-0.015860075131058693,-0.0123823843896389,-0.013462372124195099
1772094099203739600,4.25173974609375,-0.014136211015284061,-0.004507682751864195,-0.020252633839845657
1772094099213689600,4.261689697265625,-0.008915349841117859,-0.004688512068241835,-0.010303862392902374
1772094099223638500,4.271638427734375,-0.007387619465589523,-0.016791051253676414,0.0013807383365929127
1772094099233587500,4.28158740234375,-0.00038430443964898586,-0.016073329374194145,-0.0014592567458748817
1772094099243536400,4.291536376953125,0.00024592410773038864,-0.006663778331130743,-0.015850162133574486
1772094099253486600,4.301486572265625,-0.006594138685613871,-0.0017920578829944134,-0.017001179978251457
1772094099263435500,4.311435546875,-0.01271327305585146,0.010198843665421009,-0.019479287788271904
1772094099273384400,4.321384521484375,-0.01799139194190502,0.009141569025814533,-0.01391754299402237
1772094099283334400,4.33133447265625,-0.013178032822906971,0.0056114597246050835,0.0031824419274926186
1772094099293283600,4.34128369140625,-0.010156942531466484,0.004346990492194891,0.012052632868289948
1772094099303232800,4.351232666015625,-0.013901960104703903,0.0078088571317493916,0.012378761544823647
1772094099313181700,4.361181640625,-0.015284938737750053,0.015597271732985973,0.0032185532618314028
1772094099323131600,4.371131591796875,-0.02124037966132164,0.021844273433089256,0.0001470218412578106
1772094099333080600,4.38108056640625,-0.02485828287899494,0.022305797785520554,-0.004699931014329195
1772094099343029500,4.391029541015625,-0.025178328156471252,0.014686420559883118,-0.005613531917333603
1772094099352978700,4.400978759765625,-0.0221556406468153,0.009111092425882816,0.0008313176222145557
1772094099362928600,4.4109287109375,-0.022206749767065048,-0.000008033588528633118,0.006485683377832174
1772094099372877600,4.420877685546875,-0.02625342272222042,-0.007943187840282917,0.009973891079425812
1772094099382826500,4.430826416015625,-0.02043180540204048,-0.013523982837796211,0.006303637754172087
1772094099392776400,4.4407763671875,-0.02227817475795746,-0.02049267664551735,-0.003488006070256233
1772094099402725600,4.4507255859375,-0.0223604254424572,-0.024992233142256737,-0.014413436874747276
1772094099412674600,4.460674560546875,-0.01797020435333252,-0.020365523174405098,-0.02802431955933571
1772094099422623700,4.470623779296875,-0.021661285310983658,-0.013535892590880394,-0.038724761456251144
1772094099432573400,4.480573486328125,-0.015982892364263535,-0.01351805031299591,-0.04025394842028618
1772094099442522600,4.490522705078125,-0.011042393743991852,-0.023286597803235054,-0.031480032950639725
1772094099452471600,4.500471435546875,-0.0038705007173120975,-0.031889673322439194,-0.022452715784311295
1772094099462420700,4.510420654296875,-0.00255404319614172,-0.03516548126935959,-0.016796806827187538
1772094099472370700,4.52037060546875,-0.001237376593053341,-0.035440586507320404,-0.01625645160675049
1772094099482319600,4.530319580078125,-0.0026294970884919167,-0.03352738544344902,-0.012601123191416264
1772094099492268500,4.5402685546875,-0.003434038022533059,-0.02593258023262024,-0.011326001025736332
1772094099502218500,4.550218505859375,-0.007443878799676895,-0.028772864490747452,-0.01746048405766487
1772094099512167700,4.560167724609375,-0.011488687247037888,-0.025672946125268936,-0.016635170206427574
1772094099522116600,4.57011669921875,-0.01017684955149889,-0.02404850535094738,-0.020378146320581436
1772094099532065500,4.5800654296875,-0.009423174895346165,-0.01400093175470829,-0.024886079132556915
1772094099542015500,4.590015380859375,-0.014923259615898132,-0.00930265337228775,-0.021340366452932358
1772094099551964400,4.59996435546875,-0.014403942972421646,-0.010162588208913803,-0.00847649946808815
1772094099561913600,4.60991357421875,-0.013620284385979176,-0.01171153038740158,0.0047638858668506145
1772094099571862800,4.61986279296875,-0.013155031017959118,-0.009232394397258759,0.010926973074674606
1772094099581812700,4.629812744140625,-0.012380721047520638,-0.016236437484622,0.009897947311401367
1772094099591761700,4.63976171875,-0.006776099093258381,-0.019787762314081192,0.0011100489646196365
1772094099601710600,4.649710693359375,-0.00031313998624682426,-0.03445245698094368,-0.007356938906013966
1772094099611660500,4.65966064453125,-0.0006745308637619019,-0.03786822780966759,-0.018091341480612755
1772094099621609700,4.669609619140625,0.00041958829388022423,-0.030579691752791405,-0.02870876155793667
1772094099631558700,4.67955859375,-0.008294008672237396,-0.01779838465154171,-0.028983065858483315
1772094099641507600,4.689507568359375,-0.01770198345184326,-0.01790464110672474,-0.0268534068018198
1772094099651457500,4.69945751953125,-0.013034528121352196,-0.014285137876868248,-0.020937995985150337
1772094099661406500,4.709406494140625,-0.007379719987511635,-0.012456811964511871,-0.006498321890830994
1772094099671355400,4.71935546875,-0.0016760281287133694,-0.03211253881454468,0.017634712159633636
1772094099681304600,4.7293046875,0.0020820489153265953,-0.04223116487264633,0.034288886934518814
1772094099691254500,4.739254638671875,-0.0009520903695374727,-0.03596847504377365,0.024119606241583824
1772094099701203700,4.74920361328125,-0.009539531543850899,-0.01880277879536152,-0.0012324629351496696
1772094099711152600,4.759152587890625,-0.01785977929830551,-0.007327750325202942,-0.02804064378142357
1772094099721102600,4.7691025390625,-0.020354866981506348,0.000976325012743473,-0.03845978155732155
1772094099731051800,4.7790517578125,-0.02307342179119587,-0.008809726685285568,-0.03720783069729805
1772094099741000700,4.789000732421875,-0.026781005784869194,-0.006938396953046322,-0.02611829712986946
1772094099750949600,4.79894970703125,-0.03915698453783989,-0.01904512755572796,-0.013374270871281624
1772094099760899600,4.808899658203125,-0.04772317409515381,-0.012345531955361366,-0.008629046380519867
1772094099770848800,4.818848876953125,-0.05202764272689819,-0.005895623005926609,-0.007871110923588276
1772094099780797700,4.828797607421875,-0.04777257516980171,-0.004490419290959835,0.0001636412926018238
1772094099790747000,4.838746826171875,-0.040691230446100235,-0.012512926012277603,0.016867520287632942
1772094099800696800,4.84869677734375,-0.03172970935702324,-0.01767309010028839,0.02518433704972267
1772094099810645800,4.858645751953125,-0.03203464299440384,-0.014351861551404,0.019536307081580162
1772094099820594700,4.8685947265625,-0.031220417469739914,0.0031706723384559155,0.0026902896352112293
1772094099830545000,4.878544921875,-0.04243684932589531,0.012908787466585636,-0.00983961671590805
1772094099840493800,4.888493896484375,-0.04091792181134224,0.010823944583535194,-0.012314220890402794
1772094099850443000,4.898443115234375,-0.030249563977122307,0.0028586958069354296,-0.003947901073843241
1772094099860392000,4.908391845703125,-0.020762501284480095,-0.010867554694414139,0.006570616737008095
1772094099870342000,4.918341796875,-0.012342119589447975,-0.02308826707303524,0.013827997259795666
1772094099880290800,4.928290771484375,-0.013314129784703255,-0.022738663479685783,0.011284316889941692
1772094099890240000,4.938239990234375,-0.01804150827229023,-0.010529136285185814,-0.0004735393449664116
1772094099900190000,4.94818994140625,-0.019731637090444565,0.008893007412552834,-0.012237869203090668
1772094099910139000,4.958138916015625,-0.02500949054956436,0.013304533436894417,-0.014066394418478012
1772094099920087800,4.968087890625,-0.020465407520532608,0.01760081760585308,-0.004001110326498747
1772094099930036700,4.97803662109375,-0.013335326686501503,0.01868072897195816,0.0064003984443843365
1772094099939987000,4.987987060546875,-0.001086975447833538,0.01897905021905899,0.014266705140471458
1772094099949935900,4.997935791015625,0.008041808381676674,0.015450895763933659,0.021229008212685585
1772094099959884800,5.007884765625,0.01267847791314125,0.018889082595705986,0.026092521846294403
1772094099969834800,5.017834716796875,0.006848552729934454,0.012342501431703568,0.02837218903005123
1772094099979783700,5.02778369140625,0.005246564745903015,0.013163289055228233,0.026988334953784943
1772094099989732900,5.03773291015625,0.0038417475298047066,0.018001720309257507,0.022681470960378647
1772094099999682000,5.04768212890625,0.001951475627720356,0.01879572868347168,0.012570701539516449
1772094100009632000,5.057632080078125,-0.0025940078776329756,0.014549053274095058,-0.006662914529442787
1772094100019581000,5.067580810546875,-0.003188436385244131,0.018829237669706345,-0.020742757245898247
1772094100029529900,5.07752978515625,0.0013123061507940292,0.010382222011685371,-0.02117631956934929
1772094100039478800,5.087478759765625,0.0010268427431583405,-0.008275473490357399,-0.0056357840076088905
1772094100049429000,5.097428955078125,0.010801441967487335,-0.013267568312585354,0.004432030022144318
1772094100059378000,5.1073779296875,0.011427167803049088,-0.006101631093770266,0.00814072135835886
1772094100069326800,5.117326904296875,0.010162167251110077,-0.009405815973877907,0.011276859790086746
1772094100079276800,5.12727685546875,0.00975594762712717,0.0007455991581082344,0.008346769027411938
1772094100089225700,5.137225830078125,-0.0014303941279649734,0.007419214583933353,0.0062394095584750175
1772094100099174700,5.147174560546875,-0.005102024879306555,0.005582891870290041,0.005428341683000326
1772094100109123800,5.157123779296875,-0.01243290863931179,-0.009927624836564064,0.008201224729418755
1772094100119073800,5.16707373046875,-0.015846559777855873,-0.016267063096165657,-0.0028551314026117325
1772094100129022700,5.177022705078125,-0.016822874546051025,-0.011457661166787148,-0.014377297833561897
1772094100138972000,5.186971923828125,-0.013193152844905853,-0.013846175745129585,-0.018444683402776718
1772094100148921900,5.196921875,-0.014727133326232433,-0.011975571513175964,-0.010146807879209518
1772094100158871000,5.20687109375,-0.01337389461696148,-0.012839550152420998,-0.005839844234287739
1772094100168820000,5.216820068359375,-0.015444768592715263,-0.02109215408563614,-0.0016831820830702782
1772094100178769000,5.226768798828125,-0.014987027272582054,-0.027242600917816162,-0.003992030397057533
1772094100188718800,5.23671875,-0.01852397248148918,-0.030888203531503677,-0.014822573401033878
1772094100198667800,5.246667724609375,-0.01673024520277977,-0.022501353174448013,-0.024599488824605942
1772094100208616700,5.25661669921875,-0.016361132264137268,-0.01236935704946518,-0.036283306777477264
1772094100218567000,5.26656689453125,-0.017230011522769928,0.0007731262594461441,-0.027194952592253685
1772094100228515800,5.276515869140625,-0.014137815684080124,0.006480546668171883,-0.009221544489264488
1772094100238464800,5.28646484375,-0.020679909735918045,0.007150743156671524,0.00992080383002758
1772094100248413700,5.29641357421875,-0.015210043638944626,-0.001671510748565197,0.024387095123529434
1772094100258363600,5.30636376953125,-0.01021479070186615,-0.001043391413986683,0.025731272995471954
1772094100268312800,5.316312744140625,-0.0036365166306495667,0.002109524793922901,0.013571011833846569
1772094100278262000,5.326261962890625,-0.006282574497163296,0.013605587184429169,0.0021810459438711405
1772094100288211700,5.336211669921875,-0.006808016449213028,0.022011322900652885,-0.007669986691325903
1772094100298161000,5.346160888671875,-0.009556598961353302,0.026408351957798004,-0.009995564818382263
1772094100308109800,5.35610986328125,-0.007273204158991575,0.02585015259683132,-0.0201462022960186
1772094100318058800,5.366058837890625,-0.0009482139721512794,0.02836674265563488,-0.018702983856201172
1772094100328009000,5.376009033203125,0.00026139384135603905,0.0266154482960701,-0.013295703567564487
1772094100337958000,5.3859580078125,0.0004961132071912289,0.024559561163187027,0.0005048532038927078
1772094100347906800,5.39590673828125,-0.0006221479270607233,0.019908882677555084,0.01790142059326172
1772094100357856800,5.405856689453125,-0.00362217565998435,0.010630720295011997,0.02969440072774887
1772094100367806000,5.415805908203125,0.0026295948773622513,0.002365067368373275,0.021411703899502754
1772094100377755000,5.4257548828125,0.005549355875700712,0.004884271416813135,0.012479458004236221
1772094100387703800,5.435703857421875,0.0022433074191212654,0.00890404637902975,-0.0008344836533069611
1772094100397653800,5.44565380859375,-0.00157527020201087,0.014157544821500778,-0.013629904016852379
1772094100407602700,5.455602783203125,-0.005130057688802481,0.023475944995880127,-0.023460162803530693
1772094100417552000,5.4655517578125,-0.004780297167599201,0.030206043273210526,-0.024397781118750572
1772094100427501800,5.475501708984375,-0.0030929185450077057,0.02542646788060665,-0.012389853596687317
1772094100437451000,5.485450927734375,0.0041630202904343605,0.018779434263706207,0.006309213116765022
1772094100447400000,5.49539990234375,0.013978100381791592,0.018954403698444366,0.022102557122707367
1772094100457348900,5.505348876953125,0.01967114582657814,0.015889951959252357,0.03294665738940239
1772094100467298800,5.515298828125,0.01996675692498684,0.012642227113246918,0.031245160847902298
1772094100477248000,5.525248046875,0.020495809614658356,0.016483208164572716,0.016201205551624298
1772094100487197000,5.535197021484375,0.017898695543408394,0.021547207608819008,-0.00006325263530015945
1772094100497147000,5.54514697265625,0.014046693220734596,0.027271093800663948,-0.01206635870039463
1772094100507095800,5.555095703125,0.0006898744031786919,0.030091382563114166,-0.0190489012748003
1772094100517044700,5.565044677734375,-0.008389374241232872,0.03144746273756027,-0.011839725077152252
1772094100526993700,5.57499365234375,-0.010183013044297695,0.02530434913933277,0.0031996790785342455
1772094100536943900,5.58494384765625,-0.00361070828512311,0.013760028406977654,0.01873064786195755
1772094100546892800,5.594892822265625,0.004112991504371166,0.008035032078623772,0.0232380498200655
1772094100556841700,5.604841796875,0.008013872429728508,0.004649259615689516,0.020216666162014008
1772094100566791700,5.614791748046875,0.011596357449889183,0.0019860982429236174,0.010144857689738274
1772094100576740900,5.624740966796875,0.004997263662517071,0.0073290299624204636,-0.007901949808001518
1772094100586690000,5.63468994140625,0.0015498013235628605,0.010449988767504692,-0.02788444422185421
1772094100596639000,5.644638916015625,0.0027111745439469814,0.017450565472245216,-0.029479090124368668
1772094100606589000,5.6545888671875,-0.00026570679619908333,0.011588149704039097,-0.02011461928486824
1772094100616537900,5.664537841796875,0.003137209452688694,0.0037880889140069485,-0.0006845938041806221
1772094100626486800,5.67448681640625,0.013269205577671528,-0.006264811847358942,0.014550285413861275
1772094100636437000,5.68443701171875,0.017335735261440277,-0.015571588650345802,0.02606337144970894
1772094100646386000,5.694385986328125,0.02673216722905636,-0.019856614992022514,0.024782922118902206
1772094100656334800,5.7043349609375,0.023824214935302734,-0.01699814759194851,0.014582321047782898
1772094100666283800,5.71428369140625,0.02704530581831932,-0.010618545114994049,-0.0003931662067770958
1772094100676233700,5.724233642578125,0.022344648838043213,-0.010049670934677124,-0.010880346409976482
1772094100686182700,5.7341826171875,0.020917993038892746,-0.008271479047834873,-0.011868112720549107
1772094100696131800,5.7441318359375,0.017291055992245674,-0.007877837866544724,-0.008850781247019768
1772094100706081800,5.754081787109375,0.01408248022198677,-0.009016872383654118,0.0013701650314033031
1772094100716030700,5.76403076171875,0.016017166897654533,-0.018684146925807,0.015818800777196884
1772094100725980000,5.77397998046875,0.016552727669477463,-0.02189032733440399,0.011919667944312096
1772094100735928800,5.7839287109375,0.02068522572517395,-0.019569188356399536,0.0005182744935154915
1772094100745879000,5.793879150390625,0.02321283146739006,-0.024932527914643288,-0.011356228962540627
1772094100755828000,5.803827880859375,0.01919466257095337,-0.017684686928987503,-0.016994699835777283
1772094100765777000,5.81377685546875,0.013220125809311867,-0.005803793668746948,-0.01696566864848137
1772094100775727000,5.82372705078125,0.003528303001075983,-0.0027828714810311794,-0.004683332517743111
1772094100785676000,5.833676025390625,-0.0008014643099159002,0.00017616664990782738,0.006928582675755024
1772094100795625000,5.843625,-0.003112071892246604,0.003330511273816228,0.010517297312617302
1772094100805574100,5.85357421875,0.0014344765804708004,0.0021211698185652494,0.015540018677711487
1772094100815524000,5.863524169921875,0.008542172610759735,-0.004623529966920614,0.014460909180343151
1772094100825473000,5.87347314453125,0.011912401765584946,-0.009993793442845345,0.009561758488416672
1772094100835422000,5.883421875,0.01123111229389906,-0.011034240946173668,0.00015347404405474663
1772094100845372200,5.8933720703125,0.0026232432574033737,-0.00785122998058796,-0.01409896556288004
1772094100855321000,5.903321044921875,-0.00800635851919651,-0.0027781599201261997,-0.026442531496286392
1772094100865270000,5.91327001953125,-0.014802745543420315,-0.004150752909481525,-0.024578584358096123
1772094100875219200,5.92321923828125,-0.016969162970781326,-0.007803972810506821,-0.010084407404065132
1772094100885169200,5.933169189453125,-0.015075122937560081,-0.01002664677798748,0.0010673128999769688
1772094100895118000,5.9431181640625,-0.005605448968708515,-0.005471795331686735,0.005824224092066288
1772094100905067300,5.9530673828125,-0.0009023065213114023,-0.005496829282492399,0.004226860124617815
1772094100915017200,5.963017333984375,0.008452744223177433,-0.0051201106980443,0.003803388448432088
1772094100924966100,5.972966064453125,0.017415080219507217,-0.0030231373384594917,0.006168541964143515
1772094100934915000,5.9829150390625,0.01623753271996975,-0.004597479943186045,0.011813673190772533
1772094100944864000,5.992864013671875,0.01594165526330471,0.0001432131975889206,0.009851455688476562
1772094100954814200,6.002814208984375,0.01988731138408184,0.005801875609904528,0.003351133316755295
1772094100964763100,6.01276318359375,0.020985065028071404,0.012527422979474068,0.004226247780025005
1772094100974712000,6.022712158203125,0.028634464368224144,0.0014398840721696615,0.009180792607367039
1772094100984662000,6.032662109375,0.035129643976688385,-0.014348132535815239,0.008993838913738728
1772094100994611000,6.04261083984375,0.034248169511556625,-0.021589728072285652,0.0001142728142440319
1772094101004560000,6.052559814453125,0.032813526690006256,-0.02272796258330345,-0.0107176024466753
1772094101014509300,6.06250927734375,0.026121417060494423,-0.02156878635287285,-0.018208568915724754
1772094101024459000,6.072458984375,0.021756229922175407,-0.028896741569042206,-0.019842950627207756
1772094101034408200,6.082408203125,0.02043985389173031,-0.02575349062681198,-0.019368749111890793
1772094101044357000,6.092357177734375,0.013873830437660217,-0.016614586114883423,-0.02024865709245205
1772094101054307000,6.10230712890625,0.008223431184887886,-0.024202436208724976,-0.014202773571014404
1772094101064256300,6.11225634765625,0.008296934887766838,-0.020724881440401077,-0.0024374602362513542
1772094101074205200,6.122205078125,0.010894237086176872,-0.020407672971487045,0.012238847091794014
1772094101084154000,6.132154052734375,0.006448355969041586,-0.01719137281179428,0.022309059277176857
1772094101094104000,6.14210400390625,0.002800402231514454,-0.0156343225389719,0.01790701225399971
1772094101104053000,6.152052978515625,0.0021476615220308304,-0.009537281468510628,0.007270080503076315
1772094101114002000,6.162001953125,-0.001604368444532156,-0.0022956584580242634,-0.004023747052997351
1772094101123952000,6.1719521484375,-0.00353249697946012,0.005559867713600397,-0.00855138711631298
1772094101133901000,6.181901123046875,-0.0018389620818197727,-0.0022231480106711388,-0.0027372282929718494
1772094101143850000,6.19185009765625,-0.003674945328384638,-0.0049779219552874565,0.006911137606948614
1772094101153799200,6.201799072265625,-0.0010807726066559553,-0.005724072456359863,0.011609194800257683
1772094101163748900,6.211748779296875,0.0009935633279383183,-0.0026891338638961315,0.01465771533548832
1772094101173698300,6.2216982421875,0.003301143180578947,-0.0014392593875527382,0.0029532569460570812
1772094101183647200,6.231647216796875,0.008843980729579926,-0.0036877659149467945,-0.004236745648086071
1772094101193597200,6.24159716796875,0.01193858403712511,-0.004457061178982258,-0.005857066251337528
1772094101203546000,6.251546142578125,0.012579341419041157,-0.01024677325040102,-0.0021094665862619877
1772094101213495000,6.2614951171875,0.008527761325240135,-0.007942124269902706,-0.005082673858851194
1772094101223445200,6.2714453125,0.0018932949751615524,0.002313442761078477,-0.00463819270953536
1772094101233394200,6.281394287109375,-0.002592809498310089,0.009633582085371017,0.0011457162909209728
1772094101243343000,6.291343017578125,-0.0001317821443080902,0.0028550387360155582,0.011553083546459675
1772094101253292000,6.3012919921875,0.006634918972849846,0.000835952814668417,0.022815590724349022
1772094101263242000,6.311241943359375,0.009351077489554882,0.00003647198900580406,0.023426253348588943
1772094101273191000,6.32119091796875,0.009944014251232147,-0.00032002851366996765,0.020685356110334396
1772094101283140000,6.33114013671875,0.00582490349188447,0.000245626550167799,0.012754195369780064
1772094101293089000,6.341089111328125,0.00017767073586583138,0.0013079617638140917,0.0016315029934048653
1772094101303039000,6.3510390625,-0.003989377524703741,-0.000490737147629261,-0.00865761935710907
1772094101312988200,6.36098828125,-0.0063657816499471664,-0.005027846898883581,-0.017145274206995964
1772094101322937000,6.37093701171875,-0.009649991989135742,-0.01081196591258049,-0.01056460291147232
1772094101332887300,6.38088720703125,-0.009686866775155067,-0.020164597779512405,-0.006298484746366739
1772094101342836200,6.390836181640625,-0.0050582922995090485,-0.030894741415977478,-0.002289628144353628
1772094101352785200,6.40078515625,0.0009601530618965626,-0.03395957872271538,-0.0014088675379753113
1772094101362734000,6.410734130859375,0.00135083869099617,-0.03493988886475563,-0.003431272692978382
1772094101372684000,6.42068408203125,0.0031501026824116707,-0.0359392985701561,-0.0019727125763893127
1772094101382633000,6.430633056640625,-0.00675206258893013,-0.03479627147316933,-0.012372355908155441
1772094101392582100,6.44058203125,-0.014319956302642822,-0.019647585228085518,-0.012055229395627975
1772094101402532000,6.450531982421875,-0.026266630738973618,-0.016083743423223495,-0.011135639622807503
1772094101412481000,6.46048095703125,-0.023387594148516655,-0.006643802393227816,-0.008221078664064407
1772094101422430000,6.470429931640625,-0.02016943134367466,0.00019013555720448494,0.00026774732396006584
1772094101432380200,6.480380126953125,-0.006891229189932346,0.0009048301726579666,0.013966066762804985
1772094101442329000,6.4903291015625,0.0008886633440852165,0.0041421689093112946,0.019011160358786583
1772094101452278000,6.500278076171875,0.0048722196370363235,0.007698820438235998,0.01960078254342079
1772094101462227200,6.510227294921875,0.0048226844519376755,0.0036209882237017155,0.018049491569399834
1772094101472177200,6.52017724609375,0.006171145010739565,0.0008696778677403927,0.009759150445461273
1772094101482126000,6.5301259765625,0.0005705174989998341,0.0040785204619169235,-0.006819560658186674
1772094101492075300,6.5400751953125,0.0020784232765436172,0.0010983634274452925,-0.014891710132360458
1772094101502025200,6.550025146484375,0.0014240844175219536,-0.015031605027616024,-0.010542767122387886
1772094101511974100,6.55997412109375,0.0029124440625309944,-0.012750094756484032,-0.013153275474905968
1772094101521923000,6.569923095703125,0.0034541310742497444,-0.009886929765343666,-0.010547373443841934
1772094101531872000,6.5798720703125,0.002530735917389393,-0.009769726544618607,-0.006500272545963526
1772094101541822200,6.589822265625,0.005710550583899021,-0.009520187973976135,-0.00027060601860284805
1772094101551771100,6.599771240234375,0.005195104982703924,-0.005628654267638922,0.004690063651651144
1772094101561720000,6.609719970703125,0.005437452811747789,0.0012886407785117626,0.011039305478334427
1772094101571670000,6.619669921875,-0.0019039660692214966,0.004248574376106262,0.022405970841646194
1772094101581619000,6.629618896484375,-0.004846492782235146,0.0030410969629883766,0.030102506279945374
1772094101591568000,6.63956787109375,-0.004652991890907288,0.0036991150118410587,0.03096584975719452
1772094101601517300,6.649517333984375,-0.004484413657337427,0.005495417397469282,0.024852298200130463
1772094101611467000,6.659467041015625,0.00014933105558156967,0.013104117475450039,0.010770619846880436
1772094101621416200,6.669416259765625,0.0027853278443217278,0.0073274546302855015,0.0019102829974144697
1772094101631365000,6.679365234375,0.011049809865653515,-0.008005164563655853,-0.0016491124406456947
1772094101641315000,6.689315185546875,0.015216326341032982,-0.01508517935872078,-0.0056571695022284985
1772094101651264300,6.69926416015625,0.009294086135923862,-0.019975585862994194,-0.005217375699430704
1772094101661213200,6.709213134765625,0.00007289042696356773,-0.027724318206310272,-0.002736906986683607
1772094101671162000,6.719162109375,-0.004826042801141739,-0.029503747820854187,-0.003942415118217468
1772094101681112000,6.729112060546875,-0.0011500816326588392,-0.02487757056951523,-0.00834888219833374
1772094101691061000,6.73906103515625,-0.0031502805650234222,-0.016497015953063965,-0.01218566857278347
1772094101701010000,6.749010009765625,-0.005725291091948748,-0.001380381640046835,-0.010287368670105934
1772094101710960000,6.758960205078125,-0.008297957479953766,0.008483752608299255,-0.0024231872521340847
1772094101720909000,6.768908935546875,-0.005306694656610489,0.012980500236153603,0.012509156949818134
1772094101730858000,6.77885791015625,-0.00656407605856657,0.009239555336534977,0.021971022710204124
1772094101740807200,6.78880712890625,-0.0038745496422052383,0.007794790435582399,0.03036104515194893
1772094101750756900,6.7987568359375,0.0011403551325201988,0.007551040966063738,0.026780636981129646
1772094101760706300,6.808706298828125,0.0031156218610703945,0.003800245001912117,0.02276512235403061
1772094101770655200,6.8186552734375,0.007688544224947691,0.00929173082113266,0.014154298231005669
1772094101780605200,6.828605224609375,0.004541486967355013,0.009964711964130402,0.006556300446391106
1772094101790554000,6.83855419921875,-0.000024795066565275192,0.004457267466932535,0.0038950303569436073
1772094101800503000,6.8485029296875,-0.0034608051646500826,0.004199740011245012,0.0012252111919224262
1772094101810452000,6.858451904296875,-0.0004450760316103697,0.0050643933936953545,-0.006546372547745705
1772094101820402200,6.868402099609375,0.001622069627046585,0.004065175075083971,-0.011624488048255444
1772094101830351000,6.87835107421875,0.0037806127220392227,0.004868704825639725,-0.010837579146027565
1772094101840300000,6.888300048828125,0.006377727724611759,0.006461807992309332,-0.003556495998054743
1772094101850250000,6.89825,0.0030721426010131836,0.003400044282898307,0.01389666460454464
1772094101860199000,6.908198974609375,0.00020764628425240517,0.006362278014421463,0.02154393121600151
1772094101870148000,6.918148193359375,0.0022790925577282906,0.0064521473832428455,0.019640756770968437
1772094101880098000,6.92809814453125,0.0048101614229381084,0.009435953572392464,0.021800581365823746
1772094101890047000,6.938046875,0.010497387498617172,0.006805982906371355,0.021157588809728622
1772094101899996200,6.94799609375,0.014323550276458263,0.0019915204029530287,0.026154743507504463
1772094101909945000,6.957945068359375,0.014138621278107166,-0.0048892926424741745,0.023142892867326736
1772094101919895300,6.967895263671875,0.010411794297397137,-0.005439501255750656,0.011892369017004967
1772094101929844200,6.97784423828125,0.005538776516914368,-0.0011344263330101967,-0.0042309933342039585
1772094101939793200,6.987793212890625,0.007803262211382389,-0.0004217643290758133,-0.018472246825695038
1772094101949742000,6.9977421875,0.01299446914345026,0.0011435721535235643,-0.021597787737846375
1772094101959692000,7.007692138671875,0.014929522760212421,-0.003863702993839979,-0.010874036699533463
1772094101969641000,7.017640869140625,0.018563419580459595,-0.0012081712484359741,0.008646882139146328
1772094101979590100,7.027590087890625,0.026860231533646584,-0.0019304202869534492,0.02578006312251091
1772094101989540000,7.0375400390625,0.03181670606136322,0.001100404653698206,0.033300191164016724
1772094101999489000,7.047489013671875,0.033036164939403534,0.0013075985480099916,0.03500301390886307
1772094102009438000,7.05743798828125,0.03123275376856327,-0.002705543301999569,0.021426860243082047
1772094102019388200,7.06738818359375,0.027934694662690163,-0.004061358515173197,0.0010960213840007782
1772094102029337000,7.077337158203125,0.019276004284620285,-0.00008562346920371056,-0.018252482637763023
1772094102039286000,7.0872861328125,0.010815940797328949,0.009989647194743156,-0.02972777746617794
1772094102049235200,7.097235107421875,0.00011676223948597908,0.020987631753087044,-0.029734836891293526
1772094102059185200,7.10718505859375,-0.0032758384477347136,0.020857136696577072,-0.012990210205316544
1772094102069134000,7.117134033203125,-0.006566033698618412,0.011266683228313923,0.013049378991127014
1772094102079083300,7.127083251953125,-0.0029662391170859337,0.013996424153447151,0.026182224974036217
1772094102089033200,7.137033203125,-0.006388035602867603,0.015433847904205322,0.02386503480374813
1772094102098982100,7.146982177734375,-0.010419528931379318,0.01752442866563797,0.01604732684791088
1772094102108931000,7.15693115234375,-0.023153744637966156,0.02235443890094757,0.009824159555137157
1772094102118880000,7.1668798828125,-0.03169636428356171,0.02570256218314171,-0.002551816403865814
1772094102128830200,7.176830322265625,-0.045486386865377426,0.025738203898072243,-0.013377196155488491
1772094102138779100,7.186779052734375,-0.04997674375772476,0.024260681122541428,-0.018377013504505157
1772094102148728000,7.19672802734375,-0.04716750606894493,0.025448570027947426,-0.012067724019289017
1772094102158678000,7.206677978515625,-0.04179004952311516,0.01644069515168667,0.0023578195832669735
1772094102168627000,7.216626953125,-0.029512541368603706,0.005368869751691818,0.01797710731625557
1772094102178576000,7.226575927734375,-0.021143823862075806,-0.002573475707322359,0.02332979440689087
1772094102188525300,7.236525390625,-0.01966932974755764,0.0023583602160215378,0.017444150522351265
1772094102198475000,7.24647509765625,-0.025575686246156693,0.012981709092855453,-0.0019383355975151062
1772094102208424200,7.256424072265625,-0.031134366989135742,0.015219757333397865,-0.01916288584470749
1772094102218373000,7.266373046875,-0.027360402047634125,0.015000313520431519,-0.02433367818593979
1772094102228323000,7.276322998046875,-0.019386757165193558,0.012440605089068413,-0.018704555928707123
1772094102238272300,7.286272216796875,-0.012296091765165329,0.009244810789823532,0.0020798181649297476
1772094102248221200,7.29622119140625,-0.0028747664764523506,0.004602000582963228,0.013796929270029068
1772094102258170000,7.306170166015625,0.004669702146202326,0.01994846574962139,0.02282637730240822
1772094102268120000,7.3161201171875,0.006025784183293581,0.019544199109077454,0.0254189632833004
1772094102278069000,7.326069091796875,0.00685961963608861,0.017317796126008034,0.028693852946162224
1772094102288018000,7.336017822265625,-0.0009546843357384205,0.03371146321296692,0.036791857331991196
1772094102297968000,7.345968017578125,-0.001604761928319931,0.01676364056766033,0.039562076330184937
1772094102307917000,7.3559169921875,-0.004277063999325037,0.022799523547291756,0.04526803642511368
1772094102317866000,7.365865966796875,-0.003235768061131239,0.024127108976244926,0.032074470072984695
1772094102327815200,7.375815185546875,-0.00037747505120933056,0.023748431354761124,0.022317340597510338
1772094102337764900,7.385764892578125,0.005141925998032093,0.017189597710967064,0.015224010683596134
1772094102347714300,7.39571435546875,0.002763808239251375,0.015927165746688843,0.007044773083180189
1772094102357663200,7.405663330078125,-0.006715713534504175,0.01988914981484413,-0.0005867811851203442
1772094102367613200,7.41561328125,-0.018237672746181488,0.018451431766152382,-0.0019451496191322803
1772094102377562000,7.42556201171875,-0.029848787933588028,0.026238780468702316,-0.0043531800620257854
1772094102387511000,7.435510986328125,-0.028499513864517212,0.02614486776292324,0.0035167548339813948
1772094102397460000,7.4454599609375,-0.019001083448529243,0.020935725420713425,0.005128233693540096
1772094102407410200,7.45541015625,-0.010326966643333435,0.024467460811138153,0.0022827526554465294
1772094102417359000,7.465359130859375,-0.004628867842257023,0.02522086910903454,0.006013042293488979
1772094102427308000,7.47530810546875,-0.009169304743409157,0.012813108041882515,0.0064341407269239426
1772094102437258000,7.485258056640625,-0.014020251110196114,0.0030166697688400745,0.006563570350408554
1772094102447207000,7.49520703125,-0.019267557188868523,0.0007420885376632214,-0.0049344683066010475
1772094102457156000,7.505156005859375,-0.022571474313735962,0.000574575737118721,-0.014341551810503006
1772094102467105000,7.51510498046875,-0.017227614298462868,-0.0028277337551116943,-0.02396560274064541
1772094102477055000,7.525054931640625,-0.014685360714793205,0.004703419748693705,-0.03662307560443878
1772094102487004200,7.535004150390625,-0.009393691085278988,0.01548728346824646,-0.03419741615653038
1772094102496953000,7.544953125,-0.011527149006724358,0.015082484111189842,-0.01871965453028679
1772094102506903300,7.5549033203125,-0.0029901289381086826,0.014966322109103203,-0.001434648409485817
1772094102516852200,7.564852294921875,-0.006578738335520029,0.010079421103000641,0.009932255372405052
1772094102526801200,7.57480126953125,-0.00262828404083848,-0.0002727936953306198,0.013400916010141373
1772094102536750000,7.58475,-0.006345524452626705,-0.01928510144352913,0.009314561262726784
1772094102546700000,7.594699951171875,-0.0033380554523319006,-0.031419914215803146,-0.002053062431514263
1772094102556649000,7.60464892578125,-0.004636080004274845,-0.03589029610157013,-0.02252664603292942
1772094102566598100,7.61459814453125,-0.011767523363232613,-0.03078828752040863,-0.04089920595288277
1772094102576548000,7.624548095703125,-0.02595365047454834,-0.02357165329158306,-0.052387550473213196
1772094102586497000,7.6344970703125,-0.03895081579685211,-0.017221201211214066,-0.04806870222091675
1772094102596446000,7.644446044921875,-0.036631736904382706,-0.016241956502199173,-0.037283964455127716
1772094102606395000,7.654394775390625,-0.0270247720181942,-0.02121102623641491,-0.03273048996925354
1772094102616345000,7.664344970703125,-0.017497316002845764,-0.03415212407708168,-0.032341670244932175
1772094102626294000,7.6742939453125,-0.01065487414598465,-0.04006177559494972,-0.025841644033789635
1772094102636243200,7.6842431640625,-0.018647819757461548,-0.03375354781746864,-0.025957228615880013
1772094102646193200,7.694193115234375,-0.0380253829061985,-0.028899788856506348,-0.017109137028455734
1772094102656142000,7.70414208984375,-0.057121045887470245,-0.05901561304926872,-0.008763854391872883
1772094102666091300,7.71409130859375,-0.04905128479003906,-0.05979608744382858,-0.01166454330086708
1772094102676040200,7.724040283203125,-0.045931655913591385,-0.062227025628089905,-0.010523911565542221
1772094102685990100,7.733990234375,-0.05009663477540016,-0.06518308818340302,0.0023246377240866423
1772094102695939000,7.74393896484375,-0.045733578503131866,-0.048737797886133194,0.006515920627862215
1772094102705888000,7.753887939453125,-0.04821150377392769,-0.05401354655623436,0.011115153320133686
1772094102715838200,7.763838134765625,-0.05095323175191879,-0.0658707395195961,0.01164831779897213
1772094102725787100,7.773787109375,-0.046555545181035995,-0.03502915799617767,0.0020976627711206675
1772094102735736000,7.783736083984375,-0.039208415895700455,-0.02187819965183735,-0.008808780461549759
1772094102745685000,7.79368505859375,-0.03023502603173256,-0.01868019998073578,-0.004950101021677256
1772094102755635000,7.803635009765625,-0.025162238627672195,-0.01531689427793026,0.0010790289379656315
1772094102765584000,7.813583984375,-0.02779519557952881,0.004015573300421238,-0.0057719009928405285
1772094102775532500,7.823532470703125,-0.023375146090984344,0.024623645469546318,-0.012737130746245384
1772094102785482500,7.833482421875,-0.02356816828250885,0.02144823595881462,-0.0004057427868247032
1772094102795431400,7.843431396484375,-0.01213202252984047,0.01208882313221693,0.02099861577153206
1772094102805380400,7.85338037109375,0.0019281581044197083,0.01074216142296791,0.026051651686429977
1772094102815329300,7.863329345703125,0.010637227445840836,0.009887820109724998,0.031203802675008774
1772094102825279500,7.873279541015625,0.009374652057886124,-0.0019256244413554668,0.0309147946536541
1772094102835228400,7.883228515625,0.005093886982649565,-0.016593249514698982,0.024170339107513428
1772094102845177300,7.89317724609375,-0.0023203776217997074,-0.006563086528331041,-0.004533966071903706
1772094102855126300,7.903126220703125,-0.011380983516573906,0.0076099904254078865,-0.026227010414004326
1772094102865076200,7.913076171875,-0.020500898361206055,0.005173514597117901,-0.02969142608344555
1772094102875025200,7.923025146484375,-0.018633224070072174,0.005801754537969828,-0.02664157561957836
1772094102884974600,7.932974609375,-0.013432217761874199,0.007867591455578804,-0.015411777421832085
1772094102894924300,7.94292431640625,-0.00678709801286459,0.014875167980790138,0.003246595151722431
1772094102904873500,7.95287353515625,0.0037926840595901012,0.0189142394810915,0.017697207629680634
1772094102914822400,7.962822509765625,0.012850629165768623,0.014036661013960838,0.030155742540955544
1772094102924771300,7.972771240234375,0.014645008370280266,0.00703659001737833,0.031917817890644073
1772094102934721500,7.982721435546875,0.010758125223219395,0.0061295172199606895,0.025088142603635788
1772094102944670500,7.99267041015625,0.010249702259898186,0.008903631940484047,0.011035218834877014
1772094102954619400,8.002619384765625,0.00535561190918088,0.00988074578344822,-0.0062119439244270325
1772094102964569300,8.0125693359375,0.0042473250068724155,0.004172964952886105,-0.016902128234505653
1772094102974518300,8.022518310546875,0.01232442632317543,-0.004305207636207342,-0.014077579602599144
1772094102984467200,8.03246728515625,0.017705926671624184,-0.006190629675984383,-0.008317779749631882
1772094102994416400,8.04241650390625,0.013725299388170242,-0.005199400708079338,0.005545306019484997
1772094103004366300,8.052366455078126,0.008266792632639408,-0.009060744196176529,0.012744810432195663
1772094103014315300,8.062315185546876,0.006450250744819641,-0.0033807544969022274,0.00613617617636919
1772094103024264400,8.072264404296876,0.006062251981347799,-0.0033508269116282463,0.0012409742921590805
1772094103034214400,8.08221435546875,0.007316068280488253,-0.011235915124416351,-0.0012860996648669243
1772094103044163600,8.09216357421875,0.0046427082270383835,-0.019425643607974052,-0.003834053408354521
1772094103054112500,8.102112548828124,0.008313875645399094,-0.0235625971108675,-0.010199807584285736
1772094103064061400,8.1120615234375,0.00685101980343461,-0.023753982037305832,-0.013278204947710037
1772094103074011400,8.122011474609375,0.0014898101799190044,-0.019076406955718994,-0.020477261394262314
1772094103083960300,8.131960205078125,0.0038346052169799805,-0.012239634990692139,-0.01848764158785343
1772094103093909200,8.1419091796875,0.00840006209909916,-0.016990449279546738,-0.019773149862885475
1772094103103859500,8.151859375,0.016668878495693207,-0.016122937202453613,-0.018222585320472717
1772094103113808400,8.161808349609375,0.02337311953306198,-0.019939513877034187,-0.010361465625464916
1772094103123757300,8.17175732421875,0.024980340152978897,-0.02518913708627224,-0.0029006199911236763
1772094103133706200,8.181706298828125,0.020397305488586426,-0.016325071454048157,-0.003812219947576523
1772094103143656400,8.191656494140625,0.011911045759916306,-0.0076495567336678505,-0.012258775532245636
1772094103153605400,8.20160546875,-0.001574934460222721,-0.0018316148780286312,-0.015008222311735153
1772094103163554300,8.21155419921875,-0.009376890026032925,0.006967027671635151,-0.014910845085978508
1772094103173503500,8.22150341796875,-0.006184558384120464,0.013264073058962822,-0.006620423402637243
1772094103183453400,8.231453369140626,0.0065203444100916386,0.007330650929361582,0.0014880592934787273
1772094103193402400,8.24140234375,0.01685447432100773,-0.002040213905274868,0.006103050895035267
1772094103203351600,8.2513515625,0.018696021288633347,-0.014381373301148415,0.007367309648543596
1772094103213301500,8.261301513671874,0.016716759651899338,-0.03495029732584953,0.004447420127689838
1772094103223250400,8.27125048828125,0.010387038812041283,-0.03252338245511055,-0.010544472374022007
1772094103233199400,8.281199462890624,0.0006963275372982025,-0.02446891926229,-0.021624818444252014
1772094103243148300,8.291148193359374,-0.016494762152433395,-0.02000422775745392,-0.01891401596367359
1772094103253098500,8.301098388671875,-0.01387181505560875,-0.011828588321805,-0.01949884556233883
1772094103263047400,8.31104736328125,-0.011648233979940414,-0.003139711916446686,-0.014164483174681664
1772094103272996400,8.320996337890625,-0.012293251231312752,-0.014285308308899403,-0.005990175995975733
1772094103282946300,8.3309462890625,-0.014453114941716194,-0.050309740006923676,0.018957063555717468
1772094103292895200,8.340895263671875,-0.0038582608103752136,-0.07385580986738205,0.03462231159210205
1772094103302844200,8.35084423828125,-0.008613896556198597,-0.08641348779201508,0.04113805666565895
1772094103312793600,8.360793701171875,0.006142412777990103,-0.10966688394546509,0.04397139325737953
1772094103322743300,8.370743408203126,0.015946827828884125,-0.03049061819911003,-0.01197733636945486
1772094103332692500,8.3806923828125,0.0320589542388916,0.012306646443903446,-0.01886427029967308
1772094103342641400,8.390641357421876,0.046545229852199554,0.016223939135670662,0.015024696476757526
1772094103352591400,8.40059130859375,0.04651566967368126,0.01975635625422001,0.03981925919651985
1772094103362540500,8.41054052734375,0.03335573524236679,0.030078744515776634,0.030282318592071533
1772094103372489500,8.420489501953124,0.017278233543038368,0.04645984619855881,0.004004909656941891
1772094103382438400,8.4304384765625,-0.0015195650048553944,0.051980119198560715,-0.02836366556584835
1772094103392388400,8.440388427734375,-0.011649164371192455,0.05756450071930885,-0.05688744783401489
1772094103402337300,8.450337158203125,0.00222977576777339,0.05905580148100853,-0.06572889536619186
1772094103412286200,8.4602861328125,0.01012524962425232,0.05735404044389725,-0.051239170134067535
1772094103422235400,8.4702353515625,0.034080877900123596,0.04342798516154289,-0.006196514703333378
1772094103432185300,8.480185302734375,0.03548755869269371,0.026787487789988518,0.030139122158288956
1772094103442134300,8.49013427734375,0.02788601629436016,0.01777191460132599,0.0390334390103817
