time,seconds_elapsed,z,y,x
1772045990583115300,0.068115234375,0.17787001103162764,0.04766998859364539,0.0295834017557092
1772045990593101600,0.0781015625,0.14705050987601279,0.05070153830926865,0.04198567761322483
1772045990603086600,0.088086669921875,0.08295593110620975,0.054202239906601606,0.05608334094546735
1772045990613072400,0.098072265625,0.0055956280499696726,0.07011296227648854,0.06237224848922342
1772045990623057400,0.108057373046875,-0.0005786766707897186,0.03387841380219906,0.04957629713900387
1772045990633043500,0.11804345703125,-0.005180617508292198,0.010722944468446075,0.008755169793125241
1772045990643028500,0.128028564453125,-0.019272271224856377,0.016088124763406812,-0.009651040920615195
1772045990653014500,0.1380146484375,-0.023980010524392126,0.009576368249207734,0.02298157407157123
1772045990662999300,0.147999267578125,-0.012711013013124465,0.008475823128782213,0.0044009018400684
1772045990672985300,0.1579853515625,0.02157002677321434,0.00178790633007884,-0.026606486570462582
1772045990682970600,0.167970703125,0.04011223015785217,-0.0050366059277206655,-0.028122809417545795
1772045990692956400,0.177956298828125,0.03128185797035694,-0.01122146857511252,0.015431067360471933
1772045990702942500,0.1879423828125,0.028915713360905645,-0.016543686511181294,0.0470735753367655
1772045990712927200,0.19792724609375,0.03959025211036205,-0.017360884645581245,0.040883835584856566
1772045990722913500,0.20791357421875,0.03800561326742172,-0.01650437741409987,0.04038564027175307
1772045990732898600,0.217898681640625,0.027440964633226393,-0.011170103714056313,0.040015637915581465
1772045990742884400,0.22788427734375,0.0168617029517889,0.003267988820001483,0.04976263175765052
1772045990752869400,0.237869384765625,0.029884266132116317,0.018451383296027777,0.029136808765679596
1772045990762855200,0.247855224609375,0.0690589231789112,0.029363968585059044,0.0183573666033335
1772045990772840400,0.25784033203125,0.11195464657545089,0.03478084253463894,0.028958091197907924
1772045990782826500,0.267826416015625,0.14081015418171883,0.035594570070318875,0.020532774413656443
1772045990792811500,0.2778115234375,0.1423445241421461,0.032861857170797884,0.021228008402511475
1772045990802797300,0.28779736328125,0.12659282825887203,0.013721614827774464,0.034727431846968825
1772045990812783400,0.297783447265625,0.08486497959792613,0.017183226523734628,0.02840504215871915
1772045990822768400,0.307768310546875,0.02357552137672901,-0.004845869128592312,0.008615395996253937
1772045990832754400,0.31775439453125,-0.03294014657139778,0.004820807752571999,-0.02057144418992102
1772045990842739500,0.327739501953125,-0.08907061459422111,0.018281287426128983,-0.041346722122561186
1772045990852725500,0.3377255859375,-0.08978256225585937,0.008711531580798328,-0.05268403562968597
1772045990862710500,0.34771044921875,-0.09193477185368537,0.02036795750707388,-0.047620651292894035
1772045990872696300,0.3576962890625,-0.08799158718585967,0.011103870077431202,-0.026641941476333884
1772045990882681300,0.367681396484375,-0.0742044693738222,-0.009000796850956975,0.013984357417188583
1772045990892667400,0.37766748046875,-0.06266659179329871,-0.039953422866947946,0.036414325487986204
1772045990902652400,0.38765234375,-0.043318917244672774,-0.02973908550776541,0.03886770998947322
1772045990912638500,0.397638427734375,-0.01527531054317951,-0.0356986880319193,0.012730631029047071
1772045990922624300,0.407624267578125,-0.0012824410259723662,-0.04092939175963402,0.02331661471221596
1772045990932609300,0.417609375,0.02948153055012226,-0.06587459405437111,0.03476681400928646
1772045990942595600,0.427595703125,0.03661912734508514,-0.07755725040044635,0.024012926413305102
1772045990952580400,0.437580322265625,0.02459843468368053,-0.06789349612873047,0.016388313286378978
1772045990962566400,0.44756640625,0.010004092141985893,-0.060627194920182224,0.009655534432642162
1772045990972551400,0.457551513671875,-0.03769932379722595,-0.05274137357380241,-0.0019174509938806295
1772045990982537500,0.467537353515625,-0.05402268208861351,-0.03089618312101811,-0.024121647484786807
1772045990992522500,0.4775224609375,-0.014853285738825796,-0.018941322237439454,-0.04418287713024765
1772045991002508300,0.48750830078125,-0.0073988780796527855,-0.0075326605271548025,-0.028469175169803202
1772045991012493300,0.497493408203125,0.014720014747977257,-0.0026774025157094,-0.012696582628972828
1772045991022479400,0.507479248046875,0.042382513177394866,0.0006056377429515123,-0.02373498625475913
1772045991032465400,0.51746533203125,0.03580664191842079,0.007614347461238503,-0.015457389111816882
1772045991042450400,0.527450439453125,0.017871172255277634,0.02154653629977256,-0.003776595929265022
1772045991052436200,0.537436279296875,0.024617723906040192,0.021265965792723,-0.025368871066905555
1772045991062421200,0.547421142578125,0.058903439867496486,0.023938217209279536,-0.032985629680939016
1772045991072407600,0.557407470703125,0.0813812291353941,0.01893953213915229,-0.022535437739267944
1772045991082392600,0.567392578125,0.08667992006540298,0.0159577398493886,-0.0008627908417955041
1772045991092378400,0.57737841796875,0.09649871876835822,0.0036184462254866957,0.018352672161906957
1772045991102363400,0.58736328125,0.07866086426079273,0.01243256139792502,0.008073452872969209
1772045991112349400,0.597349365234375,0.04976034846901893,0.02232416960876435,0.0036598376818001268
1772045991122334500,0.60733447265625,0.021909633991122245,0.0174314656637609,-0.002708016849681735
1772045991132320500,0.617320556640625,-0.004455225843191146,0.006513875406049191,-0.01173749180585146
1772045991142306300,0.627306396484375,-0.005093523746728897,0.01452785317674279,-0.017645144947059453
1772045991152291300,0.637291259765625,0.014482114338874816,0.0002987272182479501,-0.008940335367992519
1772045991162277400,0.64727734375,0.021958149307966232,-0.019673728165216745,0.006974113328941166
1772045991172262400,0.657262451171875,0.03169979112148285,-0.038587724004313345,0.019700944965705274
1772045991182248400,0.66724853515625,0.015855156257748602,-0.0296107464203611,0.00944908860772848
1772045991192233200,0.677233154296875,-0.014813538250327109,-0.03554214576333761,-0.007869966190122068
1772045991202219500,0.687219482421875,-0.03816869487464428,-0.030136195066571232,-0.02090849412456155
1772045991212204500,0.69720458984375,-0.06576338876485824,-0.01617872565630823,-0.02096069923583418
1772045991222190300,0.7071904296875,-0.04613981988430023,-0.03821969440951943,-0.02728464156035334
1772045991232175400,0.71717529296875,-0.0027466683596372604,-0.04281315967962145,-0.007149177634902298
1772045991242161400,0.727161376953125,0.02809329106211662,-0.038936500909365714,0.02304503122922033
1772045991252147500,0.7371474609375,0.04055822035968303,-0.025953356423974037,0.029169870785064993
1772045991262132500,0.747132568359375,0.04466740924417972,-0.01914795072544366,0.024914039971493183
1772045991272118300,0.7571181640625,0.04387012138664722,-0.017936054185032843,0.027399317448586223
1772045991282103300,0.767103271484375,0.021104747349023817,-0.008478088151104748,0.05053217309173196
1772045991292089300,0.77708935546875,0.010002338576316832,0.004177468347735702,0.04777816167585552
1772045991302074400,0.787074462890625,0.02491875267922878,0.0038560909062623975,0.030426081391237675
1772045991312060400,0.797060302734375,0.049994157224893566,-0.003968794033117592,0.026415859369188544
1772045991322045400,0.80704541015625,0.06805880622565746,0.00937218744661659,0.03798274384848773
1772045991332031500,0.817031494140625,0.06849544407725333,0.026997056790627538,0.02479150957036763
1772045991342016500,0.8270166015625,0.07987257813811302,0.03308353709746152,0.012737608759105205
1772045991352002300,0.837002197265625,0.07330079853236675,0.03208195883948356,-0.0003672624098137021
1772045991361988400,0.84698828125,0.07481938640177249,0.04858133128490299,-0.010105287494137883
1772045991371973600,0.8569736328125,0.06349193670153618,0.04277114716880023,-0.0017787001103162765
1772045991381959400,0.86695947265625,0.052476621690392494,0.0400793508015573,-0.007826930765993893
1772045991391944400,0.8769443359375,0.03353635889887809,0.03046451370548457,-0.018113127784989774
1772045991401930200,0.88693017578125,0.03613105156719684,0.0018030308339744806,-0.009910349443927406
1772045991411915300,0.896915283203125,0.0439800115019083,0.001440261936187744,-0.01115253152474761
1772045991421901600,0.906901611328125,0.03342997591495514,-0.005861439379304647,-0.0158868665702641
1772045991431886300,0.91688623046875,0.02780979794561863,-0.021388276998139916,-0.022027926608547566
1772045991441872400,0.926872314453125,0.029085809230804442,-0.028457046340592203,-0.018911950012482703
1772045991451857400,0.936857421875,0.01807867752611637,-0.032935141602717335,-0.017270758676715195
1772045991461843500,0.946843505859375,0.013339374044537543,-0.029444669138453897,-0.012273936770111321
1772045991471829500,0.95682958984375,0.01218318974673748,-0.025302747028134762,0.010557634371519088
1772045991481814300,0.966814208984375,0.03315232801735401,-0.008127959539182484,0.014015154414251446
1772045991491800300,0.97680029296875,0.03064005293548107,0.007133833935298025,0.016161372662708163
1772045991501785600,0.98678564453125,0.024535306319594382,0.008399396891705692,0.028092048953101037
1772045991511770600,0.9967705078125,0.03369008815586567,0.014498919343203305,0.01617452440522611
1772045991521755600,1.006755615234375,0.020112813702225684,0.007590856987796724,0.015367007414624094
1772045991531742000,1.016741943359375,0.03243219704926014,0.013484518136270343,0.025225626671314238
1772045991541726700,1.026726806640625,0.02426350364089012,0.012842530438303947,0.02750533510632813
1772045991551712800,1.036712646484375,0.006482932278513908,0.001094846032001078,0.015366021033935248
1772045991561697800,1.04669775390625,-0.009814122527837752,0.016615801899321377,0.001606083489768207
1772045991571683800,1.056683837890625,-0.015936404800415038,0.011110920872725546,0.000287803965434432
1772045991581670000,1.066669921875,-0.00905658215880394,0.006346556015126407,0.011587196614965796
1772045991591654700,1.076654541015625,0.006790390792489051,0.005270706944540142,0.004763962998799979
1772045991601640700,1.086640625,0.012300094124674796,0.008975552811846137,0.0047910702014341945
1772045991611625700,1.096625732421875,0.03458440664708614,-0.012753938839398325,0.033190248874947426
1772045991621611800,1.10661181640625,0.06618892070055007,-0.009178893364220857,0.04849376259930432
1772045991631596800,1.1165966796875,0.08151040847301483,-0.002219246952049434,0.04990110864657908
1772045991641582800,1.126582763671875,0.0773854374974966,0.0026907369213178753,0.04360321407876908
1772045991651567600,1.136567626953125,0.06919745486676693,-0.0013717998098582028,0.026232830952480433
1772045991661554000,1.146553955078125,0.06980126597881317,0.01622866574525833,-0.0012520458877086638
1772045991671539000,1.1565390625,0.05946282731592655,0.019535963662341237,0.0012458718752488493
1772045991681524700,1.166524658203125,0.04423310948014259,0.009941256038844585,0.047412579766474665
1772045991691510800,1.1765107421875,0.03680909695923328,0.02529686527661979,0.06124602093826979
1772045991701495800,1.186495849609375,0.04573649978041649,0.00743164783809334,0.0486300292648375
1772045991711481900,1.19648193359375,0.04184475303888321,-0.013626776151172816,0.0486192156098783
1772045991721467000,1.206466796875,0.004010989207029343,-0.009933949515223502,0.0493530463097617
1772045991731452700,1.21645263671875,0.002211246308684349,-0.014391586511209606,0.030596469522081313
1772045991741437700,1.226437744140625,0.009490297400951385,-0.026857319526374338,-0.013142682428658008
1772045991751423700,1.236423828125,0.023600071296095846,-0.02612969937156886,-0.009161321174912154
1772045991761408800,1.24640869140625,0.025549451798200607,-0.03267912101503461,-0.005149857043847441
1772045991771394800,1.256394775390625,0.0559223782300949,-0.029923027239926157,0.0015593217385932803
1772045991781379600,1.266379638671875,0.058474400800466536,-0.03130089146438986,0.017751491398364305
1772045991791366000,1.276365966796875,0.01272562606036663,-0.03059172028172761,0.034045039073377845
1772045991801351700,1.2863515625,-0.05712357071340084,-0.016267426853068173,0.02109071882367134
1772045991811336700,1.296336669921875,-0.07060439905524253,-0.012558781593479215,-0.009063925215043128
1772045991821322800,1.30632275390625,-0.05178863942623138,-0.026150011507235466,0.018527919130958616
1772045991831307800,1.316307861328125,-0.030566987699270246,-0.019632702035084364,0.061881432764977214
1772045991841293800,1.3262939453125,0.0030728315740823743,-0.0047070817124098534,0.044325062079913914
1772045991851278800,1.33627880859375,0.048963645133376116,0.006926511327549815,0.014148096611537039
1772045991861264600,1.3462646484375,0.0664320818066597,0.004263612261228263,0.004179258446022868
1772045991871249700,1.356249755859375,0.07028992627859115,0.01306965372506529,0.011839015951566398
1772045991881235700,1.366235595703125,0.06623042175471783,0.01784253068268299,-0.004521349881961942
1772045991891220700,1.376220703125,0.061139820617437356,-0.0007388722011819482,-0.01239672289956361
1772045991901206800,1.386206787109375,0.05786240638196468,0.00764645963255316,-0.014544804311543702
1772045991911192800,1.39619287109375,0.03949322147667408,0.0024600334379822016,-0.012481953497603535
1772045991921177900,1.406177734375,0.02008651021718979,-0.012126856449618934,-0.0168698131930083
1772045991931164000,1.416163818359375,0.0006646013885736465,-0.02006802471242845,-0.027865290992520747
1772045991941148700,1.426148681640625,0.0015694412738084791,-0.027140849175490436,-0.0407207174450159
1772045991951134700,1.436134765625,-0.0030780922710895537,-0.03564436402879655,-0.046901086580380794
1772045991961120000,1.4461201171875,-0.0017547347128391265,-0.056827400778420266,-0.029002660991996526
1772045991971105800,1.456105712890625,-0.004632920497655868,-0.06479509172197431,-0.022015432453155515
1772045991981090800,1.4660908203125,-0.010970306825637816,-0.07400675484463572,-0.019994338421709834
1772045991991076600,1.47607666015625,-0.016855857732892037,-0.08529741619843989,-0.010692951188981533
1772045992001061600,1.4860615234375,-0.012414660415053368,-0.07766443710196763,-0.00205064891949296
1772045992011048000,1.4960478515625,-0.03158990100622177,-0.061878729351237415,0.00731269763354212
1772045992021032700,1.50603271484375,-0.035654081705212594,-0.04331749247256666,0.007552936130203306
1772045992031018800,1.516018798828125,-0.01593055958151817,-0.02115695246029645,0.008537051796726883
1772045992041004800,1.5260048828125,-0.002649637725949287,-0.008068374839052558,0.0054972091767936946
1772045992050989800,1.53598974609375,0.013328852650523184,0.011359160012751817,0.01803187924232334
1772045992060975900,1.545975830078125,0.0406862306535244,0.01776990383788943,0.009667188337817788
1772045992070960600,1.555960693359375,0.05024374807178974,0.025346330441534518,0.0020509777130559084
1772045992080946700,1.56594677734375,0.059518356895446774,0.02695029503945261,-0.008693849793635309
1772045992090932000,1.575931884765625,0.05743979705572128,0.022935250711813567,-0.0036037235803902147
1772045992100917800,1.585917724609375,0.04533259515464306,0.026410598672181367,-0.02028093681074679
1772045992110902800,1.59590283203125,0.02198737540245056,0.012692929367162287,-0.014447335286438464
1772045992120888800,1.605888916015625,0.018977672192454338,0.02067183582447469,-0.0006222235515713692
1772045992130875000,1.615875,0.04363923524022102,0.0216771038768813,-0.0009592734862118959
1772045992140860000,1.62585986328125,0.05273790297508239,0.028679018528200685,0.0004989259654656052
1772045992150845700,1.635845703125,0.06812836433053017,0.013031367541290818,0.00941430955529213
1772045992160830700,1.645830810546875,0.07951075908839703,0.000963365139439702,0.02453976329900324
1772045992170817000,1.655817138671875,0.059786652442812914,-0.01021693117506802,0.03369359528720379
1772045992180801800,1.6658017578125,0.03078384532034397,-0.005307056899555027,0.027035379507020115
1772045992190787800,1.675787841796875,-0.02489478728175163,-0.009072108521498739,0.011248393114656209
1772045992200772900,1.68577294921875,-0.03707680798470974,0.006361132529750466,-0.01724229976721108
1772045992210758700,1.695758544921875,-0.028653847554326057,0.012808080179430543,-0.038085290907509624
1772045992220744000,1.705743896484375,-0.012141688692569732,0.018837569602020085,-0.028584179851599036
1772045992230729700,1.715729736328125,0.027899814316630363,0.020987185383960605,0.011498531950823962
1772045992240714800,1.72571484375,0.06741232501566409,0.0068541767437011,0.04948445413708687
1772045992250700800,1.73570068359375,0.08706336642503738,0.00612272066399455,0.04401000478137284
1772045992260686800,1.745686767578125,0.07248188336491584,0.0071879022100940345,0.020273959080688655
1772045992270672000,1.755671875,0.05251461561322212,0.008347155247814953,0.014920505756139754
1772045992280657700,1.76565771484375,0.016212299132347105,0.015305961409769952,0.012645035104826091
1772045992290642700,1.775642578125,-0.0035281741261482236,0.01558726256918162,-0.000691014471463859
1772045992300629000,1.78562890625,0.008417699733376503,0.006234364344924688,-0.013234379300102591
1772045992310613800,1.79561376953125,0.020795535269379616,0.009233071236871183,0.00484079109467566
1772045992320599800,1.805599853515625,0.03286182063817978,-0.0018861425401642917,0.027038886638358232
1772045992330584800,1.815584716796875,0.03761223003566265,-0.01085913806874305,0.03817841255106032
1772045992340570600,1.825570556640625,0.02532441087067127,-0.0009672375969588756,0.03235964326970279
1772045992350556000,1.835555908203125,0.02667465643584728,0.012960932653583586,0.01570500719733536
1772045992360541700,1.845541748046875,0.0298369198590517,0.0051096346313133836,0.01913790425546467
1772045992370527700,1.85552783203125,0.013275661158561707,0.013923092216625809,0.03742821523826569
1772045992380512800,1.8655126953125,-0.011362521013617516,0.02087112125623971,0.04465999312270433
1772045992390498800,1.875498779296875,-0.0019131401449441908,0.03132832746058702,0.006620879444479942
1772045992400483800,1.88548388671875,0.018127192842960358,0.029604024418629703,-0.010794292671605943
1772045992410470000,1.895469970703125,0.06465805787146091,0.03293674903791398,-0.02349449202977121
1772045992420454700,1.90545458984375,0.09327800315618515,0.03569342733491212,-0.02271240174137056
1772045992430441000,1.91544091796875,0.09216974965333938,0.011828531090170144,-0.00969718161728233
1772045992440426000,1.925426025390625,0.06774491797089577,-0.0029372590282931922,-0.008745762643963099
1772045992450411800,1.935411865234375,0.03193243083357811,-0.016948066060990093,-0.028655454989522693
1772045992460396800,1.945396728515625,-0.007054010164737701,-0.023600546220131215,-0.037107020459882914
1772045992470382600,1.955382568359375,-0.040516719305515286,-0.0184137181667611,-0.043013942948728796
1772045992480369000,1.965368896484375,-0.03777706520855426,-0.03136887866668403,-0.024830270678177474
1772045992490354000,1.97535400390625,-0.05257423684597015,-0.03837587135192007,-0.02241451477333903
1772045992500339700,1.985339599609375,-0.04331599463522434,-0.016341697665676475,-0.03199431708864867
1772045992510324700,1.99532470703125,-0.029140169766545293,-0.012559000789187848,-0.03403769601713866
1772045992520310500,2.005310546875,0.000007014262676239014,-0.007375716399773955,-0.026096527754329142
1772045992530295800,2.0152958984375,0.03350830184817314,-0.0013109364680945874,-0.0064021586598828435
1772045992540281900,2.02528173828125,0.058041270080208776,-0.009480652789771556,0.0075401497138664125
1772045992550266600,2.0352666015625,0.07510989378094672,-0.0035662776468321678,0.015375775242969392
1772045992560252700,2.045252685546875,0.058816346105933184,0.012548479395173489,0.01473415287118405
1772045992570237700,2.05523779296875,0.0342898076146841,0.025973193635605275,0.001301693715713918
1772045992580223700,2.0652236328125,0.04209726649522781,0.028597002800554036,0.008984028379246592
1772045992590209800,2.075209716796875,0.040194063222408295,0.03741393098458647,0.029866767008043825
1772045992600194800,2.08519482421875,0.05565817433595657,0.03826707721520215,0.03031250148154795
1772045992610180900,2.095180908203125,0.05900573119819164,0.03730177584700286,0.029206220740079877
1772045992620166000,2.105165771484375,0.04816518823206425,0.03234499368984252,0.03129354840815067
1772045992630151700,2.115151611328125,0.03509469425678253,0.03693352705650031,0.01966108787935227
1772045992640136700,2.12513671875,0.026680501654744147,0.03295318871606141,0.006253361306339502
1772045992650122800,2.135122802734375,0.025296353819966314,0.022024748270772398,-0.001605462435260415
1772045992660107800,2.145107666015625,0.024206220495700835,0.019652977638132868,0.010633914478123188
1772045992670093800,2.15509375,0.0293839153945446,0.009677015612088143,0.0039904213430359955
1772045992680078800,2.165078857421875,0.03664543083012104,0.011545184104144573,-0.009851130069978535
1772045992690064600,2.175064697265625,0.03252747411727905,0.008270875141210854,-0.017478629273734985
1772045992700051000,2.185051025390625,0.02198036113977432,-0.008135119932331144,-0.01042776091415435
1772045992710035700,2.19503564453125,0.005579261437058449,-0.016235132018662987,0.007592610553465783
1772045992720021800,2.205021728515625,-0.02089607303440571,-0.003151267105154693,0.006728979461453855
1772045992730006800,2.2150068359375,-0.033658523973822595,-0.005920695285871624,-0.005921279807761312
1772045992739992800,2.224992919921875,-0.018927987831830976,-0.003833294552564621,-0.01944086925741285
1772045992749977900,2.234977783203125,0.015101123020052908,-0.0024622619276866314,-0.022126418546959757
1772045992759963600,2.244963623046875,0.027459669333696365,0.00041248979102820153,-0.0010067293571308254
1772045992769948700,2.25494873046875,0.04676292021870613,0.00044485769066959617,0.031955702111311254
1772045992779934700,2.264934814453125,0.0550514406144619,-0.009035356707684695,0.06089212946668267
1772045992789919700,2.274919677734375,0.05515665455460548,-0.002276931956037879,0.07145674156825989
1772045992799905800,2.28490576171875,0.038082770156860346,0.011563706141524016,0.05926138645969331
1772045992809890800,2.294890869140625,0.03656768941879272,0.0035198812218382954,0.04740224103555083
1772045992819876600,2.304876708984375,0.019325462716817853,0.00010696750581264495,0.011794957614131272
1772045992829863000,2.31486279296875,0.0005295768320560455,0.010621749116294085,-0.012544716535508631
1772045992839847700,2.32484765625,-0.010671031618118285,0.003910670637711882,-0.016374577021971343
1772045992849833700,2.334833740234375,-0.011126958692073821,-0.008821823554858565,-0.004141593316756189
1772045992859818800,2.34481884765625,-0.011454875472187995,-0.01549936509002,0.018921411960572003
1772045992869804800,2.3548046875,-0.013738017973303793,-0.009994118737243115,0.014194237308204172
1772045992879789800,2.364789794921875,-0.01586743121743202,-0.002469751114398241,0.020587956933304667
1772045992889775900,2.37477587890625,-0.023825112223625183,0.0021380349420011043,0.02700794351082295
1772045992899760600,2.3847607421875,-0.019054244560003278,0.014772548652812838,0.042640725722163916
1772045992909746700,2.39474658203125,-0.01726736114323139,0.02087495718114078,0.05155526906177401
1772045992919732700,2.404732666015625,-0.016987375158071517,0.03783241212498396,0.05312419887892902
1772045992929717800,2.4147177734375,0.010507365489006042,0.037111696635000406,0.031708668547682464
1772045992939703800,2.424703857421875,0.020788521006703375,0.03936616103090346,0.019862273007258773
1772045992949688600,2.4346884765625,0.03887012114226818,0.0506768787920475,0.01926690092999488
1772045992959675000,2.4446748046875,0.05696282719373703,0.043915312235243614,0.018572452392429113
1772045992969660000,2.454659912109375,0.074462243527174,0.03719152040556073,0.01595788597986102
1772045992979645700,2.464645751953125,0.06234802736341953,0.03561290944460779,0.01590469448789954
1772045992989630700,2.474630615234375,0.07358779878020286,0.03817592833302915,0.014749167777225375
1772045992999616800,2.48461669921875,0.06523731906414032,0.03475910562686622,0.010756846738047898
1772045993009601800,2.494601806640625,0.07019406468868256,0.02540094670560211,-0.0026154066627845167
1772045993019587800,2.504587890625,0.07140519404411315,0.02049037831034511,-0.00755943893622607
1772045993029572600,2.514572509765625,0.05930675997138023,0.023698124843090772,-0.015432473866268991
1772045993039558700,2.52455859375,0.034924013864994045,0.027333083811961114,-0.011890709606185554
1772045993049544700,2.534544677734375,0.013977087426185607,0.03723378864470869,-0.00956398369167
1772045993059529700,2.54452978515625,0.0027390695750713345,0.03865264246668666,-0.007220306642353534
1772045993069515800,2.554515869140625,-0.029342998862266538,0.07561349592152983,-0.006067191084474325
1772045993079500800,2.564500732421875,-0.02101706906557083,0.05064071150012314,0.03206091605145484
1772045993089486800,2.57448681640625,0.0739911188840866,0.0006242328455671668,0.06084723087903112
1772045993099472000,2.584471923828125,0.09826572844088077,0.05388206804152578,0.038344562898203725
1772045993109457700,2.594457763671875,0.07455635155141353,0.055853660375438624,0.004675225269421935
1772045993119442700,2.604442626953125,0.08290624674558639,0.018234050750918687,0.028013723019883034
1772045993129428700,2.6144287109375,0.023186229798197743,0.03910323577839881,0.03939637350607663
1772045993139413800,2.624413818359375,-0.03520867602527141,0.0430753908123821,0.02487926091905683
1772045993149399800,2.63439990234375,-0.03348492097258567,0.02850618271194398,0.01046900623999536
1772045993159385600,2.644385498046875,-0.03270516877174377,0.02625226630531251,-0.006942439549043774
1772045993169370600,2.65437060546875,0.004109773406386375,0.02213419999461621,-0.0243430351505056
1772045993179357000,2.66435693359375,0.04001695308983326,0.006734897745586932,-0.03329725291337818
1772045993189341700,2.674341796875,0.06592413228452206,0.014191424296610057,-0.030163886791095135
1772045993199327700,2.68432763671875,0.07659633294641971,0.0202121824234724,-0.015767697170004247
1772045993209312800,2.694312744140625,0.07216390345692635,0.02461995239574462,-0.005327953557111322
1772045993219298800,2.704298828125,0.03988485114276409,0.024482260958105323,0.002679886733740568
1772045993229283800,2.714283935546875,0.01611059232354164,0.023286292639188466,-0.0015059110509231686
1772045993239269600,2.72426953125,0.0267260943621397,0.03525814119018614,-0.013621698117256163
1772045993249254700,2.734254638671875,0.014292729246616363,0.0164823117127642,0.004186857230588793
1772045993259240700,2.74424072265625,0.0062087915122509,0.017075418767705557,0.022796974752284586
1772045993269226800,2.754226806640625,0.006486439409852027,0.015024514119885861,0.014322649460844696
1772045993279211800,2.764211669921875,-0.006696282768249511,0.0014420885670930147,0.005626790373213589
1772045993289197600,2.774197509765625,0.01276478902697563,0.0008825184555724262,0.00612136895712465
1772045993299182600,2.7841826171875,0.028208441874384878,0.0057466173605993385,0.0222927880898118
1772045993309169000,2.7941689453125,0.029615970584750174,-0.002065225434117019,0.05135357247721403
1772045993319153700,2.804153564453125,0.030604981622099875,-0.004192885112576187,0.06264770442973822
1772045993329139700,2.8141396484375,0.04461304870843887,0.0013153569148853421,0.04673522849418223
1772045993339124700,2.824124755859375,0.03497136013805866,0.013482581907510756,0.02024031253941357
1772045993349110800,2.83411083984375,0.034303251618146895,0.010714176640100777,0.015178060713782906
1772045993359095800,2.844095703125,0.036892683589458464,-0.006903568843379617,-0.018477029193937778
1772045993369081900,2.854081787109375,0.04363514358699321,-0.01464768016412854,-0.02844210449978709
1772045993379067600,2.864067626953125,0.05154080214500427,-0.009734298757277429,-0.014724069868586957
1772045993389052700,2.874052734375,0.04728197565674781,-0.023000680630840358,-0.02587188868559897
1772045993399038700,2.884038818359375,0.044807694497704505,-0.028413353329338132,-0.006308050635643303
1772045993409023700,2.894023681640625,0.0106225163012743,-0.023167817358672616,0.008150975088588893
1772045993419009800,2.904009765625,-0.02564472886621952,-0.01396846572831273,0.029862090832926333
1772045993428994600,2.91399462890625,-0.030316227808594703,-0.008745105056837201,0.029269129908457397
1772045993438980900,2.92398095703125,-0.03739420337080955,-0.0014116203635931015,0.04306746323425323
1772045993448966000,2.9339658203125,-0.02921148143708706,-0.009663023619353771,0.05483626349382102
1772045993458951700,2.94395166015625,-0.023578443986177443,-0.010382679663412272,0.03719966717939824
1772045993468936700,2.953936767578125,-0.017781740406155586,-0.0037754634181037545,0.0183286702318117
1772045993478922800,2.9639228515625,-0.010479892960190772,-0.00409954427331686,0.010727401447854935
1772045993488908800,2.97390869140625,0.02436754853725433,0.000711253541894257,0.011746515362523495
1772045993498893800,2.983893798828125,0.05310965889692306,0.006163892924599349,0.022490904477797447
1772045993508879600,2.993879638671875,0.058386722517013545,0.012056531159766017,0.01710680028665811
1772045993518865000,3.003864990234375,0.05785539211928844,0.017681275706365702,0.023434651601314544
1772045993528850700,3.0138505859375,0.03969078987538814,-0.002576316761411726,0.02715173589568585
1772045993538835700,3.023835693359375,0.03633855683803558,-0.0027164193518459797,0.017286906093917784
1772045993548822000,3.033822021484375,0.01381225225329399,-0.011186872185766696,0.0022111367108300327
1772045993558806800,3.043806884765625,-0.0022878186762332916,-0.031009763030707835,-0.006925378816388547
1772045993568792800,3.053792724609375,-0.021269582521915433,-0.042782326149940486,-0.017205292225070296
1772045993578777900,3.06377783203125,-0.03923018662631511,-0.04924469056446105,-0.018890395767800508
1772045993588764000,3.073763916015625,-0.02054945155382156,-0.04221654549334198,-0.026795652467012404
1772045993598749000,3.0837490234375,-0.025376433318853378,-0.017529957602173088,-0.02402425152491778
1772045993608734700,3.093734619140625,-0.013442834419012069,-0.005330730036087334,-0.014096841348335146
1772045993618720800,3.103720703125,0.010335516053438186,0.008700644860602914,-0.007634111607633531
1772045993628706000,3.1137060546875,0.03205634947419166,0.022985921453125772,-0.01946563837248832
1772045993638691800,3.12369189453125,0.05769347955584526,0.027393472229689356,-0.03457859796080738
1772045993648676900,3.1336767578125,0.04368716603517532,0.027736586578935383,-0.04179083089455962
1772045993658663000,3.143662841796875,0.024443536382913588,0.03601911562532186,-0.05468067107331007
1772045993668647700,3.153647705078125,0.03601882336437702,0.01758351442031562,-0.05539945033453405
1772045993678634000,3.163634033203125,0.04667758002281189,0.019193616498075425,-0.057749374461546536
1772045993688619000,3.173618896484375,0.04967734636068344,0.009397760279290377,-0.052988955126702784
1772045993698604800,3.183604736328125,0.05684592281579971,0.012101210551708937,-0.05174322938192635
1772045993708589800,3.19358984375,0.04514379458427429,0.01951061002537608,-0.04925269120782613
1772045993718575900,3.203575927734375,0.07444646143615245,0.007997793820872902,-0.040003180292807514
1772045993728562000,3.21356201171875,0.07727963903546332,-0.005793634840101003,-0.011610979349352419
1772045993738547000,3.223546875,0.04930149878561496,-0.009299743264913559,-0.0030554420478641985
1772045993748532700,3.23353271484375,0.01727612897157669,-0.008801255690865218,0.007207666356489062
1772045993758518000,3.24351806640625,-0.017167992421984673,-0.010054799415916204,0.0012638824559748172
1772045993768503800,3.25350390625,-0.020057868644595144,-0.0016220847764983773,0.009555398526415229
1772045993778488800,3.26348876953125,0.003989361897110939,0.004646437566354871,0.04388195795491338
1772045993788475000,3.273474853515625,0.02566694069802761,-0.0016084946425631642,0.057864196480251845
1772045993798459600,3.283459716796875,0.04466624020040035,0.009247720816731453,0.05047364783752709
1772045993808446000,3.293446044921875,0.03687514793276787,0.023091683382540938,0.020197752039320765
1772045993818431000,3.303430908203125,0.016219897916913032,0.03101999216377735,-0.0019535086879506705
1772045993828416800,3.313416748046875,0.010370002844929695,0.02507098409887403,-0.0012721388276666402
1772045993838402800,3.32340283203125,0.01606090796291828,0.014570194481126963,0.004685381337255239
1772045993848387800,3.333387939453125,0.024033202016353606,-0.02634798176474869,0.011947517827339469
1772045993858374000,3.343373779296875,0.00613338818848133,-0.05836388963069766,0.028107684913650153
1772045993868359000,3.35335888671875,-0.019253566524386406,-0.06204747351426631,0.05357179651595652
1772045993878344700,3.3633447265625,-0.026858780831098553,-0.04845503802411258,0.04397486040275544
1772045993888330000,3.373330078125,-0.03524491638243198,-0.03220679079554975,0.009305113559775055
1772045993898316000,3.38331591796875,-0.015977321332693098,-0.019369922913052142,0.0010402663005515931
1772045993908300800,3.39330078125,0.007446808874607086,-0.008603321965970098,-0.024733459240198135
1772045993918286800,3.403286865234375,0.0663058250784874,-0.017779621514305472,-0.03954813000168651
1772045993928272000,3.41327197265625,0.08042904297709465,-0.011495755471847951,-0.02001921713463962
1772045993938258000,3.4232578125,0.07647358334958552,-0.006363434084691107,-0.000713555096834898
1772045993948244000,3.433243896484375,0.05907587382495403,-0.0015965119438245891,-0.0012470043864101171
1772045993958228700,3.443228759765625,0.041105332848429675,-0.008757781875319778,0.008412913960404694
1772045993968214800,3.45321484375,0.01822071634531021,-0.005105908304266631,0.03239244956076145
1772045993978200000,3.463199951171875,-0.005252513700723648,-0.0012359350031241774,0.03713094932474196
1772045993988185900,3.473185791015625,-0.023496026399731636,-0.003904496625252068,0.03749291450493038
1772045993998171000,3.4831708984375,-0.00613689531981945,-0.013970876881107687,0.025496844828128813
1772045994008156700,3.49315673828125,0.00568330633342266,-0.025010449550673365,0.018310513520613313
1772045994018142000,3.503141845703125,0.004790741407871246,-0.04034826740343123,0.014348295358754693
1772045994028128000,3.5131279296875,0.021409867775440215,-0.04757606323249638,0.0036403657963499426
1772045994038112800,3.52311279296875,0.026350831308960914,-0.048864532140456135,0.006620367987826466
1772045994048098800,3.533098876953125,0.02065291192829609,-0.03241210410930216,-0.003599120470508933
1772045994058084900,3.5430849609375,0.038131285473704334,-0.04136668719835579,-0.00289268923420459
1772045994068070000,3.55306982421875,0.04212181641459465,-0.03543170765880495,-0.0015002484951168297
1772045994078056000,3.563055908203125,0.04355097243487835,-0.019103709724918008,0.010100319058075546
1772045994088040700,3.573040771484375,0.05080839621722698,-0.004394362501427531,0.01747077476084232
1772045994098026800,3.58302685546875,0.051772272813320155,0.0009335179904475807,0.015522344106808304
1772045994108012000,3.593011962890625,0.054685529911518094,0.005334675558842718,0.01532134164199233
1772045994117997800,3.602997802734375,0.05252162987589836,-0.008529270349070429,0.013295571435429155
1772045994127982800,3.61298291015625,0.05516659142673015,-0.01456288795750588,0.01863846683334559
1772045994137969000,3.622968994140625,0.04525251565575599,0.004387713564932346,0.027864962198957798
1772045994147953700,3.63295361328125,0.03819967453479767,-0.00040828853994607925,0.03225972655918449
1772045994157940000,3.64293994140625,0.03399462406039238,0.005273702619224787,0.04320084382295608
1772045994167925800,3.65292578125,0.04732523027658462,0.00613466683011502,0.0522066456425935
1772045994177910800,3.662910888671875,0.05678279445171356,0.018585238808766006,0.05472502167169004
1772045994187897000,3.67289697265625,0.0830278272986412,0.011869593752920626,0.05155413655061274
1772045994197881900,3.6828818359375,0.08609013747870922,0.010075111551582812,0.025062033607438205
1772045994207868000,3.692867919921875,0.07851239570081234,0.020048297098651528,0.027853527489490805
1772045994217853000,3.70285302734375,0.06015490123331546,0.01581632208470255,0.02272390951607376
1772045994227838700,3.712838623046875,0.07231003392934798,0.010924385324679315,0.01100037317033857
1772045994237824000,3.722823974609375,0.056332712596654885,0.005462941581010818,0.005314911412447691
1772045994247809800,3.732809814453125,0.04844108256399631,-0.013130370936356484,0.001447166601009667
1772045994257794800,3.742794921875,0.030686814686655996,-0.012269954714737831,-0.024628939419798553
1772045994267780900,3.75278076171875,0.019503741893172263,-0.01662635982595384,-0.0514937481328845
1772045994277765600,3.762765625,0.01922843208312988,-0.034862091077305375,-0.05422167525943369
1772045994287752000,3.772751953125,0.020762802043557165,-0.02735434579569846,-0.042783385595865545
1772045994297737700,3.78273779296875,0.006137479841709137,-0.02911649663001299,-0.03727401105724275
1772045994307722800,3.79272265625,0.01979132666289806,-0.03259049288351089,-0.02920388265252113
1772045994317709000,3.802708984375,0.015468787288665771,-0.026897615004144608,-0.03437094655949622
1772045994327693800,3.81269384765625,0.011560673934221267,-0.030607283177040517,-0.05021722539104521
1772045994337680000,3.822679931640625,0.003153495594859123,-0.01869874565321952,-0.07046272556222975
1772045994347665000,3.832664794921875,0.004465162715315819,-0.007133833935298025,-0.0636028497301042
1772045994357650700,3.842650634765625,0.02899754642546177,-0.021125644006580114,-0.03518467409517616
1772045994367636000,3.852635986328125,0.04951894092857837,-0.012790800251066685,-0.005490523707680404
1772045994377622000,3.8626220703125,0.045079497176408766,-0.023658779213391243,-0.002403261749446392
1772045994387607800,3.87260791015625,0.053066404277086254,-0.012435045615956186,-0.0005490121848881244
1772045994397592800,3.8825927734375,0.06539280188679694,-0.010271401308663188,-0.012241897664032875
1772045994407579000,3.892578857421875,0.060793199136853215,0.0031366905905306336,-0.03021616496760398
1772045994417564000,3.90256396484375,0.0668149436444044,0.0021067995535209772,-0.01929985335152596
1772045994427550000,3.912550048828125,0.07207739421725273,0.0005742927566170692,-0.012308715822547674
1772045994437534700,3.92253466796875,0.06312134982347488,0.0014148352339863777,-0.00765003982912749
1772045994447521000,3.93252099609375,0.0446031118363142,-0.010972791043668984,0.024174144857004285
1772045994457506000,3.942506103515625,0.020418518650531767,-0.010834186290577053,0.028685521334223446
1772045994467491800,3.952491943359375,-0.006143909582495689,-0.01103621166869998,0.024200704070366917
1772045994477476900,3.962476806640625,-0.017115969973802565,-0.012719853906705976,0.02875434878673404
1772045994487462700,3.972462646484375,-0.028234745359420773,-0.02381619826480746,0.04282137951869517
1772045994497449000,3.982448974609375,-0.029793665239214895,-0.020573343886062502,0.037053354043886065
1772045994507434000,3.99243408203125,-0.019094576570391653,-0.021430727900378404,0.01248367053065449
1772045994517420000,4.002419921875,0.00805354259610176,-0.02775660645365715,-0.008750329221226275
1772045994527405000,4.012405029296875,0.029352351212501526,-0.027669074300676583,-0.014673399127274752
1772045994537390800,4.022390869140625,0.031056232520937917,-0.018400456826388835,-0.0242107140077278
1772045994547375900,4.0323759765625,0.03531272092163563,-0.02231525564994663,-0.030214301804080603
1772045994557362200,4.042362060546875,0.04706628707945346,-0.027149288210272786,-0.023825294886715708
1772045994567347000,4.052346923828125,0.03232522954344749,-0.007935980631038547,-0.014292656181380151
1772045994577333000,4.0623330078125,0.04093289889097213,-0.011882051375694572,-0.01953059336747974
1772045994587318000,4.072318115234375,0.03980769425332546,-0.006802738817408681,-0.02997523235119879
1772045994597304000,4.082303955078125,0.03672258771955967,-0.012579933979362249,-0.03329239407517016
1772045994607289000,4.0922890625,0.023006197056174276,-0.019154124737903476,-0.03911109029129147
1772045994617275000,4.10227490234375,0.006268412744998932,-0.0085959058444947,-0.029984986560232935
1772045994627261000,4.112260986328125,-0.022895722419023514,-0.02035918967872858,-0.018986549618653953
1772045994637246000,4.122245849609375,-0.030663433811068532,-0.01967431268710643,-0.010854863752424716
1772045994647232000,4.13223193359375,-0.022873510587215422,-0.02637497936952859,0.0006529840160161256
1772045994657217000,4.142217041015625,-0.013731588232517241,-0.03498893232736736,0.022528971465863287
1772045994667203000,4.152203125,-0.002789338457584381,-0.03524835044853389,0.027279965385235843
1772045994677187800,4.162187744140625,-0.010396890851855278,-0.026663623585179447,0.029657763899862764
1772045994687174100,4.172174072265625,-0.0021375965505838392,-0.029146197648532688,0.03880016117859632
1772045994697159200,4.1821591796875,0.006296469795703887,-0.006747793759778142,0.031218766138888895
1772045994707145000,4.19214501953125,0.015327332991361617,-0.0025283129012212157,0.038356509064324196
1772045994717130000,4.2021298828125,0.04096797020435333,-0.002806581853330135,0.02917714077606797
1772045994727116000,4.212115966796875,0.047443888220191,0.014415223115123808,0.01429919552002102
1772045994737102000,4.22210205078125,0.048377369678020476,0.026167839424870908,0.009327106195874511
1772045994747087000,4.232087158203125,0.041675241690874096,0.02766845324616879,0.015843210091628132
1772045994757073000,4.242072998046875,0.03317629341483116,0.024315379958599805,0.01716967292241752
1772045994767058000,4.252057861328125,0.02018704798221588,0.022570362922176717,0.011985438684932887
1772045994777044000,4.2620439453125,0.014396774142980575,0.023702216496318578,0.01976005474179983
1772045994787029000,4.272029052734375,0.0153150580316782,0.02306618361510336,0.009592077274993062
1772045994797015000,4.28201513671875,0.034925182908773424,0.016018822386860847,-0.014133300901204347
1772045994806999800,4.291999755859375,0.02311667169332504,0.0111733916496858,0.00311816855315119
1772045994816986000,4.301986083984375,0.013704115703701973,-0.0035525048498064276,0.022355331932008265
1772045994826971100,4.31197119140625,0.01848082858622074,-0.011933379704132675,0.033662469496577974
1772045994836957000,4.32195703125,0.002737316009402275,0.005439743368513882,0.045408948326483366
1772045994846943000,4.33194287109375,-0.014210311660170553,0.0067230246447026725,0.02875723486356437
1772045994856928000,4.341927978515625,-0.001994388687610626,0.013236352061480283,0.0036576091920956966
1772045994866914000,4.3519140625,0.01216273148059845,0.01167538635507226,0.005551898506097495
1772045994876899000,4.361899169921875,-0.0023714053064584732,0.01784132510628551,0.026976050535216924
1772045994886884900,4.371884765625,0.019327800804376603,0.018023074881359933,0.04786211363226175
1772045994896870000,4.381869873046875,0.026516251003742216,0.02848408047799021,0.0667440703652799
1772045994906856000,4.39185595703125,0.05631985311508178,0.029522008690983054,0.0569059459073469
1772045994916841000,4.401841064453125,0.06548340277969837,0.033956410941854115,0.040602717088535425
1772045994926827000,4.411826904296875,0.06612403877079487,0.031122648820653555,0.024264015097543595
1772045994936812000,4.42181201171875,0.062417585468292236,0.03459434351921081,-0.00008420768473297357
1772045994946798000,4.431798095703125,0.053740358015894885,0.029852044362947344,-0.021999942623078823
1772045994956784000,4.4417841796875,0.028422961407899856,0.02935341065842658,-0.017248802573233843
1772045994966769000,4.451768798828125,0.009520108017325401,0.015916056132130325,0.0028219620855525133
1772045994976755000,4.4617548828125,-0.0020557634860277176,0.010083915912546216,0.028998057882115243
1772045994986740000,4.471739990234375,-0.012424012765288352,0.027436398055963217,0.05162351199239492
1772045994996726000,4.48172607421875,-0.013798808249831198,0.029824900627695022,0.05614340056963264
1772045995006711000,4.4917109375,-0.029367548781633376,0.026458456401899456,0.05707640710342675
1772045995016696800,4.50169677734375,-0.022482465443015097,0.03971592431664467,0.06723280373029411
1772045995026681900,4.511681884765625,-0.014701310047507285,0.038471258017793296,0.05805263172443956
1772045995036668200,4.521668212890625,-0.004675006073713303,0.032894663461856544,0.04681340829692781
1772045995046653000,4.53165283203125,0.006384148079156876,0.03729509037788957,0.020849676609411835
1772045995056639000,4.541638916015625,0.025508535265922543,0.0320714739780873,-0.0018600947834551333
1772045995066624800,4.551624755859375,0.05031739782989025,0.018305398954078553,-0.01282101272623986
1772045995076610000,4.561610107421875,0.07274608725905418,0.021577479427307842,-0.003182685156725347
1772045995086596000,4.57159619140625,0.07139934882521629,0.021288981342129407,0.0047679085215553635
1772045995096580900,4.581580810546875,0.06542670415639877,0.02411404870022088,0.008879618156701326
1772045995106567000,4.59156689453125,0.06439736110866069,0.030738910200074313,-0.00296458542663604
1772045995116552000,4.601552001953125,0.0688935034841299,0.03163216924536973,-0.016970058697089552
1772045995126538000,4.6115380859375,0.060380526682734484,0.022044439351931212,-0.021273856838233768
1772045995136523000,4.62152294921875,0.04346855484843254,0.023774697210639715,-0.026507483175396918
1772045995146509000,4.631509033203125,0.056314592418074606,0.016150778203457592,-0.04051083755400032
1772045995156493800,4.641493896484375,0.045675124981999396,0.00017389526218175886,-0.027917313440702855
1772045995166480100,4.651480224609375,0.02921148143708706,-0.0038165260808542367,-0.0017865180905908345
1772045995176466000,4.6614658203125,0.0075087681949138636,-0.004208667203597724,0.002461129416525364
1772045995186451000,4.671450927734375,-0.004469838890433312,-0.011313932631537318,-0.00007142126839607954
1772045995196437000,4.68143701171875,-0.03410509869754314,-0.01117123622521758,0.00960212374497205
1772045995206422000,4.691422119140625,-0.03756137663125991,-0.0010667159160599113,0.012385872711986302
1772045995216408000,4.701407958984375,-0.02202186219394207,0.0006130538644269108,0.0049742812812328336
1772045995226393000,4.71139306640625,-0.025330840611457822,0.009130889504030347,-0.003941869493573904
1772045995236379000,4.72137890625,-0.005143208107352256,0.016992416659370065,-0.003979534622840583
1772045995246364000,4.731364013671875,0.0243254629611969,0.008923859157226979,-0.009517696864530443
1772045995256350000,4.741349853515625,0.04228840515315532,0.006066423899494112,-0.014438202131912112
1772045995266335000,4.7513349609375,0.048447512304782864,0.00802592393681407,0.002317958086170256
1772045995276321000,4.761321044921875,0.051913142588734626,0.011156842373684047,-0.026446035311743617
1772045995286305800,4.771305908203125,0.03906593597531319,0.003274455093406141,-0.027536680092662573
1772045995296292000,4.7812919921875,0.01573942092359066,0.014966281126625834,-0.0292387713028118
1772045995306278000,4.79127783203125,0.029215573090314865,0.007747106995433568,-0.035442375183291734
1772045995316263000,4.801262939453125,0.028010873475670814,0.004270663056522608,-0.04677925029899925
1772045995326249000,4.8112490234375,0.02784545378088951,0.0021942586412653326,-0.04470299201421439
1772045995336234000,4.82123388671875,0.01810088935792446,0.004926350486278533,-0.03698006961196661
1772045995346220000,4.831219970703125,0.02361176173388958,0.007979783240146934,-0.018409297719970345
1772045995356205000,4.841205078125,0.03599251987934112,0.003499094162136316,-0.006262202199921012
1772045995366190800,4.85119091796875,0.02262567330598831,0.004742664482444524,-0.005002740190736949
1772045995376175900,4.86117578125,0.01869301003217697,0.0072592869458720085,-0.016639219307526945
1772045995386162000,4.871161865234375,0.009089315384626389,0.005068681566417217,-0.025757578123547134
1772045995396148000,4.88114794921875,0.006999649628996849,0.0002399097030982375,-0.013980996416322887
1772045995406133000,4.891133056640625,0.0194148945659399,0.0025034341882914303,0.011492613666690885
1772045995416119000,4.901119140625,0.03963642933964729,-0.0013175488719716667,0.048230398955382406
1772045995426104000,4.91110400390625,0.0492693500816822,-0.004111307776346803,0.053720009347610176
1772045995436090000,4.921090087890625,0.047993338796496386,0.0018836217895150183,0.048238363066129386
1772045995446075000,4.931074951171875,0.045962125229835504,0.004056581914424896,0.035893954875692725
1772045995456061000,4.94106103515625,0.049448798301815984,0.01331909844148904,0.004486388166435063
1772045995466046200,4.951046142578125,0.043486090505123136,0.023739735495112834,-0.0065470104906708
1772045995476032000,4.961031982421875,0.04138531883358955,0.018225794379226862,-0.01582772026155144
1772045995486017000,4.97101708984375,0.02624211023747921,0.020498159758001566,-0.008195289154350758
1772045995496002800,4.9810029296875,0.025007600006461142,0.015542729307711124,0.01773607463352382
1772045995505987800,4.99098779296875,0.027374329137802123,0.016795505847781896,0.034618820373341436
1772045995515973600,5.0009736328125,0.014503157126903534,0.012445019020698963,0.03423058824073523
1772045995525959700,5.010959716796875,0.01109480998814106,0.01582198464050889,0.040875177354365584
1772045995535944700,5.02094482421875,0.002478372812271118,0.0117620782578364,0.04230301820039749
1772045995545930800,5.0309306640625,-0.017205401822924613,0.012083163438364863,0.06970876538977026
1772045995555915500,5.04091552734375,-0.036436756515502926,0.0045282180141657585,0.055978419266268606
1772045995565901600,5.050901611328125,-0.032493571847677226,-0.0020590514216572045,0.04066244791913777
1772045995575886800,5.060886962890625,0.022604630517959592,-0.0030128450151532885,0.027228052534908054
1772045995585872600,5.07087255859375,0.03804652979969978,-0.019297405666112898,-0.002225822823308408
1772045995595857700,5.080857666015625,0.05767711294293403,-0.008890322213806211,0.012933204396441578
1772045995605843500,5.090843505859375,0.05381693038344383,-0.00529796027764678,0.02226619234383106
1772045995615828500,5.100828369140625,0.058037762948870655,-0.0014176482455804944,0.011838541027531027
1772045995625814800,5.110814697265625,0.052824996736645695,0.015383410560153424,0.03524389346912503
1772045995635800600,5.120800537109375,0.03758008133172989,0.03309223186057061,0.011465360333584248
1772045995645785600,5.13078564453125,0.035492753663659095,0.016815708385594187,-0.0026106939550489187
1772045995655771600,5.140771728515625,0.034436522608995435,0.009952069693803786,-0.000027691724523901936
1772045995665756700,5.150756591796875,0.023348726883530617,0.0115777711994946,-0.00919105872604996
1772045995675742700,5.16074267578125,0.02049041484296322,0.006868607127852738,0.00418568818680942
1772045995685727500,5.1707275390625,0.03410451417565345,-0.006708667325787246,0.014153320775926112
1772045995695713500,5.180713623046875,0.019744564911723137,-0.008909465305693446,0.013893537328578532
1772045995705698800,5.19069873046875,-0.0012087912678718567,-0.005257336006313562,0.016680135839805005
1772045995715684600,5.2006845703125,0.0022299510091543196,-0.011579269036836922,0.019542904859781263
1772045995725669600,5.210669677734375,-0.021706220373511314,-0.018678725778497756,0.016371471749432383
1772045995735655400,5.220655517578125,-0.0273883576631546,-0.015099259856529533,0.02771192706171423
1772045995745641700,5.230641845703125,-0.0059796589314937585,-0.01886643037032336,0.023209866402111947
1772045995755626800,5.240626708984375,0.008849661409854888,-0.00832965612374246,0.01686433330029249
1772045995765612500,5.250612548828125,0.0009404957205057144,-0.016529256127029657,0.0020064809842035175
1772045995775597600,5.26059765625,0.0061871642023324964,-0.012473441397584974,-0.004557407576031983
1772045995785583600,5.27058349609375,0.015908347749710082,-0.0013249649934470654,-0.013449739083833992
1772045995795568600,5.280568603515625,0.020675123760104178,0.000457717172242701,-0.027898060750961302
1772045995805554700,5.2905546875,0.012720365363359451,0.009948526029847561,-0.04217372926492244
1772045995815539700,5.300539794921875,0.024976035824418066,0.009546192306652665,-0.053935296066105365
1772045995825525500,5.310525390625,0.04038286379277706,0.017677110987901687,-0.04327628367934376
1772045995835510800,5.3205107421875,0.049962008520960804,0.029977095514722166,-0.05046681623794138
1772045995845495800,5.330495849609375,0.05204992071092129,0.023338972674496472,-0.0679240373974666
1772045995855481600,5.340481689453125,0.05802431894540786,0.016780052550323308,-0.07033698029071092
1772045995865467600,5.350467529296875,0.05202770887911319,0.01741539131179452,-0.05076320536863058
1772045995875452400,5.360452392578125,0.023584873726963995,0.014957915157079695,-0.041485564337670804
1772045995885438700,5.370438720703125,0.01532324133813381,-0.00282700358685106,-0.03304864844717085
1772045995895423700,5.380423828125,0.0006260229438543319,0.0010113324670121074,-0.0225986026359722
1772045995905409500,5.390409423828125,-0.0033154081583023068,0.011633446909487246,-0.04168890489004552
1772045995915394600,5.40039453125,-0.0011263736814260481,0.01625716118738055,-0.057034650320932266
1772045995925380600,5.410380615234375,0.012752514067292213,0.02287120903227478,-0.0505033853886649
1772045995935365600,5.42036572265625,0.03593991290926933,0.0222880753820762,-0.006836933347955346
1772045995945351700,5.4303515625,0.05391571458280086,0.009691701724566518,0.030582696725055574
1772045995955336400,5.44033642578125,0.06175590668916702,0.015655615097656846,0.039427499296702445
1772045995965322800,5.45032275390625,0.06228372995555401,0.01006327498331666,0.03585376899577677
1772045995975307800,5.460307861328125,0.05054711493253707,-0.001613645741716027,0.020556685012206435
1772045995985293600,5.47029345703125,0.03849661165475845,0.010779058569855988,0.0041994975164532655
1772045995995279600,5.480279541015625,0.032095512440800666,0.0030781653363257644,-0.02353676026891917
1772045996005264600,5.4902646484375,0.015791443371772764,-0.00024144407305866478,-0.027104097361676394
1772045996015250700,5.500250732421875,0.011139818173646926,0.007631042867712676,-0.009185085642989725
1772045996025235700,5.510235595703125,0.008268062129616737,-0.002551620711572468,0.009931465297192335
1772045996035221500,5.520221435546875,0.012426935374736785,0.006805259568057954,0.010210464901663363
1772045996045206500,5.53020654296875,0.007628595182299613,0.01217887889780104,0.01882781539298594
1772045996055192800,5.54019287109375,0.0005973813712596892,0.010590550260432064,0.04138754732329398
1772045996065177600,5.550177490234375,0.00405599739253521,0.005570676271803677,0.04679214631319046
1772045996075163600,5.56016357421875,-0.023141221612691876,0.00915569515172392,0.058590391862951216
1772045996085149400,5.5701494140625,-0.011743044763803482,0.020334457096271217,0.05897623110907152
1772045996095134700,5.580134765625,0.018946692532300947,0.0044749169243499635,0.017457093295361846
1772045996105120800,5.590120849609375,0.034061844077706335,0.015317542249709366,0.000147628309763968
1772045996115105500,5.60010546875,0.04709025247693061,0.020546017487719653,0.003801730370521545
1772045996125091600,5.610091552734375,0.07777531359791755,0.010354366884380578,-0.014890366346202789
1772045996135076600,5.62007666015625,0.09798749602138995,0.00901047799475491,-0.011105166985373944
1772045996145062700,5.630062744140625,0.08753916724324226,0.017628339942730963,-0.0013890614719130098
1772045996155047700,5.640047607421875,0.07097030975818634,0.020591683260351417,0.009239080852549523
1772045996165033500,5.650033447265625,0.05260287841856479,0.017897914131730794,0.008891198996640742
1772045996175018500,5.6600185546875,0.03423310899138451,-0.002899666964262724,-0.0063437064709141846
1772045996185004800,5.6700048828125,-0.001225157880783081,-0.005905826510302722,-0.002941241083666682
1772045996194989600,5.679989501953125,0.00653729281425476,-0.015881971199437975,-0.003535608513932675
1772045996204975600,5.6899755859375,0.003655599898099899,-0.0169177074553445,0.003136854987312108
1772045996214961400,5.69996142578125,-0.004473930543661117,-0.029696305811963974,0.009573262976668774
1772045996224946400,5.709946533203125,-0.00841302355825901,-0.03187763190641999,0.02588515002597123
1772045996234932700,5.7199326171875,0.009957330390810966,-0.01894778851084411,0.045335481231473386
1772045996244917500,5.72991748046875,0.02775777549743652,-0.00979026672821492,0.06144563516359776
1772045996254903600,5.739903564453125,0.03390694577693939,-0.0026691096113994717,0.0679531538940966
1772045996264888600,5.749888671875,0.0203168118417263,0.02170888725463301,0.06339457727428525
1772045996274874600,5.75987451171875,-0.005839373677968979,0.038729470562562346,0.0565433962052688
1772045996284860700,5.769860595703125,-0.010893734458088875,0.028322021784074603,0.03865264246668666
1772045996294845700,5.779845703125,-0.01057107837498188,0.02161985726431012,0.02388904430530965
1772045996304831500,5.78983154296875,0.004701309558749199,0.016453304813988507,0.0027126747584901747
1772045996314816800,5.799816650390625,0.014877835658192633,-0.007055727197788656,0.002141889133211225
1772045996324802600,5.809802490234375,0.03582183948755264,-0.012907814226858317,-0.001051956738345325
1772045996334787600,5.81978759765625,0.036113515910506246,-0.010749211420863866,-0.011276523230597376
1772045996344773600,5.829773681640625,0.044642859324812885,-0.012338161112740635,-0.016925196642056106
1772045996354758400,5.83975830078125,0.05272855062484741,-0.020184088840149342,-0.003060520081780851
1772045996364744700,5.84974462890625,0.052291328251361846,-0.022982487387023864,-0.005943637770041823
1772045996374729700,5.859729736328125,0.06501636978983878,-0.020028971343673766,-0.019578706825524567
1772045996384715500,5.869715576171875,0.07280687753558159,-0.021681122464872894,-0.017061974764242767
1772045996394701800,5.879701904296875,0.05097790756523609,-0.01949435301031917,-0.00415726580992341
1772045996404686600,5.8896865234375,0.04859890347421169,-0.013818097472190856,0.003929046544618904
1772045996414672600,5.899672607421875,0.035443069303035736,-0.01225683950483799,0.014537826581485568
1772045996424657700,5.90965771484375,0.018985270977020262,-0.005409969284757971,0.00783825587760657
1772045996434643500,5.9196435546875,-0.00467032989859581,-0.010013700220547615,-0.000161656835116446
1772045996444628700,5.929628662109375,0.0011298808127641678,-0.0023006781578063964,-0.020643669175915418
1772045996454614500,5.939614501953125,-0.003392565047740936,-0.0015886208983138203,-0.021562537586502728
1772045996464599600,5.949599609375,0.011857026532292366,0.017087547596916556,-0.001361607209406793
1772045996474585600,5.959585693359375,0.02280336796045303,0.0077076517678797245,0.02693652224242687
1772045996484570600,5.969570556640625,0.03003565730154514,0.006465031295642257,0.04071194961667061
1772045996494556700,5.979556640625,0.03085048081576824,-0.0032522432615980502,0.0437133599223569
1772045996504542500,5.98954248046875,0.027772388544678686,0.00047744478601962324,0.013256627664528786
1772045996514527500,5.999527587890625,0.039214404535293575,-0.011307758619077502,-0.007404723298549651
1772045996524514300,6.009514404296875,0.04554594564437866,-0.022043379906006157,-0.002145122269913554
1772045996534499000,6.0194990234375,0.06263736569881438,-0.011478913934901356,-0.012371771121397614
1772045996544485400,6.0294853515625,0.0663970104932785,-0.01822732874918729,-0.023760814815759656
1772045996554470400,6.039470458984375,0.04783551788628101,-0.013699384729657321,0.00032225422430783506
1772045996564456200,6.049456298828125,0.030926468661427495,-0.005891487457696348,0.006815123374946415
1772045996574441200,6.059441162109375,0.0028039515048265454,-0.002467011168040335,0.009076821229234337
1772045996584427300,6.06942724609375,-0.02066284880042076,-0.00010473901610821485,0.021279044470004737
1772045996594412300,6.079412353515625,-0.03667348788082599,-0.012443064525630324,0.03875091520939022
1772045996604398300,6.0893984375,-0.049694882017374035,0.01164015064490959,0.014859678946994245
1772045996614384000,6.099384033203125,-0.03294306918084621,0.002315930525865406,0.03414923010021448
1772045996624369400,6.109369384765625,0.01239887832403183,-0.0029676724328659473,0.03041490241009742
1772045996634355200,6.119355224609375,0.03097381493449211,-0.0034030316428281366,0.02057973709423095
1772045996644340200,6.12934033203125,0.047475452402234074,-0.008114150209538639,0.03516030683889985
1772045996654326300,6.139326171875,0.050368835756182666,-0.016798464989848435,0.038714601786993444
1772045996664311300,6.149311279296875,0.05131868382692337,-0.015680822604149578,0.035953539575822646
1772045996674297300,6.15929736328125,0.054361704784631724,-0.010704787757247685,0.03687730335723609
1772045996684282400,6.169282470703125,0.054708910787105554,-0.007113174739759415,0.029895810439437627
1772045996694268200,6.17926806640625,0.06418401061892509,-0.0032714046197943386,0.03798738349098712
1772045996704253200,6.189253173828125,0.05016366857290268,0.0035670630981214342,0.024163166805263606
1772045996714239200,6.1992392578125,0.05213759899437427,-0.004357884682249277,0.0065676879525184625
1772045996724225300,6.209225341796875,0.055448915499448775,-0.01427185085536912,0.004495101195853203
1772045996734210300,6.219210205078125,0.03301204276382923,-0.019711904751136898,0.008958674742281436
1772045996744196000,6.229196044921875,0.020295769053697586,-0.010386588653549552,0.010353417036309837
1772045996754181400,6.239181396484375,0.013854922351241111,-0.014194054645113646,0.013420914848148823
1772045996764167400,6.24916748046875,0.0033639234751462934,-0.022625581974443046,0.0137981506627053
1772045996774152200,6.259152099609375,0.012006664136052132,-0.021879458048567176,0.016276925333775578
1772045996784138200,6.26913818359375,0.010047931283712386,-0.022767200668528675,0.022958302793838082
1772045996794123300,6.279123291015625,0.013646832558512687,0.005706833339482546,0.025406536196172235
1772045996804109300,6.289109375,0.012925532546639442,0.0032690482659265396,0.03614785657152533
1772045996814094300,6.29909423828125,0.013869535398483275,-0.0011654818491078913,0.03623655776828527
1772045996824080100,6.309080078125,0.002991583031415939,0.010625457177031785,0.020625622062571347
1772045996834066400,6.31906640625,-0.001450198808312416,-0.0034339930366724726,0.008525288293696939
1772045996844051500,6.329051513671875,0.018644494715332985,-0.005574000740051269,0.0020918942453339697
1772045996854037200,6.339037353515625,0.026902035450935363,-0.013473046894185244,-0.006293254925310611
1772045996864022300,6.349022216796875,0.038430560681223865,-0.012753938839398325,-0.02752378407847136
1772045996874008000,6.359008056640625,0.06794891611039638,-0.014066062617581337,-0.02976144347004592
1772045996883993300,6.368993408203125,0.06634557256698607,-0.014167805959004909,-0.020651487156189977
1772045996893979400,6.3789794921875,0.05157236632704734,-0.012324388315714896,-0.034316476425901056
1772045996903964200,6.388964111328125,0.05205576592981815,-0.016499482043273745,-0.04341828596591949
1772045996913950200,6.3989501953125,0.037865912535786625,-0.015561854133289307,-0.030300701445899903
1772045996923935200,6.408935302734375,0.014244798451662063,-0.01926573188621551,-0.021814576118811962
1772045996933921300,6.41892138671875,0.003931494230031967,-0.025002668103016913,-0.002401946575194597
1772045996943907300,6.4289072265625,-0.007582417953014373,-0.03252931901449337,0.006248283272422849
1772045996953892400,6.438892333984375,-0.016274258452653883,-0.03406204500710591,-0.010164251139760017
1772045996963878400,6.44887841796875,-0.009127309307456016,-0.015944642905797807,-0.03459770452007651
1772045996973863400,6.458863525390625,0.003996376159787178,-0.014016542653739451,-0.04810987784825265
1772045996983849200,6.46884912109375,0.026859365352988242,-0.004377594029717147,-0.02476301412824541
1772045996993834200,6.478834228515625,0.03164659962952137,0.0009491356846876442,0.007666771768219768
1772045997003820300,6.4888203125,0.0499228455543518,-0.013735314559563994,0.012083455699309706
1772045997013805300,6.498805419921875,0.06942775649130344,-0.011068433437868952,0.023811010633036492
1772045997023791400,6.508791259765625,0.0627542700767517,-0.0014558065651915967,0.03463515045363456
1772045997033776400,6.5187763671875,0.037979309782385826,-0.0073078753279522055,0.02192647552806884
1772045997043762200,6.52876220703125,0.016921324184536932,-0.0017745901907794176,-0.011757438615337014
1772045997053748500,6.53874853515625,0.021870471024513245,-0.015132796799950301,-0.023851525306515395
1772045997063733200,6.548733154296875,0.04727320782840252,-0.007858348817564547,-0.03370868325848132
1772045997073719300,6.55871923828125,0.054546413701772684,-0.012186021024640649,-0.023843488130532203
1772045997083704300,6.568704345703125,0.04235971682369709,-0.0072961483575403685,0.007974193749576806
1772045997093690400,6.5786904296875,0.029288053804636,-0.013525580799020826,0.01861936027407646
1772045997103675400,6.58867529296875,0.00710895522236824,-0.014576258895732462,0.01683879700023681
1772045997113661200,6.5986611328125,-0.002644377028942108,-0.013699055936094372,0.030470249326527116
1772045997123646200,6.608646240234375,0.002280219891667366,-0.00795510545661673,0.028711824819259345
1772045997133632300,6.61863232421875,-0.004295651367306709,0.0029832170618698,0.03801105662751943
1772045997143617300,6.6286171875,-0.012957096728682517,-0.005541450177319347,0.033074805801734324
1772045997153603300,6.638603271484375,-0.008145897054672242,-0.004503869024198502,0.005021298760734498
1772045997163589000,6.648589111328125,0.006693944680690765,0.011442563979886472,-0.001896298607997596
1772045997173574100,6.65857421875,0.02661854233443737,0.02696730097318068,-0.010872801267914473
1772045997183560400,6.668560546875,0.042806876069307324,0.028853041654545813,-0.0053606502503156656
1772045997193545200,6.678545166015625,0.04808043255805969,0.034024653872475025,0.0030117855692282317
1772045997203531300,6.68853125,0.06382336061298848,0.030260442500747737,-0.012665237642638385
1772045997213516300,6.698516357421875,0.06564999151825904,0.019122688420023768,-0.009461619295738638
1772045997223502300,6.70850244140625,0.06118249071538448,0.015022358695417641,-0.0074219301616773
1772045997233487400,6.7184873046875,0.060601475957036015,0.0010606697677634656,-0.025061485618166623
1772045997243473400,6.728473388671875,0.053422378107905386,-0.01583840605234727,-0.02525108990613371
1772045997253458200,6.738458251953125,0.03112929775714874,-0.01730705383280292,-0.007593560401536524
1772045997263444200,6.7484443359375,0.021240940949320792,-0.012973481607902794,-0.004985314131900668
1772045997273430300,6.75843017578125,0.0023778350472450256,-0.020602533447928725,0.01000920670852065
1772045997283415300,6.768415283203125,-0.00376665905714035,-0.021717125360015778,0.004672266127355397
1772045997293401300,6.7784013671875,-0.02113338892161846,-0.02200642716279253,-0.0009879150588065384
1772045997303386000,6.78838623046875,-0.01604746395945549,-0.01676447138870135,0.0011623217776417733
1772045997313372400,6.798372314453125,-0.013062310668826103,-0.0022755254502408204,-0.006500102609023451
1772045997323357400,6.808357421875,-0.005293430233001709,0.003419087728485465,-0.007756751606613397
1772045997333343200,6.81834326171875,0.01025602107644081,0.018109949447214602,0.0028473887877538797
1772045997343328300,6.828328369140625,0.02580897951722145,0.014063888926804064,-0.0017141469741240143
1772045997353314300,6.838314208984375,0.023704700714349745,0.013476572291832417,-0.00789279907643795
1772045997363299300,6.84829931640625,0.05213409186303615,0.01863439344642684,-0.012572810118831693
1772045997373285400,6.858285400390625,0.04555471347272396,0.02571156529104337,-0.00734152186922729
1772045997383271200,6.868271240234375,0.03972469214498996,0.025506836499180643,-0.0021934914562851187
1772045997393256200,6.878256103515625,0.05545183810889721,0.01578620094107464,-0.006842120979726314
1772045997403242200,6.8882421875,0.05517886638641357,0.006328307972382753,-0.0022900106333196162
1772045997413227300,6.898227294921875,0.05894260283410549,0.0030526107699610293,-0.013315006788261235
1772045997423213300,6.90821337890625,0.03845218799114227,-0.005257409071549773,-0.028961817524954674
1772045997433198300,6.9181982421875,0.01825286504924297,-0.006325367096625268,-0.025935199712775647
1772045997443184400,6.928184326171875,-0.0003021978169679642,-0.01656275653783232,0.0061314519597217435
1772045997453169400,6.93816943359375,-0.0218418294519186,-0.016693506778031587,0.026051592634059487
1772045997463155200,6.9481552734375,-0.03142389678955078,-0.010656071511004119,0.02827778078354895
1772045997473140200,6.95814013671875,-0.025457681861519813,-0.00845994970621541,0.028265067432448266
1772045997483126500,6.96812646484375,-0.00005786766707897186,-0.0005563187085092067,-0.012599807723611592
1772045997493112300,6.9781123046875,0.03178103966414928,0.0016447167334146797,-0.021566629239730534
1772045997503097300,6.988097412109375,0.028760230538249013,0.012594784488622099,0.0013289835814386606
1772045997513083100,6.998083251953125,0.0435749378323555,0.015416655242629348,0.01998896812684834
1772045997523068400,7.008068359375,0.035971477091312404,0.021606102733593435,0.028515973453596234
1772045997533054500,7.018054443359375,0.039004561176896095,0.017435612115915863,0.026338483284041283
1772045997543039200,7.028039306640625,0.034409050080180165,0.005347480241488665,0.016658179736323653
1772045997553025500,7.038025634765625,0.03235153302848339,0.004912413292471319,0.006010894319973886
1772045997563010600,7.048010498046875,0.030124504628777502,0.0035994309977628288,-0.01079798246603459
1772045997572996400,7.057996337890625,0.03805354406237602,-0.0001844714551232755,-0.0209372087623924
1772045997582981400,7.0679814453125,0.030703765821456907,-0.006671842446736991,-0.021660992992296815
1772045997592967200,7.07796728515625,0.01990647747516632,-0.012254026493243872,-0.001875949939712882
1772045997602952400,7.087952392578125,0.010751695638895034,-0.010467216141708195,0.01991878896746784
1772045997612938500,7.0979384765625,0.0017529811471700667,-0.011118355260509997,0.020641148425266147
1772045997622924300,7.10792431640625,-0.01831131723821163,-0.008558131117373705,0.021164880038425326
1772045997632909300,7.117909423828125,-0.04720540328919887,-0.012191208656411618,0.018789383078739046
1772045997642895400,7.127895263671875,-0.04228022184669971,-0.009079360246192663,0.03272106046061963
1772045997652880400,7.13788037109375,-0.04603694403171539,-0.004703355385363102,0.042663412478007375
1772045997662866400,7.147866455078125,-0.048157004925608635,0.002482208737172186,0.027368410853669044
1772045997672851200,7.157851318359375,-0.010346037447452544,0.010516206382587552,0.011154248557798565
1772045997682837500,7.16783740234375,0.02445873395204544,0.010401000771392136,0.01374744338877499
1772045997692822500,7.177822509765625,0.055986091116070745,0.027301428298372774,0.02312401474956423
1772045997702808300,7.187808349609375,0.07885317196249961,0.041472376062534747,0.028473522551357745
1772045997712793300,7.19779345703125,0.08303425703942775,0.03572592309871688,0.023536796801537273
1772045997722779400,7.207779296875,0.07883914343714714,0.04583968616025522,0.02414374971874058
1772045997732765400,7.217765380859375,0.07524842546880245,0.0472055859522894,0.018459676200337706
1772045997742750500,7.22775048828125,0.08512684540450573,0.03733153166444972,0.017015432208776472
1772045997752736300,7.237736328125,0.057445642274618146,0.042869438177812844,0.021117424167506397
1772045997762721300,7.24772119140625,0.03529167813360691,0.03238738979315385,0.012477861844375729
1772045997772707600,7.25770751953125,0.029288638326525687,0.019358798730839042,0.009044489862211048
1772045997782692400,7.2676923828125,0.02402560323178768,0.015124613493494688,0.015030542001873254
1772045997792678400,7.277678466796875,0.02550093648135662,0.01510565306469798,0.004907755383662879
1772045997802663400,7.287663330078125,0.027277883026003837,0.006833627146016806,0.01431066676210612
1772045997812649200,7.297649169921875,0.009597849428653717,0.004764876314252615,0.013626228161901234
1772045997822634500,7.307634521484375,0.0019347674548625944,0.01798228621324524,0.006422763056494295
1772045997832620300,7.317620361328125,-0.012159224349260329,0.01275194781171158,0.006592968524247408
1772045997842606300,7.3276064453125,-0.02520809101462364,0.013218122285045682,0.01397818340472877
1772045997852591400,7.33759130859375,-0.012218261060118675,0.024323070074710993,0.012570873890072106
1772045997862577400,7.347577392578125,0.008263385954499243,0.03427152303932234,0.01393708420936018
1772045997872562400,7.3575625,0.037431028249859805,0.03732754960907623,0.003676460023038089
1772045997882548200,7.36754833984375,0.06541092206537723,0.041628845265880225,0.002757482014596462
1772045997892533200,7.377533203125,0.06407002885043621,0.051502041037194426,0.006937324982509017
1772045997902519600,7.38751953125,0.0721609808474779,0.042971546845417465,-0.0011263736814260481
1772045997912504300,7.39750439453125,0.07950783647894859,0.039107674491498615,-0.00303472805339843
1772045997922490400,7.407490478515625,0.079529463788867,0.03836514902850613,-0.003386975557170808
1772045997932475400,7.417475341796875,0.0657914458155632,0.03101884138630703,0.0021583105450496075
1772045997942461200,7.427461181640625,0.06462766273319721,0.03519431870635599,-0.020372743280045687
1772045997952447500,7.437447509765625,0.06645312459468841,0.0213942318148911,-0.02357424273509532
1772045997962432500,7.4474326171875,0.045081250742077826,0.014766118912026286,-0.0004052198000252247
1772045997972418300,7.457418212890625,0.023563246417045592,0.01489367254814133,0.03248688637856394
1772045997982403300,7.4674033203125,0.012069792500138283,0.012241221810597926,0.035638555342517794
1772045997992389400,7.477389404296875,-0.0016875146955251693,0.019980912684556096,0.02565196232460439
1772045998002374400,7.48737451171875,-0.008135960182547568,0.010526033656857907,0.0005848141506314277
1772045998012360400,7.4973603515625,-0.002326397120952606,0.011270093489810824,-0.023212496750615534
1772045998022345200,7.50734521484375,0.00963818143904209,0.015897844622004775,-0.026649631592445076
1772045998032331500,7.51733154296875,0.017884616258740424,0.01856319137373939,0.010278890495374797
1772045998042316500,7.527316650390625,0.023176292926073074,0.013369166394602507,0.045479712007753546
1772045998052302300,7.53730224609375,0.032384266254305835,0.002627298029977828,0.03868943081311881
1772045998062288400,7.547288330078125,0.0055395139485597605,-0.006329422217234969,0.03201857474707067
1772045998072273200,7.557273193359375,0.0002291325807571411,-0.01487524184230715,0.008703421339578927
1772045998082259500,7.567259521484375,0.018091537007689475,-0.004284180125221609,-0.026644261297583578
1772045998092244500,7.577244384765625,0.028143559944629668,-0.006517930526658893,-0.04877612320464104
1772045998102230300,7.587230224609375,0.03353109820187092,-0.019805665715504437,-0.04716664218138903
1772045998112215300,7.59721533203125,0.028709961655735968,-0.025354769476316867,-0.02959744854737073
1772045998122201300,7.607201416015625,-0.003039513826370239,-0.021945271560084075,-0.008418320787884294
1772045998132186400,7.617186279296875,-0.023725743502378462,-0.022169472237396983,0.011032996798306704
1772045998142172400,7.62717236328125,-0.026304654079675673,-0.012840923003107308,0.006847710470296442
1772045998152157200,7.6371572265625,-0.0314186360925436,-0.021086170512717217,0.013625534042157232
1772045998162143500,7.6471435546875,-0.013171616262197493,-0.005445442456938326,0.024161796832084654
1772045998172129300,7.65712939453125,-0.018566753304004667,-0.000925371216610074,0.031639841095171865
1772045998182114300,7.6671142578125,-0.020223872861266135,-0.0013410941443406045,0.033747846225090326
1772045998192100400,7.677100341796875,0.0014507833302021026,0.01273852207455784,0.036646417210809884
1772045998202085400,7.68708544921875,0.04077624702453613,0.009774301974102855,0.019892996939085424
1772045998212071400,7.697071533203125,0.06514262651801109,0.023907657674234358,0.0224959825117141
1772045998222056400,7.707056396484375,0.07666355296373367,0.029005967193935066,0.0216413384437561
1772045998232042200,7.717042236328125,0.08102525530457497,0.030950306194741276,0.022196305445395408
1772045998242027300,7.72702734375,0.07506663916110992,0.03069704381972551,0.020729922687262297
1772045998252013600,7.737013671875,0.0514566309928894,0.023753179498575628,0.02128043270949274
1772045998261998300,7.746998291015625,0.03338672129511833,0.016442545957956464,0.014998429830558596
1772045998271984400,7.756984375,0.0166612119436264,0.012456106670293956,0.0038613150706514714
1772045998281970200,7.76697021484375,0.009786649999022482,-0.002289645307138562,-0.002824738564528525
1772045998291955500,7.77695556640625,0.011418050593137741,-0.01606145595218986,-0.018122918526642023
1772045998301941500,7.78694140625,0.023214871370792388,-0.006680592008773237,-0.012512787027284502
1772045998311926300,7.79692626953125,0.013921557846665381,-0.01159545298665762,-0.012839680894091725
1772045998321912300,7.806912353515625,0.00956979237794876,-0.029272856235504147,-0.003343209480680525
1772045998331897300,7.8168974609375,-0.007358546069264412,-0.02163620561091229,-0.00020129472576081752
1772045998341883400,7.82688330078125,-0.015306874725222587,-0.022382146873697637,-0.0014954627221450208
1772045998351868400,7.836868408203125,-0.0072486559540033335,-0.02280422647697851,0.02009637402407825
1772045998361854200,7.846854248046875,-0.010111059647798537,-0.02062350317072123,0.027768735282868145
1772045998371839200,7.856839111328125,-0.016414543706178664,-0.006281144362408667,0.029464214089140295
1772045998381825500,7.866825439453125,-0.017485972329974172,0.00361638213256374,0.03069539985191077
1772045998391810300,7.876810302734375,-0.00988134254515171,0.010137235268671064,0.023041231836937365
1772045998401796400,7.88679638671875,0.0026508067697286605,0.02396073956834152,0.01693407406825572
1772045998411782100,7.8967822265625,0.034626492223143575,0.011258202122617512,0.014136661902070045
1772045998421767400,7.906767333984375,0.052706923314929,0.01670201887805015,0.015517740996927022
1772045998431753500,7.91675341796875,0.06660685385167599,0.023669665933586655,0.012497516392916441
1772045998441738200,7.92673828125,0.05972469312250614,0.02666742297746241,0.006530059355869889
1772045998451724300,7.936724365234375,0.05808510922193527,0.02466497884755954,0.02148596521895379
1772045998461709300,7.946709228515625,0.05763794997632503,0.02453901438033208,0.013469612828083335
1772045998471695400,7.9566953125,0.06556582036614418,0.028278146109730003,0.004537387701310217
1772045998481680400,7.966680419921875,0.06945289093255996,0.009118176152929662,0.0008315554533153772
1772045998491666400,7.97666650390625,0.05060439807772636,-0.00006111907009035348,0.017906426231749355
1772045998501651200,7.986651123046875,0.028315409380197522,-0.007331895524356514,0.03393226288128644
1772045998511637500,7.996637451171875,-0.00027355624437332154,-0.005124339010100811,0.048309199812635775
1772045998521622500,8.00662255859375,-0.003299626067280769,0.005843629727978259,0.018699585903435945
1772045998531607300,8.016607177734375,-0.012029460489749908,0.007431355577148496,-0.016652444115281103
1772045998541593300,8.02659326171875,0.0025789105772972107,0.0027381927922368048,-0.012660890261083841
1772045998551578600,8.03657861328125,0.016454291194677353,0.0006743373312987387,0.008800086647085845
1772045998561564400,8.046564453125,0.021233342164754865,0.00920855785012245,0.030784977831505238
1772045998571549400,8.056549560546875,0.03502396710813045,-0.00041815234683454034,0.044929823040030896
1772045998581535200,8.06653515625,0.04330196610987186,-0.00483951245304197,0.04995364255141466
1772045998591520300,8.076520263671876,0.03466390162408352,0.00806751632252708,0.02837506714556366
1772045998601506600,8.086506591796875,0.018842647635936734,0.008157130834739654,0.0005565744368359446
1772045998611491300,8.0964912109375,0.013473229557275772,0.016668847260810433,-0.01523735315296799
1772045998621477400,8.106477294921875,0.023780104038119313,0.015833017491176722,-0.025083368656411767
1772045998631462400,8.11646240234375,0.029718261915445326,-0.005119973362237215,-0.016753566402196884
1772045998641448400,8.126448486328124,0.03204875068962574,-0.011331943212263286,-0.006037818859517574
1772045998651434500,8.1364345703125,0.02227496017217636,-0.014011391554586588,0.012676928080432116
1772045998661419300,8.146419189453125,-0.006070844346284866,-0.006597224574256688,0.0225182674087584
1772045998671405300,8.1564052734375,-0.00015489830076694487,0.009350103478971868,0.007977481685206294
1772045998681390600,8.166390625,0.007590016737580299,-0.007848795537929982,0.05006115804649889
1772045998691376400,8.17637646484375,0.008021393892168998,-0.00403500940343365,0.09054255031030625
1772045998701361400,8.186361328125,0.006225742647051811,-0.001834357553999871,0.07547474503796547
1772045998711347500,8.196347412109375,-0.000661094257235527,0.010830021572113036,0.055809346309676766
1772045998721332200,8.206332275390626,0.003363338953256607,0.0196808520257473,0.04615136419162154
1772045998731318500,8.216318603515624,0.033272739526629444,0.014250534072704612,0.031281163850612935
1772045998741304300,8.22630419921875,0.0612380202949047,0.02599880300089717,0.023457082628831265
1772045998751289300,8.236289306640625,0.0690109923839569,0.023538897427078334,0.03748710581865161
1772045998761275400,8.246275390625,0.0673556263923645,0.023487642163876443,0.02979516307655722
1772045998771260400,8.256260498046874,0.0637567251175642,0.031248357559554275,0.006631583501584827
1772045998781246500,8.26624658203125,0.06824059253334999,0.027844686595909295,-0.0024787746710702775
1772045998791231500,8.2762314453125,0.060462359747290605,0.018048538116179406,0.006838431185297668
1772045998801217300,8.28621728515625,0.054330725124478334,0.017749116778187454,-0.010262596947699784
1772045998811202600,8.29620263671875,0.045209261035919185,0.0017657310308888553,-0.013465557707473635
1772045998821188400,8.306188232421874,0.026641923210024832,-0.007366090054903179,-0.01220236937124282
1772045998831173400,8.31617333984375,0.008201426634192465,-0.01337661904869601,-0.024855697380378843
1772045998841159400,8.326159423828125,0.025972061124444005,-0.01157291236128658,-0.01761650337446481
1772045998851144200,8.336144287109375,0.03640343876779079,0.0036169666544534265,-0.001390723706036806
1772045998861130500,8.346130615234374,0.038891163930296895,0.01208234145445749,-0.0010933481946587562
1772045998871116300,8.3561162109375,0.035405075380206104,0.020087313934788107,0.013174867665208876
1772045998881101300,8.366101318359375,0.025665771654248236,0.02396976312501356,0.021033362613245843
1772045998891087400,8.37608740234375,0.03658990125060081,0.020415650840010492,0.017819369002804158
1772045998901072400,8.386072265625,0.01894260087907314,0.018874796339869496,0.017812537403218448
1772045998911058400,8.396058349609374,0.020471710142493247,0.020383940527494995,0.01616250517386943
1772045998921043500,8.40604345703125,0.003003273469209671,0.01294880382437259,0.010242430942505598
1772045998931029200,8.416029296875,-0.0015916531056165695,-0.0033624256378039716,0.003994951387681067
1772045998941014300,8.42601416015625,0.001734276446700096,0.00028027824610471724,-0.0013275222767144441
1772045998951000600,8.43600048828125,0.03542027294933796,-0.011101038799528031,-0.02637490630429238
1772045998960985300,8.4459853515625,0.04709492865204811,-0.013370225840527564,-0.03572258036416024
1772045998970971400,8.455971435546875,0.06986673243045806,-0.0031544637092389164,-0.022389015005901455
1772045998980957400,8.46595751953125,0.06197101074457168,-0.009771488962508738,-0.01125690521467477
1772045998990942500,8.4759423828125,0.051826048827171324,0.00458911788854748,-0.02521908733267337
1772045999000928500,8.485928466796874,0.05349368977844715,-0.005020641173608601,-0.03186429750081152
1772045999010913300,8.495913330078125,0.04168342499732971,-0.008272245114389806,-0.008252791495248674
1772045999020899300,8.5058994140625,0.031072014611959457,-0.013351375009585172,0.0053645592404529445
1772045999030884600,8.515884521484375,0.014930442628264427,-0.0165697160015814,0.012073518827185034
1772045999040870400,8.525870361328124,0.008211948028206824,-0.02460174088561907,0.012206862883269786
1772045999050855400,8.53585546875,-0.005249006569385528,-0.025462814694363622,-0.005164871949888765
1772045999060841200,8.54584130859375,-0.020667524975538254,-0.016597279861941934,-0.032341376960650085
1772045999070826200,8.555826171875,-0.03385667689442634,-0.01206539031965658,-0.04358136757314205
1772045999080812500,8.5658125,-0.008900514814257621,-0.01590348891150206,-0.01693615642748773
1772045999090797300,8.57579736328125,0.02237082176208496,-0.019921638511680065,0.01735821776445955
1772045999100783400,8.585783447265625,0.028999299991130826,-0.021678492116369307,0.04088175322562456
1772045999110769400,8.595769287109375,0.043887072521448134,-0.030619302408397196,0.03797079768236726
1772045999120754400,8.60575439453125,0.04786708206832409,-0.034361594209261236,0.020432547175884247
1772045999130740500,8.615740478515624,0.04331716367900371,-0.02882615364762023,-0.0024787381384521723
1772045999140725200,8.625725341796874,0.03321662542521953,-0.03307992036826908,-0.00837723985882476
1772045999150711300,8.635711181640625,0.011857611054182052,-0.02827076652087271,-0.01757343141771853
1772045999160696600,8.645696533203125,-0.011193594187498093,-0.03152920206123963,-0.026154724214971063
1772045999170682400,8.655682373046876,-0.019623568880558013,-0.049966392435133455,-0.007779219166748225
1772045999180667400,8.66566748046875,-0.014907646274566649,-0.04199802563814446,0.005468969462998211
1772045999190653400,8.6756533203125,-0.005556465083360672,-0.03483162287380546,0.006577844020351767
1772045999200638200,8.68563818359375,-0.018332944548130035,-0.03089293171800673,0.01451265560761094
1772045999210624500,8.69562451171875,-0.010290507867932319,-0.03519846515851095,0.02499170831758529
1772045999220610300,8.7056103515625,-0.02288403198122978,-0.024140881908219305,0.043323155028373
1772045999230595300,8.71559521484375,-0.013317162212729453,-0.0027030849462375043,0.05439242871645838
1772045999240581600,8.72558154296875,0.0035901334464550016,-0.005300334897823632,0.046171986854542046
1772045999250566400,8.73556640625,0.028117256459593773,-0.0025075258415192363,0.03729742846544832
1772045999260552400,8.745552490234376,0.057281976145505904,0.004316949883662164,0.030477939442638307
1772045999270537500,8.755537353515624,0.07402969732880592,0.009475940082035958,0.01522250264370814
1772045999280523300,8.765523193359375,0.07643325133919715,0.012603607115894555,0.029589904561731963
1772045999290508500,8.775508544921875,0.07541501420736313,0.006660005878470838,0.028966329303290694
1772045999300494300,8.785494384765625,0.06078209322094917,-0.014250899398885667,0.02061199539601803
1772045999310479400,8.795479248046876,0.0443371543765068,-0.023874760051630434,0.014045640884060412
1772045999320465400,8.80546533203125,0.026824878561496734,-0.0184069596324116,-0.001885813746601343
1772045999330450200,8.8154501953125,0.0036070845812559127,-0.019702479335665702,-0.026098719711415468
1772045999340436500,8.8254365234375,0.0028086276799440383,-0.034723961248248815,-0.024479009555093943
1772045999350422300,8.83542236328125,0.0064963762819767,-0.02775174761544913,-0.014438823186419904
1772045999360407300,8.8454072265625,0.01856324617266655,-0.017967179975658654,-0.009961641239747404
1772045999370393600,8.8553935546875,0.018518237987160683,-0.013664989269711077,0.0009699592770077288
1772045999380378400,8.86537841796875,0.009359949019551277,-0.015592742461897431,0.0055626573621295385
1772045999390364400,8.875364501953126,0.0043827451288700105,-0.0174017646452412,-0.012738284612540155
1772045999400349400,8.885349365234376,0.014359364742040633,-0.00843307996559888,-0.013106295941025019
1772045999410335200,8.895335205078124,0.0189443544447422,0.00015986673682928085,-0.015623776920977979
1772045999420320500,8.905320556640625,0.020841712498664854,0.020203962584398685,-0.007526194253750145
1772045999430306600,8.915306640625,0.022159224838018417,0.034633177692256864,0.022806071374192834
1772045999440291300,8.925291259765626,0.03383504958450794,0.049840427967906,0.02070299814771861
1772045999450277400,8.93527734375,0.04387479756176471,0.05320245174691081,0.016043828963954
1772045999460263400,8.945263427734375,0.05436988809108734,0.06378638960346579,-0.04347679295381531
1772045999470248400,8.95524853515625,0.07700491374731064,0.05185593250878155,0.025336192640010267
1772045999480234500,8.965234375,0.03245440888106823,-0.016906491941586135,0.08208842755667865
1772045999490219300,8.97521923828125,0.034440614262223244,0.028738055239059028,-0.03783007403742522
1772045999500205600,8.98520556640625,0.025058453410863876,0.06060111063085496,-0.060635615688655525
1772045999510190600,8.995190673828125,0.05026946703493595,0.00670640230346471,0.0482249921279028
1772045999520176400,9.00517626953125,0.03150456081032753,-0.003348689373396337,-0.003047788464371115
1772045999530161400,9.015161376953126,0.014684358912706374,0.0017134893869981168,0.004952800101786852
1772045999540147200,9.025147216796874,-0.012630348992347716,-0.019713694849424063,-0.0073687386697158215
1772045999550132200,9.03513232421875,-0.026793314379453658,-0.005520078595727682,-0.011759046050533652
1772045999560118500,9.045118408203125,-0.0291746565580368,-0.007975655054301024,0.019206932637374847
1772045999570104300,9.055104248046876,-0.0049503158837556835,-0.018069653969444332,0.043283699800819156
1772045999580089300,9.06508935546875,-0.009027940586209296,-0.009538301261141895,0.013198431203886866
1772045999590075100,9.0750751953125,0.013032500052452087,0.019775763767585157,-0.030682339440938084
1772045999600060400,9.085060302734375,0.08177227427959442,0.017861344981007277,-0.06403638230916112
1772045999610046500,9.09504638671875,0.09565350011587143,-0.002867408662475645,-0.002322195869870484
1772045999620031200,9.10503125,0.10303308897316456,0.02262600209955126,0.027607790833804755
1772045999630017300,9.115017333984374,0.11510638860464095,0.007575221027247607,0.06471431810334324
1772045999640002300,9.125002197265625,0.09653729721307754,0.0074440323956310745,0.015099917443655431
1772045999649988400,9.13498828125,0.06197334883213043,0.01733330251891166,0.03779534978391602
1772045999659973400,9.144973388671875,0.04998480487465858,0.016567359647713602,0.022171262335684148
1772045999669959400,9.15495947265625,0.037816812697052955,0.007354490948654711,0.013733451396040618
1772045999679944200,9.164944091796874,0.04537818786203861,0.018448387621343133,-0.0504865073191002
1772045999689930500,9.174930419921875,0.0439537080168724,0.014464286421239375,-0.017583605751860885
1772045999699916300,9.184916259765625,0.027859482306241988,-0.002860613595508039,0.008307992281205951
1772045999709901300,9.1949013671875,0.004422492617368698,-0.022067637564428148,0.01781310365879908
1772045999719887400,9.204887451171874,-0.021267244434356687,-0.01731952972188592,0.014668814283702522
1772045999729872400,9.214872314453125,-0.04008709571659565,-0.010105543222464621,0.00082448639171198
1772045999739858400,9.2248583984375,-0.0258504805713892,-0.019996822639741,0.021239004720561207
1772045999749843500,9.234843505859375,-0.019842764589190483,-0.012762450939416884,0.010898392366897314
1772045999759829200,9.244829345703126,-0.02340074933171272,-0.01531513109691441,0.038353166329767555
1772045999769814300,9.254814208984374,-0.011848258703947066,-0.014525442023947835,0.0165582447594963
1772045999779800300,9.26480029296875,-0.0026958149552345273,-0.005056991128623485,0.013372235134523361
1772045999789785300,9.274785400390625,0.019608371311426162,-0.006929945393651723,-0.007633983743470162
1772045999799771400,9.284771484375,0.04012801224887371,0.011087357334047556,-0.005303659366071224
1772045999809756200,9.294756103515626,0.03150982150733471,0.01571355582997203,0.025966453367564826
1772045999819742500,9.304742431640625,0.023969489130377768,0.008281067741662264,0.039159916135389355
1772045999829728300,9.314728271484375,0.03649871583580971,-0.014088402313552796,0.061470331213437014
1772045999839713300,9.32471337890625,0.03178513131737709,-0.03169891433864832,0.029795418804883955
1772045999849698300,9.3346982421875,0.04230184915661812,-0.018294110375083984,-0.039552860975731165
1772045999859684400,9.344684326171874,0.06472995406389236,-0.0065989964062348,-0.04895021939622238
1772045999869670400,9.35467041015625,0.06648702686429023,-0.008256627420149744,-0.018165186765789983
1772045999879655400,9.364655517578125,0.05867722989618778,-0.013687712558172643,0.0034462131974287327
1772045999889641200,9.37464111328125,0.048041854113340374,0.008748758318647742,0.02305929721659049
1772045999899626200,9.384626220703124,0.0740787971675396,0.010099661470949648,0.010722853136900811
1772045999909612500,9.394612548828125,0.08951426670849323,-0.012575915391370653,-0.00745048040272668
1772045999919597300,9.404597412109375,0.07012450658380985,-0.021230419555306433,0.024140078190620987
1772045999929583400,9.414583251953125,0.010344283881783484,-0.036884134956821794,0.04887183866407722
1772045999939568400,9.424568359375,-0.01023731637597084,-0.04774721854832023,0.023602555514127016
1772045999949554400,9.434554443359374,-0.01843640492260456,-0.04219868104308843,-0.0010531075158156454
1772045999959539500,9.44453955078125,-0.02336860062777996,-0.022102014758065343,-0.012894278891850262
1772045999969525200,9.454525146484375,-0.031900866651535034,-0.024357575132511553,0.008264153139479457
1772045999979510300,9.46451025390625,-0.03415829018950462,-0.0043591815901920196,0.015456420997437088
1772045999989496600,9.47449658203125,-0.01846855362653732,0.005021189162880182,-0.02701643734453246
1772045999999482400,9.484482421875,0.0017003741770982741,0.011344948824308813,-0.03528563198531046
1772046000009467400,9.49446728515625,0.006295300751924514,0.015179996942542493,-0.024556276042386888
1772046000019453200,9.504453125,0.01941197195649147,0.01349799867235124,-0.028942710965685545
1772046000029438200,9.514438232421876,0.02998129676580429,-0.0025742709347978234,-0.034088914747722444
1772046000039424500,9.524424560546874,0.05014262578487396,0.003024389322474599,-0.018849661898612976
1772046000049409300,9.5344091796875,0.053548634836077684,0.0031451661579310892,-0.017847700048144906
1772046000059395300,9.544395263671875,0.04992518364191055,0.0041394744249060745,-0.02565218152031302
1772046000069380400,9.55438037109375,0.04212064737081527,0.00015760171450674533,-0.01482468069884926
1772046000079366400,9.564366455078124,0.016070844835042952,0.003925064489245415,0.00765597637956962
1772046000089351400,9.574351318359374,0.012764204505085945,-0.01495692877639085,0.016420918648038057
1772046000099337200,9.584337158203125,0.022754852643609047,-0.023293160771392284,0.016857465168088673
1772046000109323300,9.5943232421875,0.034679099193215365,-0.0039625469554215665,0.013737999706994741
1772046000119308500,9.60430859375,0.05617664525210857,-0.010230302113294601,0.0036998956975527104
1772046000129294300,9.61429443359375,0.06542787320017815,0.007367167767137289,-0.005017919493559748
1772046000139279400,9.624279296875,0.03342880687117576,0.0065492755129933355,0.01126176405288279
1772046000149265400,9.634265380859375,-0.02847498385608196,0.012083126905746757,0.040013245029095555
1772046000159250200,9.644250244140625,-0.05537643478512764,0.01220755700301379,0.03130080013284459
1772046000169236500,9.654236572265624,-0.03757482063472271,-0.0042250338165089486,0.015182115834392607
1772046000179221500,9.664221435546875,-0.017684125250577925,0.010143865938857197,0.01732643438670784
1772046000189207300,9.674207275390625,0.0013040683358907699,0.020462175129167735,0.02030903039406985
1772046000199192300,9.6841923828125,0.036461306434869764,0.014775873121060431,0.010519750046543777
1772046000209178400,9.694178466796876,0.0499228455543518,0.008201572764664888,-0.00939514819709584
1772046000219163400,9.704163330078124,0.054390346357226366,0.009013327538967133,-0.015807243729103356
1772046000229149400,9.7141494140625,0.057497664722800254,0.0027973756335675716,-0.01249684053948149
1772046000239135200,9.72413525390625,0.04519464798867702,0.0003914835356175899,-0.0015215104788541792
1772046000249120500,9.73412060546875,0.034087563040852545,0.012622494479455054,0.004873341657407581
1772046000259106300,9.744106201171874,0.02029460000991821,0.025601693442091344,0.01804254676681012
1772046000269091300,9.75409130859375,0.019987726017832753,0.014304602347500622,0.023832418747246262
1772046000279077400,9.764077392578125,0.02343815873265266,0.007028400799445808,0.04181450403109192
1772046000289062100,9.774062255859375,0.01910685153007507,0.006080306294374167,0.0466780001479201
1772046000299048400,9.78404833984375,0.005201660296320915,0.01971365831680596,0.029074648515973238
1772046000309033500,9.794033447265624,0.017767711880803106,0.027365707439929245,0.012046302026696503
1772046000319019300,9.804019287109375,0.014454641810059546,0.0356959846181795,-0.007998908065725117
1772046000329004300,9.81400439453125,0.025662849044799804,0.03532693211007863,-0.004933510879427195
1772046000338990300,9.823990234375,0.05229015920758247,0.03805361712761223,0.0015542071720585225
1772046000348976400,9.833976318359374,0.06829904472231864,0.03847016203925013,0.007422569482494145
1772046000358961400,9.84396142578125,0.08057341988384724,0.036505401304922996,0.007726612196676433
1772046000368947200,9.853947265625,0.07685527614355087,0.035320429304055864,0.010645184790808707
1772046000378932500,9.863932373046875,0.05505085609257221,0.04140146625079214,0.008187525973003358
1772046000388918300,9.873918212890626,0.03639174832999706,0.03262048616297543,-0.008072155965026468
1772046000398903300,9.8839033203125,0.010239654463529587,0.019897526983730495,-0.02580371882021427
1772046000408889300,9.893889404296875,0.014732874229550361,0.0012579276392236352,-0.021662180302385238
1772046000418874400,9.903874267578125,0.032682956939935684,-0.0022237039314582942,-0.010265647421311587
1772046000428860400,9.9138603515625,0.020997195321321487,0.004449088363349438,-0.011424681263323872
1772046000438845400,9.923845458984376,0.020837620845437048,0.006400076300650834,0.001538534678891301
1772046000448831200,9.933831298828125,0.029374563044309614,-0.0036241453139111398,0.012462828672025352
1772046000458816300,9.943816162109375,0.026701544442772864,-0.007139094632305204,0.02993776815133169
1772046000468802600,9.953802490234375,0.027777064719796178,-0.0010614917516708372,0.026961254824884234
1772046000478788400,9.963788330078126,0.041888007658720014,0.0026813115058466792,0.019334595871344208
1772046000488773400,9.9737734375,0.02697568520903587,0.010260587653703987,0.020708258844725786
1772046000498759200,9.98375927734375,0.014599018716812132,0.012677147276140749,0.008093253551982343
1772046000508744400,9.993744384765625,-0.0060118076354265205,0.010249481737799942,0.000727638421114534
1772046000518730500,10.00373046875,-0.0039022681355476378,0.010997888952307402,-0.0000973046283237636
1772046000528716000,10.013716064453124,0.005215688821673393,0.01573806921672076,-0.010243380790576339
1772046000538702000,10.0237021484375,0.019108020573854446,0.016906418876349926,-0.007752806083858013
1772046000548687000,10.03368701171875,0.04603519046604633,0.021856077172979712,-0.010551149831805377
1772046000558673000,10.0436728515625,0.06520633940398693,0.007770926262438297,-0.0040936259891837835
1772046000568658000,10.053657958984376,0.0715337888598442,0.006599982786923647,0.0011702493557706475
1772046000578644000,10.06364404296875,0.04407061239480972,0.01279050799012184,0.006124127169791609
1772046000588630000,10.073630126953125,0.001626139897108078,-0.0031468831909820436,-0.011800821099337189
1772046000598615000,10.083614990234375,-0.017342179945111273,-0.015069631903246044,-0.02284649471612647
1772046000608601000,10.09360107421875,-0.027808628901839254,-0.017287161822244525,-0.02047265999056399
1772046000618586000,10.103586181640624,-0.004484451937675476,-0.03645494975931942,-0.001591178181581199
1772046000628572000,10.113572021484375,0.02392623451054096,-0.03305248437207192,0.028741471038851885
1772046000638557000,10.123556884765625,0.024812369695305824,-0.024305333488620816,0.028187709613610057
1772046000648543000,10.13354296875,0.013580781584978103,-0.00021462913136929273,0.010703454316686838
1772046000658528000,10.143528076171876,0.019851532417535782,-0.003528027995675802,-0.012567111030407249
1772046000668514000,10.15351416015625,0.01802373246848583,0.002092551832459867,-0.0312208484981209
1772046000678499000,10.1634990234375,0.012618074032664298,0.004058262414857745,-0.008241996106598527
1772046000688484900,10.17348486328125,0.010376432585716248,0.015402553652040659,0.030168398569431154
1772046000698470000,10.183469970703126,0.025059622454643247,0.007715469748154282,0.03856419699825346
1772046000708456000,10.1934560546875,0.040214521488547324,-0.0010609072297811507,0.03628657092247158
1772046000718442000,10.20344189453125,0.047754269343614576,-0.013952318311110138,0.03378087171185761
1772046000728427000,10.213427001953125,0.03584638940691948,-0.019225472941063342,0.0339093751960434
1772046000738413000,10.2234130859375,0.023011457753181457,-0.011607289554923772,-0.00026314444821327925
1772046000748398000,10.233398193359376,0.02421557284593582,-0.008695091902650892,-0.014764036552794277
1772046000758383900,10.2433837890625,0.020598551392555235,-0.006465360089205205,-0.006274221431277692
1772046000768369000,10.253368896484375,0.018166355809569358,-0.01921283265519887,-0.0003628054304048419
1772046000778355000,10.26335498046875,0.008404840251803398,-0.026393574472144243,0.017947890753298997
1772046000788340000,10.273340087890626,-0.00495265397131443,-0.014171112160943447,0.019495394189935178
1772046000798326000,10.283325927734374,-0.021889760246872902,-0.01752517182920128,0.01897593689309433
1772046000808311000,10.29331103515625,-0.042245735055208206,-0.011549677616171539,0.027163042740989476
1772046000818296800,10.303296875,-0.06590893471539021,-0.015959529947675764,0.0311246398483403
1772046000828283100,10.313283203125,-0.056223407003283495,-0.0008326148992404341,0.010488076266646384
1772046000838268200,10.32326806640625,-0.047453825092315674,-0.0034376828311011194,0.026389007894881068
1772046000848254000,10.33325390625,-0.02730827816426754,0.02066818256266415,0.028537034507934003
1772046000858239000,10.343239013671875,-0.009553425765037536,0.03795486946087331,0.01025972913717851
1772046000868225000,10.35322509765625,0.023917466682195663,0.03590655862893909,0.07233367053326219
1772046000878210000,10.3632099609375,0.03390869934260845,0.06311422596294433,0.009259977510105818
1772046000888196000,10.373196044921874,0.06530746169090271,0.04547390332147479,0.007952858700603246
1772046000898180900,10.383180908203125,0.05468436086773872,0.0432731784068048,0.03454619352854788
1772046000908167000,10.3931669921875,0.07147767475843429,0.018693156162649393,0.06701590957660228
1772046000918152200,10.403152099609375,0.07764964139163494,0.0060282838461920615,0.03440537855206057
1772046000928138000,10.413137939453126,0.09562953471839428,-0.013722199349664151,-0.03141688252687454
1772046000938123000,10.423123046875,0.08666238440871238,-0.004866217796877026,-0.02759009078033268
1772046000948108800,10.43310888671875,0.05223696771562099,-0.00753905373532325,-0.01122855590302497
1772046000958095000,10.44309521484375,0.05685118351280689,0.002034136176109314,-0.021709289113432166
1772046000968080100,10.453080078125,0.039267596027255054,-0.031886509332619606,-0.03067576356967911
1772046000978066000,10.46306591796875,0.023882395368814466,0.009155512488633393,-0.03103646837454289
1772046000988051000,10.473051025390625,0.009967851784825324,0.02827346993461251,0.010555935604777187
1772046000998037000,10.483037109375,0.03481938444674015,0.02649392957407981,0.03468973018508404
1772046001008022000,10.49302197265625,-0.00999766240119934,0.07012468924690038,0.04543945306260139
1772046001018008000,10.503008056640626,-0.06487959166765213,0.048669813285954294,0.0010748992225155234
1772046001027993000,10.5129931640625,-0.023829203876852986,-0.017265023055672644,0.065961888745334
1772046001037979000,10.522978759765625,0.04854512746036052,-0.00014255027584731577,0.05818687082966789
1772046001047964200,10.532964111328125,0.1270084233224392,-0.0447698832379654,-0.01867525517977774
1772046001057950000,10.542949951171876,0.2262608247131109,-0.06176595315914601,-0.03943259559692815
1772046001067936000,10.55293603515625,0.19770225422680376,-0.04589384576659649,-0.026772435988206413
1772046001077921000,10.562921142578125,0.0682224723547697,-0.025036497307382524,-0.025729320143442598
1772046001087907000,10.572906982421875,-0.03640226972401142,-0.03319729967024177,0.0037345468858256932
1772046001097892000,10.58289208984375,-0.08899638031423092,-0.042354821452870964,0.005912384115252643
1772046001107878000,10.5928779296875,-0.11641922476887702,-0.040570495319366455,-0.03940716889472678
1772046001117863000,10.60286279296875,-0.1384276429593563,-0.023225502362661063,-0.040648236730694766
1772046001127849200,10.61284912109375,-0.07210369770228862,-0.040819757372699675,-0.015619813131913542
1772046001137834000,10.622833984375,0.003776595929265022,-0.06274725581407546,0.0057721353943459685
1772046001147820000,10.632820068359376,0.04078676841855049,-0.039594343763589855,0.013064100767113267
