time,seconds_elapsed,z,y,x
1772045990583115300,0.068115234375,0.021986300125718117,0.05771271139383316,-0.036863990128040314
1772045990593101600,0.0781015625,0.02119249850511551,0.03273420035839081,-0.048483122140169144
1772045990603086600,0.088086669921875,0.008569382131099701,0.004424531944096088,-0.06120610982179642
1772045990613072400,0.098072265625,-0.0025150971487164497,-0.005902586504817009,-0.056004397571086884
1772045990623057400,0.108057373046875,-0.00904197245836258,-0.0051891254261136055,-0.04430406540632248
1772045990633043500,0.11804345703125,-0.008055781945586205,0.0011945031583309174,-0.03123929537832737
1772045990643028500,0.128028564453125,-0.0024314522743225098,0.011762991547584534,-0.023337163031101227
1772045990653014500,0.1380146484375,0.00001888815313577652,0.020375985652208328,-0.021628130227327347
1772045990662999300,0.147999267578125,-0.000935588963329792,0.037931811064481735,-0.02045234479010105
1772045990672985300,0.1579853515625,0.0027688946574926376,0.05768454819917679,-0.019148830324411392
1772045990682970600,0.167970703125,0.008173514157533646,0.06543941050767899,-0.023553431034088135
1772045990692956400,0.177956298828125,0.014638904482126236,0.06485690921545029,-0.02764386311173439
1772045990702942500,0.1879423828125,0.01978066749870777,0.06126084178686142,-0.0340287908911705
1772045990712927200,0.19792724609375,0.019878584891557693,0.05578743666410446,-0.035622935742139816
1772045990722913500,0.20791357421875,0.01775258406996727,0.05236554145812988,-0.03747756406664848
1772045990732898600,0.217898681640625,0.014742427505552769,0.048027295619249344,-0.03329714015126228
1772045990742884400,0.22788427734375,0.012130132876336575,0.05213628709316254,-0.027701841667294502
1772045990752869400,0.237869384765625,0.014868594706058502,0.05700143054127693,-0.02401028759777546
1772045990762855200,0.247855224609375,0.020660439506173134,0.06948686391115189,-0.021526090800762177
1772045990772840400,0.25784033203125,0.030869273468852043,0.07691942900419235,-0.028322169557213783
1772045990782826500,0.267826416015625,0.03944278508424759,0.08096849918365479,-0.04246115684509277
1772045990792811500,0.2778115234375,0.042778629809617996,0.07885374873876572,-0.06011011451482773
1772045990802797300,0.28779736328125,0.047701749950647354,0.07580975443124771,-0.07671891897916794
1772045990812783400,0.297783447265625,0.050181299448013306,0.07912840694189072,-0.09251539409160614
1772045990822768400,0.307768310546875,0.051433250308036804,0.07412724941968918,-0.09684862196445465
1772045990832754400,0.31775439453125,0.041555315256118774,0.07368956506252289,-0.09021923691034317
1772045990842739500,0.327739501953125,0.03039267472922802,0.07917194813489914,-0.07644510269165039
1772045990852725500,0.3377255859375,0.022060934454202652,0.08244313299655914,-0.054558686912059784
1772045990862710500,0.34771044921875,0.017572440207004547,0.08441121131181717,-0.041512127965688705
1772045990872696300,0.3576962890625,0.016777850687503815,0.08131647109985352,-0.030111365020275116
1772045990882681300,0.367681396484375,0.016779717057943344,0.06964249908924103,-0.018511435016989708
1772045990892667400,0.37766748046875,0.020747676491737366,0.05245629698038101,-0.011892581358551979
1772045990902652400,0.38765234375,0.01686265878379345,0.03835645690560341,-0.007167068775743246
1772045990912638500,0.397638427734375,0.01398503314703703,0.031521543860435486,-0.004050798714160919
1772045990922624300,0.407624267578125,0.02155240625143051,0.02558216266334057,-0.005370394326746464
1772045990932609300,0.417609375,0.0224454402923584,0.025543224066495895,-0.006843960843980312
1772045990942595600,0.427595703125,0.02961839735507965,0.023740263655781746,-0.010245615616440773
1772045990952580400,0.437580322265625,0.02853311039507389,0.024693002924323082,-0.0065481457859277725
1772045990962566400,0.44756640625,0.030705714598298073,0.02366315945982933,0.003727128729224205
1772045990972551400,0.457551513671875,0.02653598040342331,0.023047897964715958,0.01498814020305872
1772045990982537500,0.467537353515625,0.020193394273519516,0.024411436170339584,0.026015758514404297
1772045990992522500,0.4775224609375,0.014329523779451847,0.02164360135793686,0.028063833713531494
1772045991002508300,0.48750830078125,0.011767563410103321,0.02008139155805111,0.028247857466340065
1772045991012493300,0.497493408203125,0.009410751052200794,0.021708659827709198,0.025795331224799156
1772045991022479400,0.507479248046875,0.007717513479292393,0.016585802659392357,0.02172042988240719
1772045991032465400,0.51746533203125,0.009482837282121181,0.013395260088145733,0.021265048533678055
1772045991042450400,0.527450439453125,0.010405887849628925,0.014061315916478634,0.020056772977113724
1772045991052436200,0.537436279296875,0.007425239309668541,0.017700817435979843,0.020219245925545692
1772045991062421200,0.547421142578125,0.005752241238951683,0.020256387069821358,0.014000498689711094
1772045991072407600,0.557407470703125,0.008017309010028839,0.024895984679460526,0.002312149852514267
1772045991082392600,0.567392578125,0.004469446837902069,0.025616370141506195,-0.0025382654275745153
1772045991092378400,0.57737841796875,0.005645151250064373,0.02519289217889309,-0.011858181096613407
1772045991102363400,0.58736328125,0.0009132456034421921,0.023126810789108276,-0.011619828641414642
1772045991112349400,0.597349365234375,-0.0003194184973835945,0.017391307279467583,-0.010745901614427567
1772045991122334500,0.60733447265625,0.0011112317442893982,0.011216768994927406,-0.00385337439365685
1772045991132320500,0.617320556640625,-0.0007863128557801247,0.011425851844251156,-0.0007092254236340523
1772045991142306300,0.627306396484375,-0.00546575291082263,0.009364565834403038,0.005461584776639938
1772045991152291300,0.637291259765625,-0.010911528021097183,0.003967680502682924,0.00039561535231769085
1772045991162277400,0.64727734375,-0.010215377435088158,0.0017239672597497702,-0.0027533064130693674
1772045991172262400,0.657262451171875,-0.010098334401845932,0.0017557458486407995,-0.007178924977779388
1772045991182248400,0.66724853515625,-0.012540719471871853,0.005429043900221586,-0.0068846456706523895
1772045991192233200,0.677233154296875,-0.012706256471574306,0.004669124260544777,-0.004494581371545792
1772045991202219500,0.687219482421875,-0.017185959964990616,0.007882760837674141,0.0018149802926927805
1772045991212204500,0.69720458984375,-0.019075065851211548,0.014434583485126495,0.011306729167699814
1772045991222190300,0.7071904296875,-0.014976993203163147,0.02499881014227867,0.014154447242617607
1772045991232175400,0.71717529296875,-0.008131936192512512,0.026304816827178,0.012156465090811253
1772045991242161400,0.727161376953125,-0.00502163078635931,0.025298409163951874,0.006969692185521126
1772045991252147500,0.7371474609375,-0.0026814844459295273,0.020587347447872162,0.00011834152974188328
1772045991262132500,0.747132568359375,-0.0005123401060700417,0.022042233496904373,-0.004207963589578867
1772045991272118300,0.7571181640625,0.00039529241621494293,0.010893513448536396,-0.003979300148785114
1772045991282103300,0.767103271484375,-0.0005658427253365517,0.00823594443500042,-0.0022810024674981833
1772045991292089300,0.77708935546875,-0.0003775712102651596,0.008866678923368454,0.001971451099961996
1772045991302074400,0.787074462890625,0.0030379323288798332,0.006240002810955048,0.00869060680270195
1772045991312060400,0.797060302734375,0.002195236273109913,0.007864357903599739,0.005573478527367115
1772045991322045400,0.80704541015625,0.0033350689336657524,0.0023153959773480892,0.0023204274475574493
1772045991332031500,0.817031494140625,0.0013708481565117836,-0.003165074624121189,0.0003784096334129572
1772045991342016500,0.8270166015625,0.00016869697719812393,-0.004371219780296087,0.0011824178509414196
1772045991352002300,0.837002197265625,0.002084224484860897,-0.0030546279158443213,-0.002161693759262562
1772045991361988400,0.84698828125,-0.0025014718994498253,-0.0071710762567818165,-0.005522070452570915
1772045991371973600,0.8569736328125,-0.0013657305389642715,-0.006375439465045929,-0.005932236555963755
1772045991381959400,0.86695947265625,-0.0035686977207660675,-0.011836517602205276,-0.009176500141620636
1772045991391944400,0.8769443359375,-0.003234430216252804,-0.007756315171718597,-0.010733670555055141
1772045991401930200,0.88693017578125,-0.001833074726164341,-0.005808212794363499,-0.008817526511847973
1772045991411915300,0.896915283203125,-0.0013247178867459297,-0.00614427775144577,-0.011973617598414421
1772045991421901600,0.906901611328125,-0.0015209931880235672,-0.0010078386403620243,-0.015719620510935783
1772045991431886300,0.91688623046875,-0.001942712813615799,0.0015841377899050713,-0.017376702278852463
1772045991441872400,0.926872314453125,-0.0011903699487447739,0.0016895988956093788,-0.015881603583693504
1772045991451857400,0.936857421875,-0.0063053616322577,0.001911518513225019,-0.012887082993984222
1772045991461843500,0.946843505859375,-0.011156575754284859,-0.0007204835419543087,-0.008986882865428925
1772045991471829500,0.95682958984375,-0.008358456194400787,0.0017167981714010239,-0.006382988765835762
1772045991481814300,0.966814208984375,-0.009897763840854168,-0.0033519964199513197,-0.0038607087917625904
1772045991491800300,0.97680029296875,-0.012355073355138302,-0.0062622008845210075,-0.0005936252418905497
1772045991501785600,0.98678564453125,-0.01102375891059637,-0.006309338845312595,-0.0011097455862909555
1772045991511770600,0.9967705078125,-0.010935267433524132,-0.00888067577034235,-0.0031582885421812534
1772045991521755600,1.006755615234375,-0.016378501430153847,-0.009697999805212021,-0.003730068914592266
1772045991531742000,1.016741943359375,-0.01177569292485714,-0.011609838344156742,-0.008133463561534882
1772045991541726700,1.026726806640625,-0.006853905040770769,-0.007283532992005348,-0.011380122974514961
1772045991551712800,1.036712646484375,-0.008019344881176949,-0.0063146487809717655,-0.008277785032987595
1772045991561697800,1.04669775390625,-0.006201205309480429,-0.00167462311219424,-0.00501381466165185
1772045991571683800,1.056683837890625,-0.009097483940422535,-0.0012869811616837978,-0.0033634966239333153
1772045991581670000,1.066669921875,-0.01102161779999733,-0.0022710193879902363,0.00030394247733056545
1772045991591654700,1.076654541015625,-0.011282962746918201,-0.0014204818289726973,0.007160271983593702
1772045991601640700,1.086640625,-0.008115132339298725,-0.003851148998364806,0.006201001815497875
1772045991611625700,1.096625732421875,-0.005249587818980217,-0.009537560865283012,0.0032378651667386293
1772045991621611800,1.10661181640625,-0.0025866935029625893,-0.010272859595716,-0.0028357398696243763
1772045991631596800,1.1165966796875,-0.001987311989068985,-0.008899584412574768,-0.008219359442591667
1772045991641582800,1.126582763671875,-0.002233920618891716,-0.0003961105248890817,-0.01166841946542263
1772045991651567600,1.136567626953125,-0.0032349759712815285,0.008092520758509636,-0.015204668045043945
1772045991661554000,1.146553955078125,-0.0033127404749393463,0.013674771413207054,-0.010020824149250984
1772045991671539000,1.1565390625,-0.000025167129933834076,0.009979126043617725,-0.010295458137989044
1772045991681524700,1.166524658203125,0.001347159966826439,-0.00017923573614098132,-0.013114679604768753
1772045991691510800,1.1765107421875,-0.005138240288943052,-0.007951577194035053,-0.011576071381568909
1772045991701495800,1.186495849609375,-0.012090422213077545,-0.021896952763199806,-0.01626882702112198
1772045991711481900,1.19648193359375,-0.010257058776915073,-0.025826346129179,-0.0192161463201046
1772045991721467000,1.206466796875,-0.013049650005996227,-0.03008207678794861,-0.01686990074813366
1772045991731452700,1.21645263671875,-0.011131883598864079,-0.023712564259767532,-0.009003088809549809
1772045991741437700,1.226437744140625,-0.008447949774563313,-0.011825011111795902,-0.0049340445548295975
1772045991751423700,1.236423828125,-0.0013812286779284477,0.001089792000129819,-0.005267839878797531
1772045991761408800,1.24640869140625,0.0006270613521337509,0.00734715536236763,-0.010285768657922745
1772045991771394800,1.256394775390625,0.005308784544467926,0.014093594625592232,-0.014659887179732323
1772045991781379600,1.266379638671875,0.007206819951534271,0.010016295127570629,-0.021407272666692734
1772045991791366000,1.276365966796875,0.005717647261917591,0.005357138346880674,-0.020865442231297493
1772045991801351700,1.2863515625,-0.0034271162003278732,0.005535836331546307,-0.009993086569011211
1772045991811336700,1.296336669921875,-0.00912165455520153,0.0070082759484648705,0.0008787973783910275
1772045991821322800,1.30632275390625,-0.00821777805685997,0.0016177719226107001,0.00775135075673461
1772045991831307800,1.316307861328125,-0.006082392297685146,-0.00197589211165905,0.00699030002579093
1772045991841293800,1.3262939453125,-0.007409445475786924,0.0034367162734270096,0.006946091540157795
1772045991851278800,1.33627880859375,-0.0055439770221710205,0.0071790823712944984,0.005364277400076389
1772045991861264600,1.3462646484375,-0.0022816043347120285,0.007470964919775724,0.001852100365795195
1772045991871249700,1.356249755859375,-0.0024245018139481544,0.012654422782361507,-0.004829361103475094
1772045991881235700,1.366235595703125,-0.0007107574492692947,0.009757968597114086,-0.004867976531386375
1772045991891220700,1.376220703125,-0.004875596612691879,0.0030523412860929966,-0.006970583461225033
1772045991901206800,1.386206787109375,-0.006409843452274799,0.0024547278881073,-0.008146102540194988
1772045991911192800,1.39619287109375,-0.008393296040594578,-0.0002818906505126506,-0.008602693676948547
1772045991921177900,1.406177734375,-0.011344611644744873,-0.0009676545741967857,-0.00846287701278925
1772045991931164000,1.416163818359375,-0.01368764415383339,-0.0022368873469531536,-0.0054984078742563725
1772045991941148700,1.426148681640625,-0.012475373223423958,0.00444951094686985,-0.004377749748528004
1772045991951134700,1.436134765625,-0.009592924267053604,0.008255187422037125,-0.005207468755543232
1772045991961120000,1.4461201171875,-0.006167566869407892,0.010809425264596939,-0.003381073707714677
1772045991971105800,1.456105712890625,-0.004746550694108009,0.012790004722774029,0.0006045724730938673
1772045991981090800,1.4660908203125,0.00032091233879327774,0.015580464154481888,0.00037261098623275757
1772045991991076600,1.47607666015625,0.0014590322971343994,0.012622344307601452,-0.0002736144233494997
1772045992001061600,1.4860615234375,0.002851332537829876,0.006617981940507889,0.00300287245772779
1772045992011048000,1.4960478515625,0.0005165161564946175,-0.00038167485035955906,0.007559375837445259
1772045992021032700,1.50603271484375,0.0004946785047650337,-0.007403098978102207,0.015434343367815018
1772045992031018800,1.516018798828125,-0.0010144077241420746,-0.00886379461735487,0.018926238641142845
1772045992041004800,1.5260048828125,-0.0011603496968746185,-0.011353583075106144,0.019455675035715103
1772045992050989800,1.53598974609375,-0.0018846932798624039,-0.009117886424064636,0.018630875274538994
1772045992060975900,1.545975830078125,0.00009350292384624481,-0.01119275577366352,0.014575946144759655
1772045992070960600,1.555960693359375,0.004346384666860104,-0.00852432195097208,0.008898046799004078
1772045992080946700,1.56594677734375,0.004238792695105076,-0.0050614140927791595,0.0007932484149932861
1772045992090932000,1.575931884765625,0.002263041213154793,-0.004313495475798845,-0.0016233043279498816
1772045992100917800,1.585917724609375,-0.00031942687928676605,-0.0018905516481027007,-0.00044991588220000267
1772045992110902800,1.59590283203125,-0.0019596535712480545,-0.00015533374971710145,0.002080701757222414
1772045992120888800,1.605888916015625,0.00020895898342132568,-0.0010791842360049486,0.00772686954587698
1772045992130875000,1.615875,0.0014796312898397446,0.0026646340265870094,0.008995026350021362
1772045992140860000,1.62585986328125,0.0021704556420445442,0.0008888381416909397,0.004300139844417572
1772045992150845700,1.635845703125,0.00044384971261024475,0.001564003061503172,0.00117602595128119
1772045992160830700,1.645830810546875,0.0026031406596302986,0.0011916931252926588,-0.005623556673526764
1772045992170817000,1.655817138671875,0.000530109740793705,0.002588450675830245,-0.010856566950678825
1772045992180801800,1.6658017578125,-0.0015546130016446114,0.007143521215766668,-0.005667929537594318
1772045992190787800,1.675787841796875,-0.002150396816432476,0.009028838947415352,-0.002043018350377679
1772045992200772900,1.68577294921875,-0.0025858236476778984,0.015577285550534725,0.008501768112182617
1772045992210758700,1.695758544921875,0.0005214260891079903,0.014619564637541771,0.017068399116396904
1772045992220744000,1.705743896484375,-0.003935906104743481,0.007572307251393795,0.014527210965752602
1772045992230729700,1.715729736328125,-0.004375468008220196,-0.0029303524643182755,0.00893586315214634
1772045992240714800,1.72571484375,-0.0076165348291397095,-0.01038800273090601,0.0038225939497351646
1772045992250700800,1.73570068359375,-0.01009653601795435,-0.01323123648762703,-0.005852547474205494
1772045992260686800,1.745686767578125,-0.012679802253842354,-0.012777434661984444,-0.01006966270506382
1772045992270672000,1.755671875,-0.014034459367394447,-0.01508814375847578,-0.006082070991396904
1772045992280657700,1.76565771484375,-0.009426391683518887,-0.009753566235303879,0.001474115764722228
1772045992290642700,1.775642578125,-0.01045503094792366,-0.002558552660048008,0.008067077957093716
1772045992300629000,1.78562890625,-0.007874961011111736,0.003264449071139097,0.006173037923872471
1772045992310613800,1.79561376953125,-0.005489635281264782,0.006831708364188671,0.0051238760352134705
1772045992320599800,1.805599853515625,-0.002366013824939728,0.008613362908363342,0.0024918741546571255
1772045992330584800,1.815584716796875,-0.00014792382717132568,0.007319062948226929,-0.0009191855788230896
1772045992340570600,1.825570556640625,0.0011639492586255074,0.0022308274637907743,-0.002329861745238304
1772045992350556000,1.835555908203125,-0.004966197535395622,0.000780256581492722,-0.003601746167987585
1772045992360541700,1.845541748046875,-0.010128469206392765,-0.003971089143306017,-0.0043021575547754765
1772045992370527700,1.85552783203125,-0.014747008681297302,-0.012183288112282753,-0.004477638751268387
1772045992380512800,1.8655126953125,-0.01587752066552639,-0.012378230690956116,0.004873252008110285
1772045992390498800,1.875498779296875,-0.018363721668720245,-0.011958735063672066,0.01053376030176878
1772045992400483800,1.88548388671875,-0.014580167829990387,-0.00912672933191061,0.012349503114819527
1772045992410470000,1.895469970703125,-0.013122609816491604,-0.011143676936626434,0.005923846736550331
1772045992420454700,1.90545458984375,-0.011979847215116024,-0.0140617024153471,-0.007085695862770081
1772045992430441000,1.91544091796875,-0.004490516148507595,-0.012631981633603573,-0.016248052939772606
1772045992440426000,1.925426025390625,-0.002479829825460911,-0.012357942759990692,-0.01982707530260086
1772045992450411800,1.935411865234375,-0.0027182400226593018,-0.005466217175126076,-0.015280609019100666
1772045992460396800,1.945396728515625,-0.0044202664867043495,-0.002779354341328144,-0.013509075157344341
1772045992470382600,1.955382568359375,-0.008576283231377602,-0.006407498847693205,-0.007003627717494965
1772045992480369000,1.965368896484375,-0.00881277211010456,-0.0062977769412100315,-0.0012794292997568846
1772045992490354000,1.97535400390625,-0.010643308982253075,-0.005746759939938784,0.007317951414734125
1772045992500339700,1.985339599609375,-0.013819660991430283,-0.00395178934559226,0.012727895751595497
1772045992510324700,1.99532470703125,-0.014988585375249386,-0.006076198071241379,0.015817614272236824
1772045992520310500,2.005310546875,-0.012782422825694084,-0.009159074164927006,0.01572440378367901
1772045992530295800,2.0152958984375,-0.011348183266818523,-0.00797258596867323,0.00940228532999754
1772045992540281900,2.02528173828125,-0.0040543172508478165,-0.005137917585670948,0.0042898147366940975
1772045992550266600,2.0352666015625,-0.00544642424210906,-0.0055668591521680355,-0.0005714176222681999
1772045992560252700,2.045252685546875,-0.006668549031019211,-0.0044712345115840435,-0.0013559847138822079
1772045992570237700,2.05523779296875,-0.010998321697115898,-0.005710443016141653,0.0022855596616864204
1772045992580223700,2.0652236328125,-0.01425456814467907,-0.015260804444551468,0.0046531097032129765
1772045992590209800,2.075209716796875,-0.013822891749441624,-0.016054725274443626,0.003059373004361987
1772045992600194800,2.08519482421875,-0.014470572583377361,-0.013638705015182495,0.0017871810123324394
1772045992610180900,2.095180908203125,-0.013037503696978092,-0.02014344371855259,0.0019681109115481377
1772045992620166000,2.105165771484375,-0.012140285223722458,-0.023002080619335175,-0.0030679269693791866
1772045992630151700,2.115151611328125,-0.012393546290695667,-0.026037778705358505,-0.00618323078379035
1772045992640136700,2.12513671875,-0.014214083552360535,-0.025989308953285217,-0.005430355202406645
1772045992650122800,2.135122802734375,-0.011646556667983532,-0.02648046799004078,-0.0021228722762316465
1772045992660107800,2.145107666015625,-0.014125427231192589,-0.024225836619734764,-0.004151135683059692
1772045992670093800,2.15509375,-0.010914824903011322,-0.02315046824514866,-0.0057052141055464745
1772045992680078800,2.165078857421875,-0.01264774426817894,-0.0158733818680048,-0.007218955084681511
1772045992690064600,2.175064697265625,-0.013893937692046165,-0.012412048876285553,-0.00995328277349472
1772045992700051000,2.185051025390625,-0.01746496930718422,-0.011002170853316784,-0.0107008321210742
1772045992710035700,2.19503564453125,-0.012831144966185093,-0.004629134200513363,-0.005515554454177618
1772045992720021800,2.205021728515625,-0.010323246009647846,0.0051611787639558315,0.0007021275814622641
1772045992730006800,2.2150068359375,-0.012306993827223778,0.009726076386868954,0.007487840484827757
1772045992739992800,2.224992919921875,-0.008212383836507797,0.013951714150607586,0.01178698055446148
1772045992749977900,2.234977783203125,-0.006645604036748409,0.012878701090812683,0.010642866604030132
1772045992759963600,2.244963623046875,-0.010148992761969566,0.0029512355104088783,0.005938658490777016
1772045992769948700,2.25494873046875,-0.01538018137216568,-0.007320307195186615,-0.0005393973551690578
1772045992779934700,2.264934814453125,-0.017338937148451805,-0.018682416528463364,-0.006579446606338024
1772045992789919700,2.274919677734375,-0.016193315386772156,-0.027497120201587677,-0.008146349340677261
1772045992799905800,2.28490576171875,-0.011332513764500618,-0.028385285288095474,-0.00958472304046154
1772045992809890800,2.294890869140625,-0.010136108845472336,-0.029247010126709938,-0.010431328788399696
1772045992819876600,2.304876708984375,-0.00956006720662117,-0.020378684625029564,-0.005617132410407066
1772045992829863000,2.31486279296875,-0.006012806203216314,-0.007809068076312542,-0.0011363758239895105
1772045992839847700,2.32484765625,-0.0064429063349962234,-0.004408744163811207,0.0001062552910298109
1772045992849833700,2.334833740234375,-0.006100482773035765,-0.0029890169389545918,0.001246804604306817
1772045992859818800,2.34481884765625,-0.004392065107822418,0.0040324074216187,0.002847364405170083
1772045992869804800,2.3548046875,-0.0023398473858833313,0.00921954307705164,0.0031532796565443277
1772045992879789800,2.364789794921875,-0.0023835226893424988,0.005072735715657473,0.0018392759375274181
1772045992889775900,2.37477587890625,-0.004928938113152981,-0.0011159847490489483,0.006056842394173145
1772045992899760600,2.3847607421875,-0.0043510328978300095,-0.004332817159593105,0.009382864460349083
1772045992909746700,2.39474658203125,-0.004527701996266842,-0.005991412326693535,0.011782577261328697
1772045992919732700,2.404732666015625,-0.00667980220168829,-0.007488907314836979,0.01582499034702778
1772045992929717800,2.4147177734375,-0.003991772420704365,-0.006262011360377073,0.01575048267841339
1772045992939703800,2.424703857421875,-0.006924178916960955,-0.00702474033460021,0.013523280620574951
1772045992949688600,2.4346884765625,-0.005476811435073614,-0.010520676150918007,0.015820175409317017
1772045992959675000,2.4446748046875,-0.004064004868268967,-0.013556679710745811,0.015498199500143528
1772045992969660000,2.454659912109375,-0.006619843654334545,-0.013203582726418972,0.009646371938288212
1772045992979645700,2.464645751953125,0.0022554071620106697,-0.015888581052422523,0.010827483609318733
1772045992989630700,2.474630615234375,-0.003588336519896984,-0.015092187561094761,0.005885683000087738
1772045992999616800,2.48461669921875,-0.0004258332774043083,-0.011369088664650917,0.0033008186146616936
1772045993009601800,2.494601806640625,0.0029774922877550125,-0.01038381177932024,0.003911379724740982
1772045993019587800,2.504587890625,0.00392664410173893,-0.0032691776286810637,-0.0020311980042606592
1772045993029572600,2.514572509765625,0.003475697711110115,-0.00028634353657253087,-0.003486247267574072
1772045993039558700,2.52455859375,0.0010508894920349121,0.0007746598566882312,-0.0007011136040091515
1772045993049544700,2.534544677734375,-0.00011390727013349533,0.00009959458111552522,-0.00027007260359823704
1772045993059529700,2.54452978515625,-0.0010412205010652542,0.0007448784890584648,0.008367091417312622
1772045993069515800,2.554515869140625,-0.002354016527533531,-0.0027850638143718243,0.019363880157470703
1772045993079500800,2.564500732421875,0.0013192817568778992,-0.01606651395559311,0.02301560714840889
1772045993089486800,2.57448681640625,-0.00010772794485092163,-0.014179778285324574,0.011109902523458004
1772045993099472000,2.584471923828125,0.00025472790002822876,-0.00609415490180254,-0.009305623359978199
1772045993109457700,2.594457763671875,0.00007373467087745667,-0.006765787955373526,-0.018332816660404205
1772045993119442700,2.604442626953125,0.003239700570702553,-0.011967208236455917,-0.024421336129307747
1772045993129428700,2.6144287109375,0.0021909475326538086,-0.02031678706407547,-0.01786203309893608
1772045993139413800,2.624413818359375,-0.001436544582247734,-0.017622200772166252,-0.009919955395162106
1772045993149399800,2.63439990234375,-0.00190779659897089,-0.014904092997312546,-0.00044307298958301544
1772045993159385600,2.644385498046875,-0.004379476420581341,-0.008617701940238476,0.002459239913150668
1772045993169370600,2.65437060546875,-0.003955012187361717,-0.002704785903915763,0.005535455886274576
1772045993179357000,2.66435693359375,-0.0052937837317585945,0.00003507423389237374,-0.0019070140551775694
1772045993189341700,2.674341796875,-0.0037346845492720604,0.002885263878852129,-0.011218775995075703
1772045993199327700,2.68432763671875,-0.003032142296433449,0.0030892619397491217,-0.018801327794790268
1772045993209312800,2.694312744140625,-0.0005235709249973297,0.005121737718582153,-0.018937908113002777
1772045993219298800,2.704298828125,-0.0025441115722060204,0.010463772341609001,-0.01745079830288887
1772045993229283800,2.714283935546875,-0.004773834720253944,0.014867260120809078,-0.01162882149219513
1772045993239269600,2.72426953125,-0.002449161373078823,0.01346084475517273,-0.006928608287125826
1772045993249254700,2.734254638671875,-0.0003922572359442711,0.011996186338365078,-0.009234311059117317
1772045993259240700,2.74424072265625,-0.004721492528915405,0.013202066533267498,-0.007805791683495045
1772045993269226800,2.754226806640625,-0.002634572796523571,0.010742946527898312,-0.0036971892695873976
1772045993279211800,2.764211669921875,0.0016869381070137024,0.008918414823710918,-0.003859109478071332
1772045993289197600,2.774197509765625,-0.0017344243824481964,0.0024850170593708754,-0.00727115198969841
1772045993299182600,2.7841826171875,-0.004374416545033455,-0.0030104159377515316,-0.008287680335342884
1772045993309169000,2.7941689453125,-0.006309787277132273,-0.017165258526802063,-0.007955113425850868
1772045993319153700,2.804153564453125,-0.010556996800005436,-0.018938923254609108,-0.008705059066414833
1772045993329139700,2.8141396484375,-0.010187887586653233,-0.021335631608963013,-0.005788120441138744
1772045993339124700,2.824124755859375,-0.007935386151075363,-0.02066504769027233,-0.007530626840889454
1772045993349110800,2.83411083984375,-0.00985819660127163,-0.015021582134068012,-0.007103515788912773
1772045993359095800,2.844095703125,-0.007966553792357445,-0.002012573415413499,-0.006822818890213966
1772045993369081900,2.854081787109375,-0.003810078836977482,0.010532459244132042,-0.008761641569435596
1772045993379067600,2.864067626953125,-0.0011421237140893936,0.024642953649163246,-0.010806948877871037
1772045993389052700,2.874052734375,-0.002378656528890133,0.03469338268041611,-0.011664117686450481
1772045993399038700,2.884038818359375,-0.0011767717078328133,0.03849824145436287,-0.018154241144657135
1772045993409023700,2.894023681640625,0.0005561597645282745,0.034977320581674576,-0.01425371877849102
1772045993419009800,2.904009765625,-0.007053823210299015,0.026772387325763702,-0.012486977502703667
1772045993428994600,2.91399462890625,-0.0062289671041071415,0.018939264118671417,-0.007998030632734299
1772045993438980900,2.92398095703125,-0.0054284208454191685,0.01925112120807171,-0.003376648062840104
1772045993448966000,2.9339658203125,-0.0009266743436455727,0.011050710454583168,0.002149596344679594
1772045993458951700,2.94395166015625,-0.00028298795223236084,0.00934735219925642,0.005331008695065975
1772045993468936700,2.953936767578125,-0.005436990410089493,0.005466497037559748,0.006394756957888603
1772045993478922800,2.9639228515625,-0.0068764290772378445,0.000762821757234633,0.007913557812571526
1772045993488908800,2.97390869140625,-0.006408439017832279,-0.00331057608127594,0.003479558043181896
1772045993498893800,2.983893798828125,-0.005359685979783535,-0.009496566839516163,0.000236893305554986
1772045993508879600,2.993879638671875,-0.0021901829168200493,-0.010751807130873203,-0.002473243046551943
1772045993518865000,3.003864990234375,0.003984089940786362,-0.015326051972806454,-0.00978122279047966
1772045993528850700,3.0138505859375,0.004553221166133881,-0.015097117982804775,-0.012112738564610481
1772045993538835700,3.023835693359375,0.009398309513926506,-0.010144970379769802,-0.016604159027338028
1772045993548822000,3.033822021484375,0.010997305624186993,-0.00313035910949111,-0.01653123088181019
1772045993558806800,3.043806884765625,0.010224456898868084,0.0037288786843419075,-0.015522691421210766
1772045993568792800,3.053792724609375,0.012385262176394463,0.007713552098721266,-0.009386193007230759
1772045993578777900,3.06377783203125,0.010819589719176292,0.011987127363681793,-0.007608533371239901
1772045993588764000,3.073763916015625,0.006457584910094738,0.014533612877130508,-0.005331369116902351
1772045993598749000,3.0837490234375,0.004501492716372013,0.010531414300203323,-0.0007776306010782719
1772045993608734700,3.093734619140625,0.0023985756561160088,0.005922066047787666,0.003044848097488284
1772045993618720800,3.103720703125,0.0034356098622083664,-0.0055638812482357025,0.0019417668227106333
1772045993628706000,3.1137060546875,0.0013379240408539772,-0.011538607999682426,-0.0012284803669899702
1772045993638691800,3.12369189453125,-0.007822285406291485,-0.01703856885433197,-0.0021089210640639067
1772045993648676900,3.1336767578125,-0.009928790852427483,-0.014651700854301453,-0.0038119517266750336
1772045993658663000,3.143662841796875,-0.012611392885446548,-0.015156103298068047,-0.0030196616426110268
1772045993668647700,3.153647705078125,-0.009833336807787418,-0.009383289143443108,-0.0075338417664170265
1772045993678634000,3.163634033203125,-0.010401388630270958,-0.000013223369023762643,-0.0035918308421969414
1772045993688619000,3.173618896484375,-0.012273396365344524,0.00396723160520196,-0.0026356547605246305
1772045993698604800,3.183604736328125,-0.015210064128041267,0.005081498064100742,0.0017167493933811784
1772045993708589800,3.19358984375,-0.0133493822067976,0.0107260225340724,0.001726460992358625
1772045993718575900,3.203575927734375,-0.012253757566213608,0.01088394783437252,-0.003539940109476447
1772045993728562000,3.21356201171875,-0.009679839946329594,0.012792297638952732,-0.008933004923164845
1772045993738547000,3.223546875,-0.00863428320735693,0.014632541686296463,-0.010844090022146702
1772045993748532700,3.23353271484375,-0.013244452886283398,0.014803055673837662,-0.006520283408463001
1772045993758518000,3.24351806640625,-0.0143739003688097,0.012735910713672638,0.0012971593532711267
1772045993768503800,3.25350390625,-0.014893386512994766,0.01192935649305582,0.009080019779503345
1772045993778488800,3.26348876953125,-0.014089643955230713,0.0051713185384869576,0.004206701181828976
1772045993788475000,3.273474853515625,-0.012882696464657784,0.0013034699950367212,0.0029667564667761326
1772045993798459600,3.283459716796875,-0.00718832528218627,0.005289156921207905,-0.006739666685461998
1772045993808446000,3.293446044921875,-0.0003171302378177643,0.009425241500139236,-0.008854114450514317
1772045993818431000,3.303430908203125,0.00020857807248830795,0.008274223655462265,-0.0063179861754179
1772045993828416800,3.313416748046875,-0.009080654941499233,0.009969276376068592,-0.006460158154368401
1772045993838402800,3.32340283203125,-0.021571679040789604,0.0032554473727941513,-0.011046120896935463
1772045993848387800,3.333387939453125,-0.03228157013654709,-0.00004563850234262645,-0.01444210298359394
1772045993858374000,3.343373779296875,-0.03637884184718132,-0.005125618539750576,-0.014122257009148598
1772045993868359000,3.35335888671875,-0.035190336406230927,-0.009054622612893581,-0.00516778789460659
1772045993878344700,3.3633447265625,-0.026318814605474472,-0.011961995624005795,0.0060039060190320015
1772045993888330000,3.373330078125,-0.017638249322772026,-0.008984444662928581,0.015051444061100483
1772045993898316000,3.38331591796875,-0.008992296643555164,0.002512154867872596,0.016734294593334198
1772045993908300800,3.39330078125,-0.004380061291158199,0.006717436946928501,0.018489276990294456
1772045993918286800,3.403286865234375,-0.002643946558237076,0.014584415592253208,0.015345149673521519
1772045993928272000,3.41327197265625,-0.008014090359210968,0.01532948762178421,0.005727880168706179
1772045993938258000,3.4232578125,-0.007860425859689713,0.016972657293081284,-0.00043973466381430626
1772045993948244000,3.433243896484375,-0.013947377912700176,0.009196383878588676,-0.0009054813999682665
1772045993958228700,3.443228759765625,-0.018135197460651398,0.0020066481083631516,-0.002045846777036786
1772045993968214800,3.45321484375,-0.020145641639828682,-0.0032113157212734222,-0.000660038786008954
1772045993978200000,3.463199951171875,-0.018222840502858162,-0.004639036487787962,0.0018467948539182544
1772045993988185900,3.473185791015625,-0.013076068833470345,-0.006445067934691906,0.0035727277863770723
1772045993998171000,3.4831708984375,-0.009505302645266056,-0.004822404123842716,0.008042044937610626
1772045994008156700,3.49315673828125,-0.005113330669701099,-0.008226869627833366,0.005137724801898003
1772045994018142000,3.503141845703125,-0.007495528552681208,-0.004855840466916561,0.0025360826402902603
1772045994028128000,3.5131279296875,-0.007563971448689699,-0.004215882159769535,0.0032189171761274338
1772045994038112800,3.52311279296875,-0.0064443787559866905,-0.0036920385900884867,0.0040871077217161655
1772045994048098800,3.533098876953125,-0.01072546374052763,-0.0023656461853533983,0.006654818542301655
1772045994058084900,3.5430849609375,-0.009320380166172981,0.0032216657418757677,0.007048700004816055
1772045994068070000,3.55306982421875,-0.007753268349915743,0.00970939639955759,0.007240617647767067
1772045994078056000,3.563055908203125,-0.00029002595692873,0.010923531837761402,0.005880008451640606
1772045994088040700,3.573040771484375,0.004188193939626217,0.013058734126389027,0.008381925523281097
1772045994098026800,3.58302685546875,0.011829334311187267,0.01202809065580368,0.0057778870686888695
1772045994108012000,3.593011962890625,0.010595997795462608,0.015117286704480648,0.001873262575827539
1772045994117997800,3.602997802734375,0.011846352368593216,0.01419530063867569,-0.00038456544280052185
1772045994127982800,3.61298291015625,0.00973900593817234,0.012051091529428959,-0.0029115567449480295
1772045994137969000,3.622968994140625,0.008387718349695206,0.006336214020848274,-0.003854049602523446
1772045994147953700,3.63295361328125,0.006221044808626175,0.0043472726829349995,-0.005732213146984577
1772045994157940000,3.64293994140625,0.001612178049981594,-0.001265605678781867,-0.003123647766187787
1772045994167925800,3.65292578125,0.005509961396455765,-0.0030038817785680294,-0.0030608996748924255
1772045994177910800,3.662910888671875,0.009579004719853401,-0.007399961818009615,-0.007781618740409613
1772045994187897000,3.67289697265625,0.013547679409384727,-0.011120997369289398,-0.0103876031935215
1772045994197881900,3.6828818359375,0.014803094789385796,-0.009867181070148945,-0.009530065581202507
1772045994207868000,3.692867919921875,0.016479525715112686,-0.00729011045768857,-0.009884696453809738
1772045994217853000,3.70285302734375,0.015770860016345978,-0.008579347282648087,-0.009712123312056065
1772045994227838700,3.712838623046875,0.01326532382518053,-0.008771028369665146,-0.009117623791098595
1772045994237824000,3.722823974609375,0.009445286355912685,-0.010979854501783848,-0.012970153242349625
1772045994247809800,3.732809814453125,0.010544877499341965,-0.011684863828122616,-0.013501884415745735
1772045994257794800,3.742794921875,0.007186099886894226,-0.003219474107027054,-0.014269672334194183
1772045994267780900,3.75278076171875,0.004034854471683502,0.0007485575042665005,-0.010172816924750805
1772045994277765600,3.762765625,0.004762163385748863,0.003112379228696227,-0.011565649881958961
1772045994287752000,3.772751953125,0.004223953932523727,0.001503717852756381,-0.014911515638232231
1772045994297737700,3.78273779296875,0.00634356401860714,-0.00023399479687213898,-0.012363402172923088
1772045994307722800,3.79272265625,0.008991265669465065,0.001653485232964158,-0.011491565965116024
1772045994317709000,3.802708984375,0.009106580168008804,0.008205926977097988,-0.006791885010898113
1772045994327693800,3.81269384765625,0.006830229423940182,0.010767275467514992,-0.005232399795204401
1772045994337680000,3.822679931640625,0.00669467356055975,0.011892194859683514,-0.0024376786313951015
1772045994347665000,3.832664794921875,0.0019150301814079285,0.006192059256136417,0.0018418548861518502
1772045994357650700,3.842650634765625,0.0012598922476172447,-0.0023958359379321337,-0.00003567361272871494
1772045994367636000,3.852635986328125,-0.0021356232464313507,-0.006692551076412201,-0.0012544970959424973
1772045994377622000,3.8626220703125,-0.0035905083641409874,-0.013997867703437805,-0.0012148157693445683
1772045994387607800,3.87260791015625,-0.0027723852545022964,-0.01450679823756218,-0.001543982420116663
1772045994397592800,3.8825927734375,-0.0009433263912796974,-0.009176481515169144,-0.003502471372485161
1772045994407579000,3.892578857421875,0.0019432222470641136,-0.0014880774542689323,-0.005255425348877907
1772045994417564000,3.90256396484375,0.005091877654194832,0.003346359124407172,-0.006706582382321358
1772045994427550000,3.912550048828125,0.005185727961361408,0.007013816386461258,-0.01195288635790348
1772045994437534700,3.92253466796875,0.0059790825471282005,0.007938732393085957,-0.017470423132181168
1772045994447521000,3.93252099609375,0.005304297432303429,0.004472099244594574,-0.02070634812116623
1772045994457506000,3.942506103515625,0.004375919699668884,-0.0016939177876338363,-0.01873401179909706
1772045994467491800,3.952491943359375,0.0031408583745360374,-0.005457616876810789,-0.019601259380578995
1772045994477476900,3.962476806640625,-0.0022102314978837967,-0.013240438885986805,-0.02023349516093731
1772045994487462700,3.972462646484375,0.0011538993567228317,-0.016402339562773705,-0.011335975490510464
1772045994497449000,3.982448974609375,0.0010058274492621422,-0.014044908806681633,-0.00962835643440485
1772045994507434000,3.99243408203125,0.005469399504363537,-0.011517422273755074,-0.0077224550768733025
1772045994517420000,4.002419921875,0.008408729918301105,-0.008476624265313148,-0.007322714664041996
1772045994527405000,4.012405029296875,0.007313132286071777,-0.010039955377578735,-0.006089531350880861
1772045994537390800,4.022390869140625,0.0028547346591949463,-0.009231952019035816,-0.007845619693398476
1772045994547375900,4.0323759765625,0.003925006836652756,-0.0155833400785923,-0.009915732778608799
1772045994557362200,4.042362060546875,0.0013537248596549034,-0.021557077765464783,-0.006187839433550835
1772045994567347000,4.052346923828125,-0.0002874806523323059,-0.017878474667668343,-0.006798175163567066
1772045994577333000,4.0623330078125,-0.0021807216107845306,-0.01660734787583351,-0.00736596155911684
1772045994587318000,4.072318115234375,-0.0017578871920704842,-0.014123857952654362,-0.008350694552063942
1772045994597304000,4.082303955078125,-0.0009948918595910072,-0.009944559074938297,-0.008419937454164028
1772045994607289000,4.0922890625,-0.0026455698534846306,-0.0034702897537499666,-0.008829060941934586
1772045994617275000,4.10227490234375,-0.004610982723534107,0.0013015621807426214,-0.005856173578649759
1772045994627261000,4.112260986328125,-0.002665391191840172,-0.0016163438558578491,-0.003632045118138194
1772045994637246000,4.122245849609375,-0.00093886349350214,-0.0019977085758000612,-0.0013116325717419386
1772045994647232000,4.13223193359375,-0.0025963149964809418,-0.0036225244402885437,0.0006362639833241701
1772045994657217000,4.142217041015625,-0.0018474338576197624,-0.006555996835231781,0.002950550988316536
1772045994667203000,4.152203125,-0.0028806226328015327,-0.00970233604311943,0.004026141483336687
1772045994677187800,4.162187744140625,-0.003476903773844242,-0.01400414016097784,0.005421371199190617
1772045994687174100,4.172174072265625,-0.005195343401283026,-0.01818891428411007,0.006369228474795818
1772045994697159200,4.1821591796875,-0.004083207808434963,-0.023899530991911888,0.004977460950613022
1772045994707145000,4.19214501953125,-0.002066340297460556,-0.021056601777672768,0.003900296287611127
1772045994717130000,4.2021298828125,0.0004926910623908043,-0.017624054104089737,0.0027924212627112865
1772045994727116000,4.212115966796875,-0.0018280278891324997,-0.014702806249260902,0.0013918861513957381
1772045994737102000,4.22210205078125,-0.0030693281441926956,-0.013195989653468132,-0.004171457141637802
1772045994747087000,4.232087158203125,-0.0032788701355457306,-0.013035831972956657,-0.0022111055441200733
1772045994757073000,4.242072998046875,-0.005634968634694815,-0.014942388981580734,-0.0003908348735421896
1772045994767058000,4.252057861328125,-0.010702431201934814,-0.015204976312816143,0.0015237117186188698
1772045994777044000,4.2620439453125,-0.009015585295855999,-0.014810029417276382,0.0006917400751262903
1772045994787029000,4.272029052734375,-0.006113138515502214,-0.009671904146671295,0.0018275990150868893
1772045994797015000,4.28201513671875,-0.009251140989363194,-0.004693391267210245,-0.0011245151981711388
1772045994806999800,4.291999755859375,-0.009257867932319641,-0.00338342715986073,-0.0027694262098520994
1772045994816986000,4.301986083984375,-0.00861444789916277,0.0018283789977431297,-0.0013552873861044645
1772045994826971100,4.31197119140625,-0.005961240269243717,0.006620227359235287,0.002161621581763029
1772045994836957000,4.32195703125,-0.0018136333674192429,0.009725739248096943,0.00400293106213212
1772045994846943000,4.33194287109375,0.0002998514100909233,0.013853905722498894,0.0018894464010372758
1772045994856928000,4.341927978515625,0.0019081346690654755,0.01347280666232109,0.0068485187366604805
1772045994866914000,4.3519140625,0.0000309990718960762,0.011074945330619812,0.0059579163789749146
1772045994876899000,4.361899169921875,0.0006408626213669777,0.00048062432324513793,0.006148332729935646
1772045994886884900,4.371884765625,-0.007698940113186836,-0.009530610404908657,0.008753825910389423
1772045994896870000,4.381869873046875,-0.007568178698420525,-0.017720630392432213,0.010357581079006195
1772045994906856000,4.39185595703125,-0.000527392141520977,-0.021212512627243996,0.011429810896515846
1772045994916841000,4.401841064453125,0.0016196481883525848,-0.019460152834653854,0.0030368587467819452
1772045994926827000,4.411826904296875,0.004626861773431301,-0.011296570301055908,-0.0024337044451385736
1772045994936812000,4.42181201171875,0.00498159509152174,-0.001614115433767438,-0.003726669354364276
1772045994946798000,4.431798095703125,0.00571018923074007,0.012967120856046677,-0.006994101218879223
1772045994956784000,4.4417841796875,0.0074471039697527885,0.017946435138583183,-0.006965871900320053
1772045994966769000,4.451768798828125,0.006578721106052399,0.01714233309030533,-0.003101194743067026
1772045994976755000,4.4617548828125,0.007709763944149017,0.013075951486825943,0.0011215133126825094
1772045994986740000,4.471739990234375,0.009578684344887733,0.011466527357697487,0.002092256210744381
1772045994996726000,4.48172607421875,0.007851090282201767,0.002665312960743904,-0.000271831639111042
1772045995006711000,4.4917109375,0.005079727619886398,-0.0022588176652789116,0.0018502152524888515
1772045995016696800,4.50169677734375,0.006946336477994919,-0.003119284985587001,0.007425542920827866
1772045995026681900,4.511681884765625,0.008011973462998867,-0.005523303523659706,0.008034997619688511
1772045995036668200,4.521668212890625,0.008131814189255238,-0.008156904019415379,0.009742616675794125
1772045995046653000,4.53165283203125,0.010466637089848518,-0.005537346936762333,0.012937242165207863
1772045995056639000,4.541638916015625,0.012062402442097664,-0.000027000423870049417,0.00985196977853775
1772045995066624800,4.551624755859375,0.009263679385185242,0.0007122537354007363,0.0063360026106238365
1772045995076610000,4.561610107421875,0.009541714563965797,-0.0017825956456363201,0.002117555122822523
1772045995086596000,4.57159619140625,0.009630895219743252,-0.0037431493401527405,0.0025823600590229034
1772045995096580900,4.581580810546875,0.006201541982591152,-0.0026627047918736935,-0.0011093139182776213
1772045995106567000,4.59156689453125,0.0050209639593958855,-0.0015284643741324544,-0.002173246582970023
1772045995116552000,4.601552001953125,0.006743761710822582,-0.003323168493807316,-0.0032070858869701624
1772045995126538000,4.6115380859375,0.005119181238114834,0.004675493575632572,-0.006271647289395332
1772045995136523000,4.62152294921875,0.0010679801926016808,0.010095292702317238,-0.003934456966817379
1772045995146509000,4.631509033203125,0.004879382438957691,0.012796922586858273,-0.007483794819563627
1772045995156493800,4.641493896484375,0.006992333568632603,0.012986806221306324,-0.010010335594415665
1772045995166480100,4.651480224609375,0.005164409056305885,0.011161786504089832,-0.010208865627646446
1772045995176466000,4.6614658203125,0.005870679393410683,0.013072870671749115,-0.010514862835407257
1772045995186451000,4.671450927734375,0.004913105629384518,0.008581694215536118,-0.005969050340354443
1772045995196437000,4.68143701171875,0.0034598177298903465,0.0032684211619198322,0.0006696777418255806
1772045995206422000,4.691422119140625,0.0035348059609532356,0.0034522993955761194,0.005035786889493465
1772045995216408000,4.701407958984375,-0.00046765897423028946,-0.0028071943670511246,0.010714178904891014
1772045995226393000,4.71139306640625,0.0013449108228087425,-0.0057062795385718346,0.009119313210248947
1772045995236379000,4.72137890625,-0.003883673809468746,-0.005458605941385031,0.00929215271025896
1772045995246364000,4.731364013671875,-0.0007337750867009163,-0.007149789482355118,0.008634372614324093
1772045995256350000,4.741349853515625,-0.0007529500871896744,-0.005165201611816883,0.0014984325971454382
1772045995266335000,4.7513349609375,0.000036271288990974426,-0.006169164553284645,-0.0040271347388625145
1772045995276321000,4.761321044921875,-0.0009128795936703682,-0.0037720531690865755,-0.00389477564021945
1772045995286305800,4.771305908203125,-0.003462676890194416,-0.009184736758470535,-0.0004179980605840683
1772045995296292000,4.7812919921875,-0.0031154006719589233,-0.008383657783269882,0.0031690136529505253
1772045995306278000,4.79127783203125,-0.00450094323605299,-0.0026879780925810337,0.005740889348089695
1772045995316263000,4.801262939453125,-0.002347511239349842,0.0015773407649248838,0.0032668125350028276
1772045995326249000,4.8112490234375,-0.00857684388756752,0.0026567645836621523,0.0036461898125708103
1772045995336234000,4.82123388671875,-0.011475960724055767,0.0028623605612665415,0.003616096219047904
1772045995346220000,4.831219970703125,-0.006862102076411247,0.005398976616561413,0.005461256951093674
1772045995356205000,4.841205078125,-0.005144096910953522,0.012346631847321987,0.004568831995129585
1772045995366190800,4.85119091796875,-0.005051658488810062,0.01593025214970112,-0.00033042137511074543
1772045995376175900,4.86117578125,-0.0023392289876937866,0.02261132374405861,0.0014499019598588347
1772045995386162000,4.871161865234375,-0.0009022271260619164,0.019387327134609222,-0.00022041238844394684
1772045995396148000,4.88114794921875,-0.0034285010769963264,0.0143515570089221,0.0031716558150947094
1772045995406133000,4.891133056640625,-0.009527253918349743,-0.0009282100945711136,0.0038386345840990543
1772045995416119000,4.901119140625,-0.01311959233134985,-0.010981643572449684,-0.00045225047506392
1772045995426104000,4.91110400390625,-0.013933945447206497,-0.01625579409301281,-0.003259509103372693
1772045995436090000,4.921090087890625,-0.013440994545817375,-0.021390369161963463,-0.0018738664221018553
1772045995446075000,4.931074951171875,-0.014514235779643059,-0.015006070025265217,-0.000777627807110548
1772045995456061000,4.94106103515625,-0.011051859706640244,-0.00828638207167387,-0.00212678499519825
1772045995466046200,4.951046142578125,-0.00874008797109127,-0.0007705943426117301,-0.001575450412929058
1772045995476032000,4.961031982421875,-0.0038947323337197304,0.007745129521936178,-0.0016995538026094437
1772045995486017000,4.97101708984375,-0.0036130044609308243,0.011253377422690392,-0.0011053190100938082
1772045995496002800,4.9810029296875,-0.0005650166422128677,0.00943683460354805,-0.005641481839120388
1772045995505987800,4.99098779296875,-0.0006796736270189285,0.010613201186060905,-0.005787463393062353
1772045995515973600,5.0009736328125,-0.004143913276493549,0.005140938796103001,-0.012299956753849983
1772045995525959700,5.010959716796875,-0.006028734613209963,-0.004660042934119701,-0.013489450328052044
1772045995535944700,5.02094482421875,-0.00969430897384882,-0.006300018168985844,-0.014497189782559872
1772045995545930800,5.0309306640625,-0.01211926806718111,-0.015208904631435871,-0.005475259386003017
1772045995555915500,5.04091552734375,-0.009708041325211525,-0.017182309180498123,0.00025186873972415924
1772045995565901600,5.050901611328125,-0.005626840051263571,-0.015867086127400398,0.00436561182141304
1772045995575886800,5.060886962890625,-0.0052071260288357735,-0.01332589890807867,0.002129355678334832
1772045995585872600,5.07087255859375,-0.003739798441529274,-0.009222940541803837,0.00047483667731285095
1772045995595857700,5.080857666015625,-0.004882027395069599,-0.010794205591082573,0.0002825565170496702
1772045995605843500,5.090843505859375,-0.006194066721946001,-0.007672203704714775,-0.0020055705681443214
1772045995615828500,5.100828369140625,-0.00046640634536743164,-0.011811821721494198,0.00018088496290147305
1772045995625814800,5.110814697265625,0.005854046903550625,-0.00986032746732235,0.0009082963224500418
1772045995635800600,5.120800537109375,0.0009186770766973495,-0.00829918310046196,0.0014734191354364157
1772045995645785600,5.13078564453125,-0.0024033617228269577,0.0013117312919348478,0.000021913787350058556
1772045995655771600,5.140771728515625,-0.0017152009531855583,0.0010912215802818537,-0.001328575424849987
1772045995665756700,5.150756591796875,-0.0022970112040638924,0.004546521231532097,-0.0020462549291551113
1772045995675742700,5.16074267578125,0.0029121320694684982,0.005128155462443829,-0.004811148624867201
1772045995685727500,5.1707275390625,0.005034174770116806,0.007072729989886284,-0.006152666173875332
1772045995695713500,5.180713623046875,0.008053665980696678,0.006976057309657335,-0.009532217867672443
1772045995705698800,5.19069873046875,0.0083968136459589,0.0103074936196208,-0.006889008916914463
1772045995715684600,5.2006845703125,0.01061788946390152,0.004394743125885725,-0.0027216945309191942
1772045995725669600,5.210669677734375,0.009266991168260574,-0.0020809888374060392,0.0002963622100651264
1772045995735655400,5.220655517578125,0.009050743654370308,-0.0029742131009697914,0.0029856222681701183
1772045995745641700,5.230641845703125,0.011883439496159554,-0.0069885035045444965,0.004602879285812378
1772045995755626800,5.240626708984375,0.010928163304924965,-0.0127079077064991,0.0035629146732389927
1772045995765612500,5.250612548828125,0.012149473652243614,-0.012005002237856388,0.0081775588914752
1772045995775597600,5.26059765625,0.011860255151987076,-0.010259300470352173,0.007283269427716732
1772045995785583600,5.27058349609375,0.008800549432635307,-0.007217171601951122,0.007774089463055134
1772045995795568600,5.280568603515625,0.006473477929830551,-0.0017401145305484533,0.008171966299414635
1772045995805554700,5.2905546875,0.002723454497754574,-0.005159152206033468,0.008951043710112572
1772045995815539700,5.300539794921875,0.003171131946146488,-0.007509391754865646,0.01002216711640358
1772045995825525500,5.310525390625,0.0013236310333013535,-0.011777683161199093,0.008193496614694595
1772045995835510800,5.3205107421875,-0.0010585663840174675,-0.007650317158550024,0.005046972073614597
1772045995845495800,5.330495849609375,-0.0015877699479460716,-0.000784887233749032,0.0038214665837585926
1772045995855481600,5.340481689453125,-0.0005824267864227295,0.004901494365185499,-0.0028564096428453922
1772045995865467600,5.350467529296875,-0.0006583677604794502,0.007582524791359901,-0.004421794321388006
1772045995875452400,5.360452392578125,0.00021168682724237442,0.011588452383875847,-0.005326203536242247
1772045995885438700,5.370438720703125,0.0018943464383482933,0.011903410777449608,-0.0005027896258980036
1772045995895423700,5.380423828125,0.003031516447663307,0.013818756677210331,0.00005993642844259739
1772045995905409500,5.390409423828125,0.0024532293900847435,0.016944095492362976,0.006113690789788961
1772045995915394600,5.40039453125,-0.0008176648989319801,0.013652960769832134,0.009527597576379776
1772045995925380600,5.410380615234375,-0.00900207832455635,0.00667325034737587,0.01138123869895935
1772045995935365600,5.42036572265625,-0.012564589269459248,-0.002950082067400217,0.007081832271069288
1772045995945351700,5.4303515625,-0.017000148072838783,-0.016343163326382637,0.0044001503847539425
1772045995955336400,5.44033642578125,-0.016405463218688965,-0.019925646483898163,-0.0022369795478880405
1772045995965322800,5.45032275390625,-0.013210304081439972,-0.023328345268964767,-0.003394982311874628
1772045995975307800,5.460307861328125,-0.010524772107601166,-0.022655630484223366,-0.005452007986605167
1772045995985293600,5.47029345703125,-0.008121373131871223,-0.01398368552327156,-0.0029718903824687004
1772045995995279600,5.480279541015625,-0.010923551395535469,-0.005537203513085842,-0.0004791715182363987
1772045996005264600,5.4902646484375,-0.008133201859891415,0.0032948842272162437,-0.0013168558944016695
1772045996015250700,5.500250732421875,-0.009743348695337772,0.009070482105016708,-0.0022103467490524054
1772045996025235700,5.510235595703125,-0.007778787054121494,0.013268014416098595,-0.0013757739216089249
1772045996035221500,5.520221435546875,-0.007107670418918133,0.007678305264562368,-0.004313773009926081
1772045996045206500,5.53020654296875,-0.004365413449704647,0.001038512447848916,-0.0032245400361716747
1772045996055192800,5.54019287109375,-0.004910562187433243,-0.0030893872026354074,-0.0008529950864613056
1772045996065177600,5.550177490234375,-0.009605996310710907,-0.009191123768687248,0.001248423010110855
1772045996075163600,5.56016357421875,-0.00860145129263401,-0.016713222488760948,0.005561145953834057
1772045996085149400,5.5701494140625,-0.00733031053096056,-0.017354076728224754,0.01128755696117878
1772045996095134700,5.580134765625,-0.007521259598433971,-0.012416576035320759,0.01069260761141777
1772045996105120800,5.590120849609375,-0.003650989383459091,-0.011166732758283615,0.007784640416502953
1772045996115105500,5.60010546875,-0.006300568114966154,-0.01092731487005949,0.005253305658698082
1772045996125091600,5.610091552734375,-0.008408764377236366,-0.0024536417331546545,0.0008609739597886801
1772045996135076600,5.62007666015625,-0.008863365277647972,-0.0016048923134803772,-0.0032040749210864305
1772045996145062700,5.630062744140625,-0.007976507768034935,-0.002859170315787196,-0.007139530032873154
1772045996155047700,5.640047607421875,-0.007712589111179113,-0.003757721045985818,-0.011217095889151096
1772045996165033500,5.650033447265625,-0.010141177102923393,-0.0013253306970000267,-0.01403957698494196
1772045996175018500,5.6600185546875,-0.008222103118896484,0.004785025957971811,-0.01082114689052105
1772045996185004800,5.6700048828125,-0.00673566572368145,0.009592346847057343,-0.00884671974927187
1772045996194989600,5.679989501953125,-0.0025169523432850838,0.01529071293771267,-0.004856771789491177
1772045996204975600,5.6899755859375,-0.001343458890914917,0.01924579031765461,-0.006610872223973274
1772045996214961400,5.69996142578125,-0.0014281468465924263,0.01750355027616024,-0.0024510144721716642
1772045996224946400,5.709946533203125,0.001088806428015232,0.01416554395109415,-0.0015460725408047438
1772045996234932700,5.7199326171875,0.0013476656749844551,0.011305308900773525,-0.003268338507041335
1772045996244917500,5.72991748046875,0.0006511686369776726,0.0012146453373134136,-0.006685932166874409
1772045996254903600,5.739903564453125,-0.0015041269361972809,-0.0017108370084315538,-0.005351688712835312
1772045996264888600,5.749888671875,0.0000899219885468483,-0.0057900091633200645,-0.0015850788913667202
1772045996274874600,5.75987451171875,-0.0011314032599329948,-0.011266267858445644,0.000488724559545517
1772045996284860700,5.769860595703125,-0.003616900183260441,-0.011915880255401134,0.00023058406077325344
1772045996294845700,5.779845703125,-0.00041471607983112335,-0.00821887981146574,0.0001349765807390213
1772045996304831500,5.78983154296875,0.0021308213472366333,-0.003972926177084446,-0.002320745261386037
1772045996314816800,5.799816650390625,0.0015310775488615036,0.00255421525798738,-0.003577224677428603
1772045996324802600,5.809802490234375,0.0015373239293694496,0.004070805385708809,-0.002346373163163662
1772045996334787600,5.81978759765625,0.00524337962269783,0.0050465879030525684,-0.005642035510390997
1772045996344773600,5.829773681640625,0.00392103660851717,0.0012939802836626768,-0.0045333197340369225
1772045996354758400,5.83975830078125,0.002785465680062771,-0.0033108913339674473,-0.004146096296608448
1772045996364744700,5.84974462890625,0.0025062933564186096,0.0025564120151102543,-0.0066850511357188225
1772045996374729700,5.859729736328125,-0.0014381147921085358,0.0034549625124782324,-0.0045976657420396805
1772045996384715500,5.869715576171875,-0.004455922171473503,0.006512879393994808,-0.009505093097686768
1772045996394701800,5.879701904296875,-0.0067600891925394535,0.0030118878930807114,-0.011431091465055943
1772045996404686600,5.8896865234375,-0.0044005317613482475,0.00745631055906415,-0.010800478048622608
1772045996414672600,5.899672607421875,-0.0005442742258310318,0.010203361511230469,-0.012144043110311031
1772045996424657700,5.90965771484375,-0.00018681306391954422,0.010676205158233643,-0.007744130678474903
1772045996434643500,5.9196435546875,-0.00040785595774650574,0.012106855399906635,-0.008523637428879738
1772045996444628700,5.929628662109375,0.0009692907333374023,0.01704069785773754,-0.0027244396042078733
1772045996454614500,5.939614501953125,-0.001319962553679943,0.009344161488115788,-0.00448665302246809
1772045996464599600,5.949599609375,-0.0053864954970777035,0.003523437539115548,-0.004634848330169916
1772045996474585600,5.959585693359375,-0.010932528413832188,-0.008191009052097797,-0.004926996771246195
1772045996484570600,5.969570556640625,-0.011900003999471664,-0.014128385111689568,-0.005536000244319439
1772045996494556700,5.979556640625,-0.012066185474395752,-0.019654709845781326,-0.005588464438915253
1772045996504542500,5.98954248046875,-0.012530514039099216,-0.017284449189901352,-0.004219107795506716
1772045996514527500,5.999527587890625,-0.013761692680418491,-0.014890799298882484,-0.006560559384524822
1772045996524514300,6.009514404296875,-0.00820518471300602,-0.006987792905420065,-0.005187454167753458
1772045996534499000,6.0194990234375,-0.00675163185223937,0.0007787837530486286,-0.009529471397399902
1772045996544485400,6.0294853515625,-0.006154333706945181,0.009211048483848572,-0.012800898402929306
1772045996554470400,6.039470458984375,-0.0048722876235842705,0.012218821793794632,-0.01433461345732212
1772045996564456200,6.049456298828125,-0.0031506940722465515,0.008545002900063992,-0.016117969527840614
1772045996574441200,6.059441162109375,-0.003372003324329853,0.0024122754111886024,-0.01239487249404192
1772045996584427300,6.06942724609375,-0.0042581018060445786,0.002336635021492839,-0.007375691086053848
1772045996594412300,6.079412353515625,-0.00489859189838171,0.004699125420302153,-0.000961467856541276
1772045996604398300,6.0893984375,-0.007780333049595356,-0.0038000429049134254,0.00666170846670866
1772045996614384000,6.099384033203125,-0.003711821511387825,-0.003490583738312125,0.0040696533396840096
1772045996624369400,6.109369384765625,-0.0016432572156190872,-0.0009602388017810881,0.000713250832632184
1772045996634355200,6.119355224609375,0.0012694420292973518,-0.006662333384156227,-0.004146485589444637
1772045996644340200,6.12934033203125,0.0034173335880041122,-0.007173251826316118,-0.007517719175666571
1772045996654326300,6.139326171875,0.0023177145048975945,-0.011807417497038841,-0.007266317028552294
1772045996664311300,6.149311279296875,-0.0014579743146896362,-0.009504898451268673,-0.009743016213178635
1772045996674297300,6.15929736328125,-0.0015322770923376083,-0.006200448144227266,-0.010755550116300583
1772045996684282400,6.169282470703125,-0.0015231873840093613,-0.008464199490845203,-0.008214711211621761
1772045996694268200,6.17926806640625,-0.001954087056219578,-0.007892685942351818,-0.006631728261709213
1772045996704253200,6.189253173828125,-0.0021033165976405144,-0.004940243437886238,-0.006877804175019264
1772045996714239200,6.1992392578125,-0.003534765914082527,-0.0014416485792025924,-0.008520973846316338
1772045996724225300,6.209225341796875,-0.00007513538002967834,0.005554261151701212,-0.011004328727722168
1772045996734210300,6.219210205078125,0.0019193058833479881,0.008245386183261871,-0.011660266667604446
1772045996744196000,6.229196044921875,0.003439144231379032,0.009122027084231377,-0.011807436123490334
1772045996754181400,6.239181396484375,0.003709721378982067,0.01157293375581503,-0.010195424780249596
1772045996764167400,6.24916748046875,0.004099011421203613,0.0105134854093194,-0.008677568286657333
1772045996774152200,6.259152099609375,0.006291592493653297,0.012539885006844997,-0.006286315619945526
1772045996784138200,6.26913818359375,0.0030529992654919624,0.007299794815480709,-0.009609980508685112
1772045996794123300,6.279123291015625,0.0013507064431905746,0.0013660055119544268,-0.00951384101063013
1772045996804109300,6.289109375,0.0012598158791661263,-0.00446040416136384,-0.013586306013166904
1772045996814094300,6.29909423828125,0.002720559947192669,-0.008252744562923908,-0.009147083386778831
1772045996824080100,6.309080078125,0.0009051738306879997,-0.009309906512498856,-0.005522478837519884
1772045996834066400,6.31906640625,0.0007664235308766365,-0.014195475727319717,-0.004179979208856821
1772045996844051500,6.329051513671875,0.004243013449013233,-0.014698834158480167,-0.0035463524982333183
1772045996854037200,6.339037353515625,0.0022986391559243202,-0.010567738674581051,-0.004258481785655022
1772045996864022300,6.349022216796875,0.000570555217564106,-0.008640702813863754,-0.006577583029866219
1772045996874008000,6.359008056640625,0.0036939112469553947,-0.006998597178608179,-0.008234335109591484
1772045996883993300,6.368993408203125,0.0021576853469014168,-0.008259217254817486,-0.011714964173734188
1772045996893979400,6.3789794921875,0.003168354742228985,-0.0022356798872351646,-0.012310713529586792
1772045996903964200,6.388964111328125,0.0027998341247439384,0.0006125752697698772,-0.014652349054813385
1772045996913950200,6.3989501953125,0.003030196763575077,0.005332762375473976,-0.01378442533314228
1772045996923935200,6.408935302734375,0.005526079796254635,0.005374373868107796,-0.011631710454821587
1772045996933921300,6.41892138671875,0.0022626416757702827,0.0035631584469228983,-0.009591462090611458
1772045996943907300,6.4289072265625,0.0032477397471666336,0.005532792769372463,-0.005024202633649111
1772045996953892400,6.438892333984375,0.004944171756505966,0.011571777053177357,-0.0026193680241703987
1772045996963878400,6.44887841796875,0.0026980405673384666,0.016884218901395798,-0.001863664947450161
1772045996973863400,6.458863525390625,0.0019853785634040833,0.014399223029613495,-0.0024815183132886887
1772045996983849200,6.46884912109375,-0.001644069328904152,0.010311155579984188,-0.005338331684470177
1772045996993834200,6.478834228515625,-0.0064638578332960606,0.001070252968929708,-0.005780150182545185
1772045997003820300,6.4888203125,-0.005789520218968391,-0.006354303099215031,-0.005727788433432579
1772045997013805300,6.498805419921875,-0.00540522625669837,-0.01023532822728157,-0.00916646234691143
1772045997023791400,6.508791259765625,-0.006656506098806858,-0.014280984178185463,-0.008333117701113224
1772045997033776400,6.5187763671875,-0.005998971406370401,-0.011986937373876572,-0.004794842563569546
1772045997043762200,6.52876220703125,-0.008564913645386696,-0.008092162199318409,-0.0018498364370316267
1772045997053748500,6.53874853515625,-0.010230720043182373,0.00640448834747076,-0.001007745275273919
1772045997063733200,6.548733154296875,-0.00479571707546711,0.017320286482572556,-0.002487830352038145
1772045997073719300,6.55871923828125,0.00016761664301156998,0.02493053488433361,-0.005679628346115351
1772045997083704300,6.568704345703125,0.005508927628397942,0.025651399046182632,-0.010686410591006279
1772045997093690400,6.5786904296875,0.006969671696424484,0.02065317891538143,-0.008437903597950935
1772045997103675400,6.58867529296875,0.006864210590720177,0.015253352001309395,-0.010866439901292324
1772045997113661200,6.5986611328125,0.010354550555348396,0.013020557351410389,-0.00566528644412756
1772045997123646200,6.608646240234375,0.00742748100310564,0.005543102510273457,-0.003996201325207949
1772045997133632300,6.61863232421875,0.004819980822503567,0.0017094823997467756,-0.0073203593492507935
1772045997143617300,6.6286171875,0.003760017454624176,-0.0027713568415492773,-0.002558258594945073
1772045997153603300,6.638603271484375,0.004217814654111862,-0.007579161785542965,-0.0011265429202467203
1772045997163589000,6.648589111328125,0.003853912465274334,-0.010035009123384953,0.0026121255941689014
1772045997173574100,6.65857421875,0.007287791930139065,-0.012354621663689613,0.00490377563983202
1772045997183560400,6.668560546875,0.004722317680716515,-0.012817621231079102,-0.00003618421033024788
1772045997193545200,6.678545166015625,0.006951916962862015,-0.014067442156374454,0.0005909902974963188
1772045997203531300,6.68853125,0.004456906579434872,-0.010716636665165424,-0.002250478370115161
1772045997213516300,6.698516357421875,0.006765867583453655,-0.006677952595055103,-0.00610700249671936
1772045997223502300,6.70850244140625,0.0007553780451416969,-0.0003795766970142722,-0.005893949419260025
1772045997233487400,6.7184873046875,0.0028193285688757896,0.002581858541816473,-0.007053223438560963
1772045997243473400,6.728473388671875,0.005873501300811768,0.007335871923714876,-0.009820965118706226
1772045997253458200,6.738458251953125,0.001062767580151558,0.01004776917397976,-0.009534674696624279
1772045997263444200,6.7484443359375,0.0033348025754094124,0.010989044792950153,-0.008236875757575035
1772045997273430300,6.75843017578125,0.004138811491429806,0.010357077233493328,-0.006978798657655716
1772045997283415300,6.768415283203125,0.005365816876292229,0.005573316477239132,-0.004261328838765621
1772045997293401300,6.7784013671875,0.0046510230749845505,0.00018254549650009722,0.0022516977041959763
1772045997303386000,6.78838623046875,0.0014137467369437218,0.0013069375418126583,0.0044371685944497585
1772045997313372400,6.798372314453125,0.000621456652879715,-0.0021258771885186434,0.008140027523040771
1772045997323357400,6.808357421875,0.0020298678427934647,-0.0004834174760617316,0.0073205940425395966
1772045997333343200,6.81834326171875,-0.0008418187499046326,-0.00017315917648375034,0.0036483611911535263
1772045997343328300,6.828328369140625,-0.002617388963699341,-0.00045329751446843147,0.00423720758408308
1772045997353314300,6.838314208984375,0.0004825303331017494,-0.0007640884141437709,0.0018912289524450898
1772045997363299300,6.84829931640625,0.0017651226371526718,-0.0027610240504145622,0.0034958652686327696
1772045997373285400,6.858285400390625,0.0003416631370782852,-0.0053442902863025665,0.0025989124551415443
1772045997383271200,6.868271240234375,-0.0008898237720131874,-0.006098470650613308,0.0034940217155963182
1772045997393256200,6.878256103515625,-0.00006610807031393051,-0.007568801753222942,-0.0008642412722110748
1772045997403242200,6.8882421875,0.002148830331861973,-0.005308480001986027,-0.0035346755757927895
1772045997413227300,6.898227294921875,0.0019485605880618095,-0.00038402853533625603,-0.005362402647733688
1772045997423213300,6.90821337890625,-0.0025284914299845695,0.0054449294693768024,-0.00912952609360218
1772045997433198300,6.9181982421875,-0.002122359350323677,0.00854724645614624,-0.0075657181441783905
1772045997443184400,6.928184326171875,-0.0039815884083509445,0.004502226132899523,-0.004474814515560865
1772045997453169400,6.93816943359375,-0.0008997786790132523,-0.0024307810235768557,0.0013079731725156307
1772045997463155200,6.9481552734375,-0.0021997569128870964,0.00043603492667898536,0.007791993673890829
1772045997473140200,6.95814013671875,0.0005552833899855614,0.002205971861258149,0.006170128472149372
1772045997483126500,6.96812646484375,0.004244161769747734,0.00787406601011753,0.00745965214446187
1772045997493112300,6.9781123046875,0.0030563920736312866,0.008599776774644852,0.004772788845002651
1772045997503097300,6.988097412109375,0.0008435025811195374,0.0019618035294115543,0.004152129404246807
1772045997513083100,6.998083251953125,-0.0007021967321634293,-0.006852727383375168,0.001739305560477078
1772045997523068400,7.008068359375,-0.0016573062166571617,-0.013149215839803219,0.00019807275384664536
1772045997533054500,7.018054443359375,-0.005853915121406317,-0.012390747666358948,0.0005418870132416487
1772045997543039200,7.028039306640625,-0.0051998295821249485,-0.012878736481070518,-0.0019307765178382397
1772045997553025500,7.038025634765625,-0.007075494155287743,-0.012631861492991447,0.0023899362422525883
1772045997563010600,7.048010498046875,-0.007259520702064037,-0.002202428877353668,0.001928347279317677
1772045997572996400,7.057996337890625,-0.007892288267612457,0.003147328970953822,0.001740594394505024
1772045997582981400,7.0679814453125,-0.0031671058386564255,0.008428904227912426,-0.002879271749407053
1772045997592967200,7.07796728515625,-0.000624852254986763,0.010655838996171951,-0.000725307036191225
1772045997602952400,7.087952392578125,-0.00012508872896432877,0.00979865062981844,-0.00047358032315969467
1772045997612938500,7.0979384765625,0.0001598689705133438,0.0037277089431881905,-0.00239398586563766
1772045997622924300,7.10792431640625,0.0002819029614329338,0.001261930214241147,0.003779367543756962
1772045997632909300,7.117909423828125,0.0020049680024385452,-0.0024387985467910767,0.008593297563493252
1772045997642895400,7.127895263671875,-0.0016066590324044228,-0.006565779447555542,0.01288936659693718
1772045997652880400,7.13788037109375,-0.0036074919626116753,-0.010448401793837547,0.01824471727013588
1772045997662866400,7.147866455078125,-0.0005021532997488976,-0.0077422489412128925,0.02202032133936882
1772045997672851200,7.157851318359375,0.002039833925664425,-0.005214376840740442,0.024873632937669754
1772045997682837500,7.16783740234375,0.00654619000852108,-0.0024742186069488525,0.02534058690071106
1772045997692822500,7.177822509765625,0.005498236045241356,-0.005032717250287533,0.01817694865167141
1772045997702808300,7.187808349609375,0.004730620421469212,-0.007341615855693817,0.014079942367970943
1772045997712793300,7.19779345703125,0.006570865400135517,-0.008696365170180798,0.00914936512708664
1772045997722779400,7.207779296875,0.007515366189181805,-0.004881575237959623,0.005627663806080818
1772045997732765400,7.217765380859375,0.005391228012740612,-0.001448760274797678,0.0025674253702163696
1772045997742750500,7.22775048828125,0.0031694481149315834,-0.0022137705236673355,-0.0011809333227574825
1772045997752736300,7.237736328125,0.000683121383190155,-0.0009714059997349977,-0.0006376481615006924
1772045997762721300,7.24772119140625,0.0009994227439165115,0.002419649623334408,0.0012308673467487097
1772045997772707600,7.25770751953125,0.002468688413500786,0.0032881065271794796,0.0035808407701551914
1772045997782692400,7.2676923828125,0.0005217483267188072,0.003308729035779834,0.0031651610042899847
1772045997792678400,7.277678466796875,0.009850268252193928,0.005519152618944645,0.000919050769880414
1772045997802663400,7.287663330078125,0.008761472068727016,0.006670054979622364,-0.0010503963567316532
1772045997812649200,7.297649169921875,0.008807011879980564,0.007851166650652885,0.00018158182501792908
1772045997822634500,7.307634521484375,0.009414808824658394,0.00804212037473917,0.0019768993370234966
1772045997832620300,7.317620361328125,0.0035001933574676514,0.006468459032475948,0.0031204605475068092
1772045997842606300,7.3276064453125,-0.0010009156540036201,0.0018990286625921726,0.009183618240058422
1772045997852591400,7.33759130859375,-0.0024222442880272865,-0.0005220510065555573,0.009769780561327934
1772045997862577400,7.347577392578125,-0.005571200046688318,-0.004685836844146252,0.008543742820620537
1772045997872562400,7.3575625,-0.001156211830675602,-0.005624601151794195,0.007931215688586235
1772045997882548200,7.36754833984375,0.001474238932132721,-0.005286810453981161,0.003911973442882299
1772045997892533200,7.377533203125,0.0014771688729524612,-0.005342470481991768,0.002952702809125185
1772045997902519600,7.38751953125,0.004570453427731991,-0.0030578006990253925,0.002882270375266671
1772045997912504300,7.39750439453125,0.0075958045199513435,-0.006195537280291319,0.0008342994842678308
1772045997922490400,7.407490478515625,0.006835004314780235,-0.006267576478421688,-0.0014492576010525227
1772045997932475400,7.417475341796875,0.0034296195954084396,-0.004745579790323973,-0.006756670773029327
1772045997942461200,7.427461181640625,-0.0018059378489851952,0.00006398605182766914,-0.008719420060515404
1772045997952447500,7.437447509765625,-0.004835283383727074,0.0013207317097112536,-0.011629455722868443
1772045997962432500,7.4474326171875,-0.004122174344956875,0.0015691295266151428,-0.009182256646454334
1772045997972418300,7.457418212890625,-0.004599945619702339,-0.0003757770173251629,-0.008720465004444122
1772045997982403300,7.4674033203125,-0.0006513437256217003,0.004536378663033247,-0.011599218472838402
1772045997992389400,7.477389404296875,0.0029332702979445457,0.009284262545406818,-0.0069280341267585754
1772045998002374400,7.48737451171875,0.004595540463924408,0.012848692014813423,-0.006287770811468363
1772045998012360400,7.4973603515625,0.0039736926555633545,0.011513649486005306,-0.004132474772632122
1772045998022345200,7.50734521484375,0.0035587074235081673,0.004777976311743259,-0.006568548269569874
1772045998032331500,7.51733154296875,-0.0036888187751173973,-0.0019299935083836317,-0.006240447051823139
1772045998042316500,7.527316650390625,-0.004540649242699146,-0.015572421252727509,-0.008262707851827145
1772045998052302300,7.53730224609375,-0.0045856572687625885,-0.024336352944374084,-0.008107978850603104
1772045998062288400,7.547288330078125,-0.00556633435189724,-0.026636235415935516,-0.0024019507691264153
1772045998072273200,7.557273193359375,-0.006897915154695511,-0.018098941072821617,-0.001921516377478838
1772045998082259500,7.567259521484375,-0.008544683456420898,-0.011744892224669456,-0.00529904430732131
1772045998092244500,7.577244384765625,-0.0026958491653203964,0.0034875900018960238,-0.003707006573677063
1772045998102230300,7.587230224609375,-0.001705859787762165,0.01142209768295288,-0.004692004062235355
1772045998112215300,7.59721533203125,0.001766103319823742,0.013982728123664856,-0.004636876285076141
1772045998122201300,7.607201416015625,-0.0015775235369801521,0.011298456229269505,-0.0008122080471366644
1772045998132186400,7.617186279296875,0.0020182766020298004,0.011655585840344429,-0.0005655994173139334
1772045998142172400,7.62717236328125,0.002599397674202919,0.010368244722485542,0.00260499631986022
1772045998152157200,7.6371572265625,0.0017059072852134705,0.005808114539831877,-0.0002483145799487829
1772045998162143500,7.6471435546875,-0.0014935359358787537,0.00008462354890070856,0.004548199940472841
1772045998172129300,7.65712939453125,-0.005322096403688192,-0.0022416478022933006,0.007920028641819954
1772045998182114300,7.6671142578125,-0.0019945334643125534,-0.0013550473377108574,0.009640676900744438
1772045998192100400,7.677100341796875,-0.0006491048261523247,-0.001802458195015788,0.015503892675042152
1772045998202085400,7.68708544921875,0.002644358202815056,-0.003955669701099396,0.011982785537838936
1772045998212071400,7.697071533203125,0.004588733427226543,-0.00328828115016222,0.0106509393081069
1772045998222056400,7.707056396484375,0.002924863249063492,-0.006316122133284807,0.0010093944147229195
1772045998232042200,7.717042236328125,0.0028686709702014923,-0.0072713978588581085,-0.002556578256189823
1772045998242027300,7.72702734375,0.0005276910960674286,-0.007967020384967327,-0.004147898871451616
1772045998252013600,7.737013671875,-0.00045634713023900986,-0.009135349653661251,-0.004295438062399626
1772045998261998300,7.746998291015625,-0.003297765739262104,-0.010928570292890072,-0.0012003534939140081
1772045998271984400,7.756984375,-0.004996330477297306,-0.00803131703287363,0.0006569349206984043
1772045998281970200,7.76697021484375,-0.002610973082482815,-0.001598157687112689,0.0015006436733528972
1772045998291955500,7.77695556640625,-0.005084251053631306,0.005809158552438021,0.0012694811448454857
1772045998301941500,7.78694140625,-0.0004421984776854515,0.006729035638272762,-0.00011462392285466194
1772045998311926300,7.79692626953125,0.001757306046783924,0.00540864048525691,-0.00320815178565681
1772045998321912300,7.806912353515625,0.0010552369058132172,0.003994230180978775,-0.00011150934733450413
1772045998331897300,7.8168974609375,0.0024667121469974518,0.007145815063267946,0.00020620576106011868
1772045998341883400,7.82688330078125,0.0023673363029956818,0.004060836508870125,0.0010813407134264708
1772045998351868400,7.836868408203125,-0.0008023586124181747,0.004915444180369377,0.0013441946357488632
1772045998361854200,7.846854248046875,-0.002649678848683834,0.0017656043637543917,0.0059984782710671425
1772045998371839200,7.856839111328125,-0.00029517803341150284,-0.0037623189855366945,0.008698923513293266
1772045998381825500,7.866825439453125,-0.0007872786372900009,-0.002610892988741398,0.016529478132724762
1772045998391810300,7.876810302734375,0.00013417471200227737,-0.00920994020998478,0.01639791764318943
1772045998401796400,7.88679638671875,-0.00017049070447683334,-0.0066514406353235245,0.01856386661529541
1772045998411782100,7.8967822265625,0.0007893126457929611,-0.00495607266202569,0.016144918277859688
1772045998421767400,7.906767333984375,0.000998244620859623,-0.0034349237103015184,0.009283057413995266
1772045998431753500,7.91675341796875,-0.0022284407168626785,-0.0032983035780489445,0.004789239726960659
1772045998441738200,7.92673828125,-0.0005319826304912567,-0.0049984329380095005,0.0022793104872107506
1772045998451724300,7.936724365234375,-0.0036260439082980156,-0.006314034573733807,0.004559508990496397
1772045998461709300,7.946709228515625,-0.0003219703212380409,-0.002758023329079151,0.0034238568041473627
1772045998471695400,7.9566953125,-0.001086830161511898,0.0018021074356511235,0.001235004747286439
1772045998481680400,7.966680419921875,-0.0013709552586078644,0.005267612170428038,-0.0044005922973155975
1772045998491666400,7.97666650390625,-0.0019475296139717102,0.0014835267793387175,-0.006242168135941029
1772045998501651200,7.986651123046875,-0.0013824673369526863,0.0015983042540028691,-0.0013548166025429964
1772045998511637500,7.996637451171875,0.000351782888174057,0.006585340015590191,0.0005181848537176847
1772045998521622500,8.00662255859375,0.001275213435292244,0.012647639960050583,0.0023535124491900206
1772045998531607300,8.016607177734375,0.0038446318358182907,0.01383594237267971,0.0059160226956009865
1772045998541593300,8.02659326171875,-0.0003943350166082382,0.013539060018956661,0.004922250285744667
1772045998551578600,8.03657861328125,-0.003853514790534973,0.00433011632412672,0.003651656210422516
1772045998561564400,8.046564453125,-0.006286592688411474,-0.004745270125567913,0.0018350972095504403
1772045998571549400,8.056549560546875,-0.009549231268465519,-0.013794957660138607,-0.0011457791551947594
1772045998581535200,8.06653515625,-0.006843573413789272,-0.01781248301267624,0.00207517109811306
1772045998591520300,8.076520263671876,-0.0057500796392560005,-0.016754942014813423,0.0017382812220603228
1772045998601506600,8.086506591796875,-0.005145207047462463,-0.013990535400807858,0.002826059004291892
1772045998611491300,8.0964912109375,-0.006416600197553635,-0.005570419132709503,0.009365983307361603
1772045998621477400,8.106477294921875,-0.00411054864525795,0.002017490565776825,0.0102638378739357
1772045998631462400,8.11646240234375,-0.0012641623616218567,0.009682068601250648,0.008627858012914658
1772045998641448400,8.126448486328124,-0.0018585799261927605,0.013821419328451157,0.003952412866055965
1772045998651434500,8.1364345703125,0.0022256439551711082,0.013099969364702702,0.0012524998746812344
1772045998661419300,8.146419189453125,-0.004339111968874931,0.014119118452072144,0.007691078819334507
1772045998671405300,8.1564052734375,-0.005847793072462082,0.011480990797281265,0.008703612722456455
1772045998681390600,8.166390625,-0.0017735175788402557,-0.0013236935483291745,0.01039605401456356
1772045998691376400,8.17637646484375,-0.001148207113146782,-0.004717626143246889,0.011307386681437492
1772045998701361400,8.186361328125,-0.0016136299818754196,-0.008927307091653347,0.01081396546214819
1772045998711347500,8.196347412109375,-0.0001491578295826912,-0.011899394914507866,0.015464376658201218
1772045998721332200,8.206332275390626,-0.0011822693049907684,-0.007264867890626192,0.013659387826919556
1772045998731318500,8.216318603515624,0.000029202550649642944,-0.006339685525745153,0.010775450617074966
1772045998741304300,8.22630419921875,0.000572454184293747,-0.004119519609957933,0.008515799418091774
1772045998751289300,8.236289306640625,0.0037293657660484314,-0.004718730691820383,0.005640384741127491
1772045998761275400,8.246275390625,0.006606582552194595,-0.00235944171436131,0.003704984672367573
1772045998771260400,8.256260498046874,0.0032251663506031036,0.0009490032680332661,-0.0007856374140828848
1772045998781246500,8.26624658203125,0.004595823585987091,-0.0002354771422687918,-0.0011794171296060085
1772045998791231500,8.2762314453125,0.0025819409638643265,-0.0014658576110377908,-0.001074488740414381
1772045998801217300,8.28621728515625,-0.0005605434998869896,-0.0012305985437706113,-0.004515292122960091
1772045998811202600,8.29620263671875,-0.00011845864355564117,0.003336190013214946,-0.0043618944473564625
1772045998821188400,8.306188232421874,-0.0012894626706838608,0.007984835654497147,0.0023481245152652264
1772045998831173400,8.31617333984375,-0.002218373119831085,0.011175835505127907,0.000981123885139823
1772045998841159400,8.326159423828125,-0.00010066665709018707,0.010523121803998947,-0.0008548400364816189
1772045998851144200,8.336144287109375,-0.0013371724635362625,0.017482228577136993,0.001751329516991973
1772045998861130500,8.346130615234374,0.0020354893058538437,0.01749059371650219,0.00016218051314353943
1772045998871116300,8.3561162109375,0.0009049773216247559,0.0157515499740839,-0.0035366839729249477
1772045998881101300,8.366101318359375,0.0027952464297413826,0.009632963687181473,-0.005636299028992653
1772045998891087400,8.37608740234375,0.0007278341799974442,0.008848928846418858,-0.008249925449490547
1772045998901072400,8.386072265625,-0.0010373881086707115,-0.00030962855089455843,-0.00783203449100256
1772045998911058400,8.396058349609374,-0.003699749708175659,-0.0016734334640204906,-0.006827489472925663
1772045998921043500,8.40604345703125,-0.004849576391279697,-0.007462298031896353,-0.004236274864524603
1772045998931029200,8.416029296875,-0.005977424792945385,-0.012497269548475742,-0.0030785989947617054
1772045998941014300,8.42601416015625,-0.008121991530060768,-0.008029109798371792,0.0017432161839678884
1772045998951000600,8.43600048828125,-0.007985904812812805,-0.0026892058085650206,0.002224183175712824
1772045998960985300,8.4459853515625,-0.00772332726046443,-0.0012648114934563637,-0.005173031240701675
1772045998970971400,8.455971435546875,-0.008269541896879673,-0.00539617333561182,-0.007830067537724972
1772045998980957400,8.46595751953125,-0.005362602416425943,-0.004185255616903305,-0.00668511213734746
1772045998990942500,8.4759423828125,-0.007455048151314259,-0.0030552768148481846,-0.007679271046072245
1772045999000928500,8.485928466796874,-0.00817200355231762,0.00293949106708169,-0.004241710528731346
1772045999010913300,8.495913330078125,-0.011500156484544277,0.0011889953166246414,-0.007975728251039982
1772045999020899300,8.5058994140625,-0.008537914603948593,0.0012648322153836489,-0.005727870389819145
1772045999030884600,8.515884521484375,-0.004912553355097771,0.0037074836436659098,-0.009526071138679981
1772045999040870400,8.525870361328124,-0.004633935168385506,0.007348928134888411,-0.008925264701247215
1772045999050855400,8.53585546875,-0.002956409938633442,0.007433882914483547,-0.007861065678298473
1772045999060841200,8.54584130859375,-0.0057076346129179,0.005447277799248695,-0.002288889605551958
1772045999070826200,8.555826171875,-0.006923900451511145,0.00875119585543871,0.0031500840559601784
1772045999080812500,8.5658125,-0.006805984303355217,0.0028290811460465193,0.007343086414039135
1772045999090797300,8.57579736328125,-0.011626305989921093,-0.013475324027240276,0.006736418232321739
1772045999100783400,8.585783447265625,-0.01596134901046753,-0.02238265797495842,0.003012849483639002
1772045999110769400,8.595769287109375,-0.017438339069485664,-0.027446391060948372,-0.0002809481229633093
1772045999120754400,8.60575439453125,-0.01718660444021225,-0.03131991624832153,0.0003487668000161648
1772045999130740500,8.615740478515624,-0.013891740702092648,-0.02570650354027748,-0.0006816100794821978
1772045999140725200,8.625725341796874,-0.016449354588985443,-0.020191023126244545,0.000015584519132971764
1772045999150711300,8.635711181640625,-0.012381376698613167,-0.005060539580881596,0.00019747833721339703
1772045999160696600,8.645696533203125,-0.0107542360201478,0.004839354194700718,0.003931966610252857
1772045999170682400,8.655682373046876,-0.007032202556729317,0.012067972682416439,0.007497407030314207
1772045999180667400,8.66566748046875,-0.0009158952161669731,0.013566115871071815,0.008271098136901855
1772045999190653400,8.6756533203125,-0.0005787396803498268,0.012711772695183754,0.00800052098929882
1772045999200638200,8.68563818359375,-0.002180112525820732,0.008747488260269165,0.0031364408787339926
1772045999210624500,8.69562451171875,-0.009536562487483025,0.0008613364771008492,0.007187907584011555
1772045999220610300,8.7056103515625,-0.009785246104001999,-0.008062507957220078,0.012905774638056755
1772045999230595300,8.71559521484375,-0.013759748078882694,-0.012218371033668518,0.014344414696097374
1772045999240581600,8.72558154296875,-0.010718320496380329,-0.011459163390100002,0.01653779298067093
1772045999250566400,8.73556640625,-0.006064446642994881,-0.01228873897343874,0.01600542664527893
1772045999260552400,8.745552490234376,-0.005882604513317347,-0.01133676152676344,0.018027301877737045
1772045999270537500,8.755537353515624,-0.008231512270867825,-0.013396716676652431,0.013377687893807888
1772045999280523300,8.765523193359375,-0.004266582429409027,-0.015816068276762962,0.00930573046207428
1772045999290508500,8.775508544921875,-0.00407110620290041,-0.015168651938438416,0.0028206673450767994
1772045999300494300,8.785494384765625,-0.0012193089351058006,-0.010818799026310444,0.002324298955500126
1772045999310479400,8.795479248046876,0.0036327047273516655,-0.007985196076333523,0.00305746728554368
1772045999320465400,8.80546533203125,0.00011026859283447266,0.0007140689413063228,0.004336808808147907
1772045999330450200,8.8154501953125,-0.0017590038478374481,0.005265677813440561,0.006240702234208584
1772045999340436500,8.8254365234375,-0.005523636005818844,0.011931471526622772,0.007440805435180664
1772045999350422300,8.83542236328125,-0.004544125869870186,0.010150349698960781,0.009120726957917213
1772045999360407300,8.8454072265625,-0.0012263208627700806,0.009011022746562958,0.007396310102194548
1772045999370393600,8.8553935546875,-0.00006198696792125702,0.005619752686470747,0.005133954808115959
1772045999380378400,8.86537841796875,-0.0016890903934836388,0.0015169630059972405,0.0042654769495129585
1772045999390364400,8.875364501953126,0.0016087023541331291,0.004872546065598726,0.009821363724768162
1772045999400349400,8.885349365234376,0.0010669687762856483,0.005902287550270557,0.008620811626315117
1772045999410335200,8.895335205078124,-0.000463816337287426,0.003417824860662222,0.015908019617199898
1772045999420320500,8.905320556640625,-0.006645129527896643,-0.004385954700410366,0.01595308631658554
1772045999430306600,8.915306640625,-0.011215114034712315,-0.00892185140401125,0.013392189517617226
1772045999440291300,8.925291259765626,-0.012268065474927425,-0.015157332643866539,0.008521147072315216
1772045999450277400,8.93527734375,-0.015386893413960934,-0.009576944634318352,0.005585012026131153
1772045999460263400,8.945263427734375,-0.016830679029226303,-0.008238516747951508,-0.0021437262184917927
1772045999470248400,8.95524853515625,-0.01091340184211731,-0.005812642630189657,-0.005552306305617094
1772045999480234500,8.965234375,-0.007781573571264744,-0.006529742851853371,-0.006418229080736637
1772045999490219300,8.97521923828125,-0.014663981273770332,-0.00642295042052865,-0.0036083278246223927
1772045999500205600,8.98520556640625,-0.01751616597175598,-0.012831805273890495,-0.006667886860668659
1772045999510190600,8.995190673828125,-0.014128626324236393,-0.022809337824583054,-0.004861464723944664
1772045999520176400,9.00517626953125,-0.01676608994603157,-0.022963980212807655,-0.00616186298429966
1772045999530161400,9.015161376953126,-0.02157203108072281,-0.024038566276431084,-0.0019069307018071413
1772045999540147200,9.025147216796874,-0.030663784593343735,-0.029050201177597046,0.00962064415216446
1772045999550132200,9.03513232421875,-0.032960228621959686,-0.03027738630771637,0.014477983117103577
1772045999560118500,9.045118408203125,-0.02630704641342163,-0.026044650003314018,0.019750673323869705
1772045999570104300,9.055104248046876,-0.017240580171346664,-0.01901257410645485,0.027043472975492477
1772045999580089300,9.06508935546875,-0.011756383813917637,-0.012808081693947315,0.027638360857963562
1772045999590075100,9.0750751953125,-0.012020569294691086,0.003242256585508585,0.027958206832408905
1772045999600060400,9.085060302734375,-0.00508427619934082,0.004490024410188198,0.019718898460268974
1772045999610046500,9.09504638671875,-0.007208679337054491,-0.00344166811555624,0.002346564782783389
1772045999620031200,9.10503125,-0.010292925871908665,-0.018877020105719566,-0.009031173773109913
1772045999630017300,9.115017333984374,-0.014758247882127762,-0.024842500686645508,-0.014890927821397781
1772045999640002300,9.125002197265625,-0.014384173788130283,-0.0368429459631443,-0.01497221551835537
1772045999649988400,9.13498828125,-0.014115460216999054,-0.03657929599285126,-0.01419084332883358
1772045999659973400,9.144973388671875,-0.016147252172231674,-0.032769687473773956,-0.009631921537220478
1772045999669959400,9.15495947265625,-0.014189296402037144,-0.023974597454071045,-0.0068297432735562325
1772045999679944200,9.164944091796874,-0.01228802278637886,-0.019093886017799377,-0.00868179090321064
1772045999689930500,9.174930419921875,-0.0106959855183959,-0.012183248065412045,-0.013159897178411484
1772045999699916300,9.184916259765625,-0.007354343309998512,-0.008684731088578701,-0.013613410294055939
1772045999709901300,9.1949013671875,-0.0059234267100691795,-0.0041459063068032265,-0.01374816708266735
1772045999719887400,9.204887451171874,-0.005844621919095516,-0.004973915405571461,-0.011963415890932083
1772045999729872400,9.214872314453125,-0.009500609710812569,0.00008182923920685425,-0.007107675075531006
1772045999739858400,9.2248583984375,-0.010044604539871216,-0.0025088179390877485,-0.0004833484999835491
1772045999749843500,9.234843505859375,-0.01199616864323616,-0.012102322652935982,-0.0035316026769578457
1772045999759829200,9.244829345703126,-0.009050561115145683,-0.013323263265192509,0.001774602453224361
1772045999769814300,9.254814208984374,-0.01326740998774767,-0.016937704756855965,0.003580758348107338
1772045999779800300,9.26480029296875,-0.01132123451679945,-0.01702616550028324,0.010392447002232075
1772045999789785300,9.274785400390625,-0.007330753840506077,-0.017711928114295006,0.011171688325703144
1772045999799771400,9.284771484375,-0.008516659960150719,-0.029329435899853706,0.009032636880874634
1772045999809756200,9.294756103515626,-0.008732907474040985,-0.04387828707695007,0.009286968968808651
1772045999819742500,9.304742431640625,-0.0069351475685834885,-0.06131235510110855,0.008839515969157219
1772045999829728300,9.314728271484375,-0.008458742871880531,-0.05744358152151108,0.012110942974686623
1772045999839713300,9.32471337890625,-0.0038860198110342026,-0.04430226981639862,0.012654455378651619
1772045999849698300,9.3346982421875,-0.0075550563633441925,-0.023241989314556122,0.011050699278712273
1772045999859684400,9.344684326171874,-0.008966189809143543,-0.006320355925709009,0.014805386774241924
1772045999869670400,9.35467041015625,-0.007443128153681755,-0.0021405245643109083,0.013320408761501312
1772045999879655400,9.364655517578125,-0.0056145465932786465,-0.004409432411193848,0.008169318549335003
1772045999889641200,9.37464111328125,-0.00447497982531786,-0.0011065800208598375,0.0031069156248122454
1772045999899626200,9.384626220703124,-0.0019504204392433167,0.0003772225754801184,-0.0027569092344492674
1772045999909612500,9.394612548828125,0.0058811381459236145,-0.00020281391334719956,-0.013598637655377388
1772045999919597300,9.404597412109375,0.010935816913843155,-0.00144890695810318,-0.021834464743733406
1772045999929583400,9.414583251953125,0.014373425394296646,-0.0038398930337280035,-0.023017173632979393
1772045999939568400,9.424568359375,0.01199195347726345,-0.002189171966165304,-0.013711187988519669
1772045999949554400,9.434554443359374,0.005984928458929062,0.004924131091684103,-0.007518539670854807
1772045999959539500,9.44453955078125,0.003021509386599064,0.002238679677248001,0.0012028419878333807
1772045999969525200,9.454525146484375,0.0010451767593622208,-0.0016213059425354004,-0.0002784081734716892
1772045999979510300,9.46451025390625,-0.0026706168428063393,0.0023916922509670258,0.006474711932241917
1772045999989496600,9.47449658203125,-0.007752727251499891,-0.0016065116506069899,0.007867012172937393
1772045999999482400,9.484482421875,-0.009027176536619663,0.003008164931088686,0.009448438882827759
1772046000009467400,9.49446728515625,-0.007848194800317287,0.005307537969201803,0.008760277181863785
1772046000019453200,9.504453125,-0.006361085921525955,0.00987406075000763,0.00915549136698246
1772046000029438200,9.514438232421876,-0.0072974530048668385,0.008472438901662827,0.007974378764629364
1772046000039424500,9.524424560546874,-0.01025510486215353,0.009608648717403412,0.005483520682901144
1772046000049409300,9.5344091796875,-0.00956321507692337,0.012073936872184277,0.0024206191301345825
1772046000059395300,9.544395263671875,-0.008617084473371506,0.013013194315135479,0.0018441317370161414
1772046000069380400,9.55438037109375,-0.007730784360319376,0.009725787676870823,-0.002314128214493394
1772046000079366400,9.564366455078124,-0.00824437104165554,0.0073570855893194675,-0.0011431591119617224
1772046000089351400,9.574351318359374,-0.004137777723371983,0.009796008467674255,0.0025674232747405767
1772046000099337200,9.584337158203125,-0.0004643518477678299,0.017423084005713463,0.00009570224210619926
1772046000109323300,9.5943232421875,0.0008970564231276512,0.024593112990260124,0.00047919759526848793
1772046000119308500,9.60430859375,0.003192662261426449,0.03158450499176979,-0.006697404198348522
1772046000129294300,9.61429443359375,0.007724829949438572,0.022037874907255173,-0.016143903136253357
1772046000139279400,9.624279296875,0.0037893494591116905,0.010618191212415695,-0.017421115189790726
1772046000149265400,9.634265380859375,-0.0012189904227852821,-0.005517369136214256,-0.012894006446003914
1772046000159250200,9.644250244140625,-0.007435659412294626,-0.009011312387883663,0.001081668073311448
1772046000169236500,9.654236572265624,-0.009292415343225002,-0.01948046311736107,0.015041958540678024
1772046000179221500,9.664221435546875,-0.010102028027176857,-0.02213899977505207,0.02173013985157013
1772046000189207300,9.674207275390625,-0.009814939461648464,-0.024401355534791946,0.01877456158399582
1772046000199192300,9.6841923828125,-0.005768833681941032,-0.020509611815214157,0.015810547396540642
1772046000209178400,9.694178466796876,-0.003365863114595413,-0.010380012914538383,0.009680483490228653
1772046000219163400,9.704163330078124,0.0019874172285199165,0.0077193668112158775,0.004276478197425604
1772046000229149400,9.7141494140625,0.0026382943615317345,0.01601031981408596,-0.002056518802419305
1772046000239135200,9.72413525390625,0.00648975744843483,0.015523760579526424,-0.0014700910542160273
1772046000249120500,9.73412060546875,0.0038094650954008102,0.017339657992124557,-0.0032728288788348436
1772046000259106300,9.744106201171874,0.005599109455943108,0.008494767360389233,-0.0005305719096213579
1772046000269091300,9.75409130859375,0.004551509395241737,0.0026748075615614653,-0.0021183041390031576
1772046000279077400,9.764077392578125,0.0011626360937952995,0.00027902782312594354,-0.002084748586639762
1772046000289062100,9.774062255859375,0.0020965570583939552,-0.0023230211809277534,-0.0038851085118949413
1772046000299048400,9.78404833984375,0.0031442437320947647,0.0013817022554576397,-0.001526879146695137
1772046000309033500,9.794033447265624,0.003711179830133915,0.0031874878332018852,0.00196399400010705
1772046000319019300,9.804019287109375,0.004980974830687046,0.0023848111741244793,0.003871882800012827
1772046000329004300,9.81400439453125,0.0024697156623005867,-0.0007657302776351571,0.006233635358512402
1772046000338990300,9.823990234375,0.0021141842007637024,-0.002362295286729932,0.0035073570907115936
1772046000348976400,9.833976318359374,-0.00047464948147535324,-0.0014705981593579054,-0.000943952240049839
1772046000358961400,9.84396142578125,0.0022106152027845383,-0.001720136497169733,-0.0024923142045736313
1772046000368947200,9.853947265625,0.002835228107869625,-0.003574783680960536,-0.010936071164906025
1772046000378932500,9.863932373046875,0.0022285589948296547,-0.0053801401518285275,-0.009890514425933361
1772046000388918300,9.873918212890626,0.0018395250663161278,-0.0071265362203121185,-0.0066158948466181755
1772046000398903300,9.8839033203125,0.0012059584259986877,0.0015527054201811552,-0.004668857902288437
1772046000408889300,9.893889404296875,0.0008655283600091934,0.005504394415766001,-0.0016394071280956268
1772046000418874400,9.903874267578125,0.0033704973757267,0.008832546882331371,-0.0005381901282817125
1772046000428860400,9.9138603515625,0.001383211463689804,0.007613417226821184,0.0005197010468691587
1772046000438845400,9.923845458984376,-0.0010533146560192108,0.0054224347695708275,-0.0018009776249527931
1772046000448831200,9.933831298828125,-0.003075605258345604,-0.00019432834233157337,-0.0023231457453221083
1772046000458816300,9.943816162109375,0.0005516204982995987,-0.0024369764141738415,-0.0021878571715205908
1772046000468802600,9.953802490234375,0.003435784950852394,-0.0053626615554094315,-0.0024655391462147236
1772046000478788400,9.963788330078126,-0.0007536346092820168,-0.00986793078482151,-0.006378255784511566
1772046000488773400,9.9737734375,0.0005803043022751808,-0.009945135563611984,-0.005849598906934261
1772046000498759200,9.98375927734375,-0.003721233457326889,-0.0123214740306139,-0.004958771169185638
1772046000508744400,9.993744384765625,-0.0004449225962162018,-0.00948456022888422,0.0005098059773445129
1772046000518730500,10.00373046875,-0.0015623848885297775,-0.008534611202776432,0.003387884236872196
1772046000528716000,10.013716064453124,-0.005067182704806328,-0.0062474338337779045,0.004135207273066044
1772046000538702000,10.0237021484375,-0.004075154662132263,-0.007414431311190128,0.001964198425412178
1772046000548687000,10.03368701171875,-0.006261317990720272,-0.005291022825986147,-0.0016663246788084507
1772046000558673000,10.0436728515625,-0.00302824005484581,-0.003369551617652178,-0.006135907955467701
1772046000568658000,10.053657958984376,-0.0008171191439032555,-0.007072389125823975,-0.013872185721993446
1772046000578644000,10.06364404296875,-0.0010770438238978386,-0.008883338421583176,-0.014996040612459183
1772046000588630000,10.073630126953125,0.00009388383477926254,-0.002766367280855775,-0.010209685191512108
1772046000598615000,10.083614990234375,-0.0006691114977002144,0.000008912902558222413,-0.006236248649656773
1772046000608601000,10.09360107421875,-0.0017620343714952469,0.002955939620733261,0.0014378968626260757
1772046000618586000,10.103586181640624,-0.0020962608978152275,0.0048949867486953735,0.004494406748563051
1772046000628572000,10.113572021484375,0.0009532375261187553,0.00515110744163394,0.004168723244220018
1772046000638557000,10.123556884765625,0.0001351144164800644,0.003236561082303524,-0.0012433526571840048
1772046000648543000,10.13354296875,0.0002732807770371437,0.006220224779099226,-0.001833304762840271
1772046000658528000,10.143528076171876,0.0014858180657029152,0.01046929880976677,0.0004101421218365431
1772046000668514000,10.15351416015625,0.003315359354019165,0.009330390021204948,0.004221062641590834
1772046000678499000,10.1634990234375,-0.0010588830336928368,0.0002841644745785743,0.0016351332888007164
1772046000688484900,10.17348486328125,-0.005472970195114613,-0.012026813812553883,0.0033106524497270584
1772046000698470000,10.183469970703126,-0.007750505581498146,-0.020130813121795654,0.002542330650612712
1772046000708456000,10.1934560546875,-0.008594473823904991,-0.027305839583277702,0.0012052764650434256
1772046000718442000,10.20344189453125,-0.005140087567269802,-0.026045365259051323,-0.0017034278716892004
1772046000728427000,10.213427001953125,-0.0037992997094988823,-0.02034711092710495,-0.0035205804742872715
1772046000738413000,10.2234130859375,-0.004220079630613327,-0.009951727464795113,0.000989748863503337
1772046000748398000,10.233398193359376,-0.0012090737000107765,0.0004912603180855513,0.004247776698321104
1772046000758383900,10.2433837890625,-0.0007014758884906769,0.008229341357946396,0.004617157392203808
1772046000768369000,10.253368896484375,0.00026721879839897156,0.011615795083343983,0.004228129517287016
1772046000778355000,10.26335498046875,0.0039245374500751495,0.007520120125263929,0.0020456688944250345
1772046000788340000,10.273340087890626,-0.00041379034519195557,0.005869290791451931,0.004140329547226429
1772046000798326000,10.283325927734374,-0.003009040839970112,-0.008627359755337238,0.005814658477902412
1772046000808311000,10.29331103515625,-0.004946528933942318,-0.016333723440766335,0.012360462918877602
1772046000818296800,10.303296875,-0.010868334211409092,-0.019884249195456505,0.02293374575674534
1772046000828283100,10.313283203125,-0.014098760671913624,-0.02388794720172882,0.03324728459119797
1772046000838268200,10.32326806640625,-0.01670200005173683,-0.03134879469871521,0.039722759276628494
1772046000848254000,10.33325390625,-0.02668461762368679,-0.0435464084148407,0.045591939240694046
1772046000858239000,10.343239013671875,-0.028563210740685463,-0.04704766348004341,0.04737225919961929
1772046000868225000,10.35322509765625,-0.031281016767024994,-0.05844426900148392,0.04509519413113594
1772046000878210000,10.3632099609375,-0.03588934987783432,-0.051859334111213684,0.04202989488840103
1772046000888196000,10.373196044921874,-0.032183997333049774,-0.05957050621509552,0.03643285483121872
1772046000898180900,10.383180908203125,-0.024833671748638153,-0.06240543723106384,0.02476288564503193
1772046000908167000,10.3931669921875,-0.022102219983935356,-0.059963177889585495,0.0194737259298563
1772046000918152200,10.403152099609375,-0.016681089997291565,-0.04578690230846405,0.012862161733210087
1772046000928138000,10.413137939453126,-0.0031107980757951736,-0.03134845569729805,0.01137810479849577
1772046000938123000,10.423123046875,-0.002806931734085083,-0.019024144858121872,0.008919473737478256
1772046000948108800,10.43310888671875,-0.01379484310746193,-0.008149055764079094,0.009340151213109493
1772046000958095000,10.44309521484375,-0.024832047522068024,0.001919290516525507,0.010390767827630043
1772046000968080100,10.453080078125,-0.03334401547908783,0.0031968799885362387,0.026562977582216263
1772046000978066000,10.46306591796875,-0.042453356087207794,0.0032674537505954504,0.034887488931417465
1772046000988051000,10.473051025390625,-0.04440762847661972,-0.006125221960246563,0.04400963336229324
1772046000998037000,10.483037109375,-0.03851351886987686,-0.02576523646712303,0.048283740878105164
1772046001008022000,10.49302197265625,-0.039822448045015335,-0.02178976684808731,0.08245750516653061
1772046001018008000,10.503008056640626,-0.027494143694639206,-0.035246722400188446,0.08415207266807556
1772046001027993000,10.5129931640625,-0.005912836641073227,-0.03238314017653465,0.07131151854991913
1772046001037979000,10.522978759765625,0.007519882172346115,-0.01666942611336708,0.04562133550643921
1772046001047964200,10.532964111328125,0.014500531367957592,0.0024093883112072945,0.006859129760414362
1772046001057950000,10.542949951171876,0.016222264617681503,0.016383260488510132,-0.0354185551404953
1772046001067936000,10.55293603515625,0.00456630066037178,0.01420594472438097,-0.06185436621308327
1772046001077921000,10.562921142578125,0.0023588063195347786,-0.00219806213863194,-0.06900229305028915
1772046001087907000,10.572906982421875,0.003967205062508583,-0.010329004377126694,-0.0637848824262619
1772046001097892000,10.58289208984375,0.0047227442264556885,-0.010278137400746346,-0.04085959494113922
1772046001107878000,10.5928779296875,0.0060283103957772255,-0.01704036258161068,-0.007944275625050068
1772046001117863000,10.60286279296875,0.0075630908831954,-0.002294172067195177,0.022316157817840576
1772046001127849200,10.61284912109375,0.017984474077820778,0.005586144048720598,0.0344981923699379
1772046001137834000,10.622833984375,0.026255453005433083,0.007976064458489418,0.029217945411801338
1772046001147820000,10.632820068359376,0.021304316818714142,0.009694600477814674,0.015041319653391838
