time,seconds_elapsed,z,y,x
1772094491782765000,0.07576513671875,2.3204145394116638,0.25691212969496846,-0.4417370378984138
1772094491792715300,0.08571533203125,2.4683050072431563,0.2948375173330307,-0.45458903028480707
1772094491802664200,0.095664306640625,2.6440929513037204,0.32117008233293887,-0.5518667706016451
1772094491812614100,0.1056142578125,2.6409260117053983,0.3172751207210123,-0.6300460618905722
1772094491822563000,0.11556298828125,2.5225182434678075,0.3722566379044205,-0.60548931092415
1772094491832513300,0.12551318359375,2.4956401734143494,0.4836981473259628,-0.6224931622929871
1772094491842462200,0.135462158203125,2.567095051819086,0.5638880477849394,-0.6228640414319933
1772094491852412200,0.145412109375,2.5793507222801444,0.5386646861359476,-0.5179421430375427
1772094491862361000,0.155361083984375,2.5437702903330326,0.42233642758615314,-0.39972631717547774
1772094491872311300,0.165311279296875,2.418386253342032,0.28911387898921964,-0.3748674049247056
1772094491882260200,0.17526025390625,1.983560419604182,0.11061353416480123,-0.38557175429053603
1772094491892210200,0.185210205078125,1.1675707842111587,0.16008490962460636,-0.37248964294269676
1772094491902159000,0.1951591796875,0.013643909949064253,0.2153343570291996,-0.4256076312765479
1772094491912109000,0.205109130859375,-1.3756921411216259,0.0623052842002362,-0.31919374075867235
1772094491922058200,0.215058349609375,-3.0439193678528067,-0.09831709330193698,-0.044668103363923725
1772094491932008200,0.22500830078125,-5.043664614060521,-0.10500292774140835,0.018755225080810487
1772094491941958100,0.234958251953125,-7.078271914812922,-0.1908072340160608,-0.13835921736564485
1772094491951907000,0.244906982421875,-8.733627385011316,-0.16443324102722107,-0.5093005348877981
1772094491961857300,0.254857177734375,-9.88033482941389,0.045914852022007104,-0.8595705645747482
1772094491971806200,0.26480615234375,-10.455244841146468,0.18285897842533885,-0.9068921415895224
1772094491981756200,0.274756103515625,-10.271786800849437,0.13271671796664594,-0.7091443677205592
1772094491991705000,0.284705078125,-9.65136825287342,0.10660320254489779,-0.5238279496731236
1772094492001655300,0.2946552734375,-8.63281489469707,0.038107904598116873,-0.36134639070294794
1772094492011604200,0.304604248046875,-7.199647885206342,-0.11899375143200158,-0.10803067806474864
1772094492021554200,0.31455419921875,-5.861012678325176,-0.45219314812421796,0.20024996594823896
1772094492031503000,0.324503173828125,-4.654147410079837,-0.884193695308268,0.4551284709237516
1772094492041453300,0.334453369140625,-3.713987789660692,-1.2581677315898239,0.561503856062144
1772094492051402200,0.34440234375,-3.075851214164495,-1.6067422459378837,0.6348818845491856
1772094492061352200,0.354352294921875,-2.5383839211195705,-1.8847607304170726,0.737435592507571
1772094492071301000,0.364301025390625,-2.2285960874140263,-2.078042099461704,0.8831323496870696
1772094492081251000,0.3742509765625,-2.0449428168058392,-2.1656024556234477,1.0165121346723287
1772094492091200300,0.3842001953125,-1.7729612744033336,-2.1335316392324866,1.0634544300459325
1772094492101150200,0.394150146484375,-1.3576193088144064,-1.909881727670133,1.006229444784671
1772094492111100200,0.40410009765625,-1.0872288349956274,-1.6923010530188678,0.9788611800614744
1772094492121049000,0.414049072265625,-0.9349643898636102,-1.550388782814145,0.9844861803364008
1772094492130999300,0.423999267578125,-0.7576040819197892,-1.2012123570501803,1.0434392314992844
1772094492140948200,0.4339482421875,-0.47325464085340496,-0.7035881218329072,1.2112982822567224
1772094492150898200,0.443898193359375,-0.024514263531565664,-0.31492534272447226,1.3440963948965072
1772094492160846600,0.4538466796875,0.6621925738662481,-0.07279094931408762,1.313363110719621
1772094492170796500,0.463796630859375,1.2693833914786576,0.10078194904550909,1.1515982851840556
1772094492180745700,0.473745849609375,1.7180092025101183,0.2103407134603709,0.9437618096295743
1772094492190695700,0.48369580078125,2.042920371067524,0.13085552720464766,0.5786543128274381
1772094492200644600,0.49364453125,2.3624171133607623,0.05717625074870884,0.21859394334703683
1772094492210594600,0.503594482421875,2.6557325356930495,0.029788185346499085,-0.0009836042098701
1772094492220543700,0.513543701171875,3.2749364471822977,0.11583693136889486,-0.14744637732580304
1772094492230493700,0.52349365234375,4.224147973585128,0.2469663801440969,-0.24389899193011222
1772094492240443000,0.53344287109375,5.190794034391641,0.2523395610824227,-0.17079985344968734
1772094492250392600,0.543392578125,5.728808439925313,0.18139650465734303,-0.08887260780408977
1772094492260341800,0.553341796875,6.113406307682395,0.24372743475548922,0.12149291130397469
1772094492270291700,0.563291748046875,6.31459348141551,0.4160344048324972,0.3305017916386947
1772094492280241700,0.57324169921875,6.576726999020576,0.4625887238018214,0.4462409982541576
1772094492290190600,0.583190673828125,6.93371965149343,0.351721068745479,0.6607658289987594
1772094492300140500,0.593140625,7.193116437610984,0.2051433640129864,0.7257290072966367
1772094492310089700,0.60308984375,7.325548639547825,0.18155191441476343,0.5677107478782534
1772094492320039700,0.613039794921875,7.32087655608356,0.34401750863082703,0.3228538341687992
1772094492329988600,0.622988525390625,6.816725257185101,0.3419249933309853,0.1501254603419453
1772094492339938600,0.6329384765625,6.260401287978887,0.2937465802911669,-0.022845307406038046
1772094492349887500,0.642887451171875,5.835364442327618,0.42789661899656056,-0.16893822429627178
1772094492359837700,0.652837646484375,5.533616122692823,0.6818311941854656,-0.24084822605736553
1772094492369786600,0.66278662109375,5.0660933034896845,0.8340878944024444,-0.22468634193800388
1772094492379736600,0.672736572265625,4.178351268050075,0.7552030121274292,-0.30072635617591437
1772094492389685500,0.682685546875,3.410657753792405,0.5732582990027963,-0.5048615660596638
1772094492399635700,0.6926357421875,2.8162551060825582,0.5560359460450709,-0.5195085886366665
1772094492409584600,0.702584716796875,2.114980229628086,0.7234184653319418,-0.3608995967835188
1772094492419534600,0.71253466796875,1.3350754685729742,0.7172219487793743,-0.09651552377268671
1772094492429483800,0.72248388671875,0.29801497832536694,0.628266338866949,0.3301732538040727
1772094492439433700,0.732433837890625,-1.0312474200546742,0.6127754858769476,0.40790312082506713
1772094492449382700,0.742382568359375,-2.258494382071495,0.634467531594634,0.004788695581257343
1772094492459332600,0.75233251953125,-3.0306489673912522,0.6448216062180697,-0.3822691325485706
1772094492469282600,0.762282470703125,-3.3281413831472393,0.5593873022995889,-0.48461891543269153
1772094492479231500,0.7722314453125,-3.2219173891782757,0.17777941013872622,-0.5351797666296363
1772094492489181700,0.782181640625,-2.436445641645789,-0.9348593220539391,-0.05132920522093773
1772094492499130600,0.792130615234375,-3.3404636891037223,-1.5026114248558877,-0.00010229133069515228
1772094492509080600,0.80208056640625,-3.60930810252428,-1.7972458208322524,-0.5045233470812439
1772094492519029500,0.812029541015625,-4.618623676756024,-1.8327451503671706,-0.2708645210713148
1772094492528979700,0.821979736328125,-5.802772086280584,-1.3336314072445035,0.2590631702490151
1772094492538928600,0.8319287109375,-6.698731914967298,-0.7264318218037485,0.6152444332737476
1772094492548878600,0.841878662109375,-7.111538224598765,-0.19779343964159488,0.8460247081726789
1772094492558827500,0.85182763671875,-6.733956957605481,0.31748452568799257,0.7778064736016094
1772094492568777700,0.86177783203125,-5.522331343090534,0.6577551759406924,0.5847231113471091
1772094492578726700,0.8717265625,-4.105430408746004,1.1038206349648534,0.3666516575042158
1772094492588676600,0.881676513671875,-2.9351620560139415,0.9005051439661532,0.6907284941293299
1772094492598625500,0.89162548828125,-1.7586358119308947,0.3780187085624784,0.9513858017019927
1772094492608575700,0.90157568359375,-0.9367278924047946,0.004774301729723811,0.9189353383436798
1772094492618524700,0.911524658203125,-0.2521428694665432,-0.2806236254762858,0.8857833025872707
1772094492628474600,0.921474609375,0.244517196893692,-0.4687416204083711,0.7839176499582826
1772094492638423800,0.931423828125,0.6496382127195597,-0.509627319156751,0.6061442311689257
1772094492648373500,0.94137353515625,1.1047124692380428,-0.5442049307368696,0.42788916634246704
1772094492658323700,0.95132373046875,1.549926425999403,-0.5531195106090977,0.22467589360922574
1772094492668272600,0.961272705078125,2.0540940915107724,-0.5563189642375335,0.11409633477926254
1772094492678222600,0.97122265625,2.4942092638283966,-0.6393414943065494,0.03834726631194353
1772094492688171500,0.981171630859375,2.777617040130496,-0.745783149614185,0.013308394384384154
1772094492698121700,0.991121826171875,2.9872037934184075,-0.7668811749614775,-0.07991480984464287
1772094492708070700,1.001070556640625,3.31831206305027,-0.7169928161986172,-0.2026252437122166
1772094492718020600,1.0110205078125,3.5329426557242867,-0.7478175780512392,-0.20562749426811933
1772094492727969500,1.020969482421875,3.5845243744015693,-0.8391443010091781,-0.19104557281658052
1772094492737919700,1.030919677734375,3.568177635234594,-0.9201311239995061,-0.1900334731645882
1772094492747868700,1.04086865234375,3.431011975035071,-0.9894022286243737,-0.22099618218317627
1772094492757818600,1.050818603515625,3.368849825632572,-1.0269590021457522,-0.2583684659831226
1772094492767767600,1.060767578125,3.512238890391588,-0.8800199898201971,-0.34147242725789545
1772094492777717500,1.070717529296875,3.666239950057864,-0.6402990142270922,-0.3721926327574998
1772094492787666700,1.080666748046875,3.624251404634118,-0.5420758828189224,-0.48296398783251643
1772094492797616600,1.09061669921875,3.786747320923209,-0.5087981017909944,-0.5496641459908336
1772094492807565600,1.100565673828125,3.98682273402214,-0.47467630768697705,-0.5386632248312234
1772094492817515500,1.110515625,4.11006274472177,-0.4641652524035424,-0.5808921548821032
1772094492827464700,1.120464599609375,4.153333146649599,-0.5256785459758714,-0.7690910330306738
1772094492837414700,1.13041455078125,4.1456513599753375,-0.5891080119004473,-0.9447468751441687
1772094492847364600,1.140364501953125,4.097763235118985,-0.6676508392721414,-1.075867409960553
1772094492857313500,1.1503134765625,4.166869504570961,-0.6329343306779861,-1.2382219450175762
1772094492867263700,1.160263671875,4.239714376029372,-0.41594142931941896,-1.2627300710693001
1772094492877212700,1.170212646484375,4.200015987369418,-0.01292545948140323,-1.0915399761930107
1772094492887162600,1.18016259765625,4.331130676966906,0.6121972110649571,-0.9031503247126936
1772094492897111600,1.190111572265625,4.59388378777504,0.6353937065288424,-0.8956048047039658
1772094492907061800,1.200061767578125,4.935262691530585,0.7209666882656515,-0.7519978594105691
1772094492917010700,1.2100107421875,5.2646787702918045,1.2021142743259667,-0.5586807614654302
1772094492926960600,1.219960693359375,5.242996515315771,1.153505287849158,-0.6708057231064886
1772094492936909600,1.22990966796875,4.975939569833875,0.778810682208091,-0.9345266560334712
1772094492946859500,1.239859619140625,4.733173600521684,0.9960399861384183,-1.1937309883188456
1772094492956808700,1.24980859375,4.377694275221228,1.3968262606956063,-1.3494000542625784
1772094492966758700,1.259758544921875,3.9616427000582215,1.5573397709958254,-1.3756725596383212
1772094492976707600,1.26970751953125,3.4839480309307573,1.8137185244664549,-1.3991580646440387
1772094492986657500,1.279657470703125,3.3026860393732784,2.2383383137494324,-1.4389255730174482
1772094492996606700,1.289606689453125,3.065842445847392,2.627920399659872,-1.4383226386882364
1772094493006556700,1.299556640625,2.172352806666493,2.9074741308823224,-1.436125567035377
1772094493016505600,1.309505615234375,0.9470353514075278,3.0716096310719845,-1.2876039616934953
1772094493026455600,1.31945556640625,-0.24040566992163656,3.066164809669554,-1.1282382331889123
1772094493036404700,1.32940478515625,-0.9983499435812234,2.8556124262198805,-0.9583072715282439
1772094493046354700,1.339354736328125,-1.5500883385628461,2.5537775973454115,-0.8688322408515959
1772094493056304600,1.3493046875,-2.9771418336093425,2.3779621807560325,-1.011418976251781
1772094493066253600,1.359253662109375,-4.475141673016548,2.3432854196503756,-1.2431827822953463
1772094493076203800,1.369203857421875,-5.816741574922204,2.219578522091359,-1.4883676493175326
1772094493086152700,1.379152587890625,-7.0408864792704575,2.0156457029119133,-1.6863139414332806
1772094493096102700,1.3891025390625,-7.766552285137772,1.6502080243073403,-1.792552110058069
1772094493106051600,1.399051513671875,-8.118081996029614,1.0995709416311235,-1.7897843989104032
1772094493116001500,1.40900146484375,-8.466728260439634,0.7566826562259346,-1.491100143021345
1772094493125950700,1.41895068359375,-8.844585421764851,0.6721000737659633,-1.0380982357975095
1772094493135900700,1.428900634765625,-8.967168429860472,0.678350731658563,-0.5331725915256887
1772094493145849600,1.438849609375,-8.878934850612282,0.6305719854608178,-0.04036481667943299
1772094493155799600,1.448799560546875,-8.497779232263564,0.41964733463264997,0.40479572939425706
1772094493165748500,1.45874853515625,-7.71916684910655,0.1725518847487867,0.6720700439538806
1772094493175698400,1.468698486328125,-6.696448772466183,-0.0509611025609076,0.8698495281353592
1772094493185647600,1.478647705078125,-5.739606897315382,-0.3522444350324571,1.1224660795282573
1772094493195597600,1.48859765625,-5.0809693855822085,-0.6575482551917433,1.27341688477844
1772094493205546500,1.49854638671875,-4.733512623217702,-0.8872068325843662,1.2683750912189482
1772094493215496400,1.508496337890625,-4.530152197098731,-0.9819038356930017,1.1502647715579717
1772094493225445600,1.518445556640625,-4.259732497185468,-0.9914264279283582,0.9774698718335479
1772094493235395600,1.5283955078125,-3.972102719274163,-1.0600072122015058,0.7991318048987537
1772094493245345500,1.538345458984375,-3.5706910793602464,-1.1479089291468263,0.664612640620023
1772094493255294500,1.54829443359375,-3.0483751782178876,-1.1411269408565015,0.5054985487889498
1772094493265244700,1.55824462890625,-2.5690514465838667,-1.060577047978714,0.4263838398134336
1772094493275193600,1.568193603515625,-2.307107314071059,-0.9762413529518991,0.4555785162461921
1772094493285143600,1.5781435546875,-2.288962585571408,-0.9831585849944502,0.49805378574095666
1772094493295092500,1.588092529296875,-2.387701192221045,-0.9674416681636124,0.5138954979952425
1772094493305042700,1.598042724609375,-2.5634049651294943,-0.8103659502923488,0.567755317672342
1772094493314991600,1.60799169921875,-2.6844109331667423,-0.6211991038944572,0.4933352693190798
1772094493324941600,1.617941650390625,-2.731317645770311,-0.5443359367053956,0.30444121198058127
1772094493334890500,1.627890380859375,-2.968027968305349,-0.49157560270279643,0.03809122745795175
1772094493344840400,1.63784033203125,-3.5578725143194196,-0.4124980473998934,-0.2724530323717743
1772094493354789600,1.64778955078125,-4.234930648884177,-0.39207565629184243,-0.448947188472934
1772094493364739600,1.657739501953125,-5.011622293111682,-0.3017806327355094,-0.5191438835101202
1772094493374688500,1.6676884765625,-6.131126673290133,0.00894411649396643,-0.5201688791763037
1772094493384638500,1.677638427734375,-7.569041169568896,0.5459082275234163,-0.5278861390227452
1772094493394587400,1.68758740234375,-8.800783104917407,1.2987566393487155,-0.689464611673355
1772094493404537600,1.69753759765625,-9.641533087557553,2.1765752466671167,-0.9384534740883856
1772094493414486500,1.707486572265625,-10.223534518855809,2.8547283368617293,-0.9844888837501407
1772094493424436500,1.7174365234375,-10.383846661365032,3.0763436738565564,-0.6488158634860068
1772094493434386700,1.72738671875,-9.950380425542592,3.1401193959355354,-0.31331995335444807
1772094493444335600,1.737335693359375,-8.955046030390262,3.346514951966703,-0.31230741531103845
1772094493454285600,1.74728564453125,-7.353764680206775,3.4457693991839884,-0.5665674230620265
1772094493464234500,1.757234375,-5.117777898019552,3.1359228210285304,-0.7438223709352314
1772094493474184400,1.767184326171875,-2.721968218144774,2.553905899900198,-0.6923045112743973
1772094493484133600,1.777133544921875,-0.44986382839381694,2.0188713869601487,-0.5018819657269865
1772094493494083600,1.78708349609375,1.5980571274399757,1.4915660069674253,-0.17327961450144647
1772094493504032500,1.797032470703125,3.306764248597622,0.9722285371139645,0.17795367072708904
1772094493513982500,1.806982421875,4.7111400478899474,0.5305129073297604,0.4114449581503868
1772094493523931600,1.816931640625,6.0841176693558685,0.08546652568764984,0.649681321208924
1772094493533881600,1.826881591796875,7.264046999880671,-0.4446730913503095,0.9655401453912258
1772094493543830500,1.83683056640625,8.055435277980566,-0.9648662647176534,1.3293131056539713
1772094493553780500,1.846780517578125,8.3101687484622,-1.372086810106039,1.5826443081222474
1772094493563729400,1.8567294921875,8.2594211425215,-1.5451165414996444,1.8027376962468027
1772094493573679600,1.8666796875,8.05874425639808,-1.562095587220788,2.0566975520074364
1772094493583628500,1.876628662109375,7.724131193515658,-1.658928360249102,2.2609788923636076
1772094493593578500,1.88657861328125,7.406466927346587,-1.9058625551566482,2.4553683687806127
1772094493603528700,1.89652880859375,7.341006320920586,-2.166874813646823,2.6528490892112253
1772094493613477600,1.9064775390625,7.19276864708662,-2.391101940575242,2.679842017816007
1772094493623427600,1.916427490234375,6.892654066133499,-2.755593424370885,2.601041745084524
1772094493633376500,1.92637646484375,6.848105314832925,-3.1150030748575923,2.4343380018420517
1772094493643326500,1.936326416015625,6.872779737362265,-3.1221424252182244,2.172555051240325
1772094493653275600,1.946275634765625,6.763366591963171,-2.5868197429865596,1.8799755419671533
1772094493663225600,1.9562255859375,6.798145059877633,-2.0496232297070325,1.4037747646592558
1772094493673174500,1.966174560546875,6.945700596666335,-1.791864127793908,0.8429317105934023
1772094493683124500,1.97612451171875,7.0914680809944866,-1.6780575697414577,0.27705475401356816
1772094493693073400,1.986073486328125,7.320999890202283,-1.466014655473083,-0.20289507362954318
1772094493703023600,1.996023681640625,7.367789113906025,-1.1341172812901437,-0.5501688075773418
1772094493712972500,2.00597265625,6.91419252872467,-0.8559378340955823,-0.7034856843717396
1772094493722922500,2.015922607421875,6.221712953144311,-0.6718951257783919,-0.6696128600601107
1772094493732871400,2.025871337890625,5.787686745351553,-0.4638067943546921,-0.5105907573614269
1772094493742821600,2.035821533203125,5.5758197721719736,-0.08343706568665803,-0.36492161884121593
1772094493752770600,2.0457705078125,5.430168607699871,0.4579579952612519,-0.49705549541860816
1772094493762720500,2.055720458984375,4.7322979867309325,1.1554224465820937,-0.745895743143186
1772094493772669400,2.06566943359375,4.034134520295262,1.3613188939847052,-0.6238610165800899
1772094493782619600,2.07561962890625,4.082811165180802,1.4581858615435659,-0.21716822139285505
1772094493792568600,2.085568603515625,2.9936919863939284,1.8296223421715199,-0.24422436969326808
1772094493802518500,2.0955185546875,1.5358505543738603,2.1698260646678507,-0.4197763678397983
1772094493812468500,2.105468505859375,0.427258028832078,2.1034385526552795,-0.5062130902664735
1772094493822417700,2.115417724609375,-0.6205635094046592,1.6310510500252247,-0.6170346046261489
1772094493832367600,2.12536767578125,-1.8783429723292588,1.0869022333897649,-0.7755256691880523
1772094493842316500,2.135316650390625,-3.372376830714941,0.756057583130151,-1.170649168743193
1772094493852266500,2.1452666015625,-4.81488566904664,0.5406244419015944,-1.6902365217044948
1772094493862215400,2.15521533203125,-6.04400017850101,0.45856648254841564,-2.1381375255927444
1772094493872165600,2.16516552734375,-7.055810492157936,0.5152063979307189,-2.423747195853293
1772094493882114600,2.175114501953125,-7.826034986197948,0.5049418282216415,-2.4763772545397282
1772094493892064500,2.185064453125,-8.125268692663312,0.3060610682673752,-2.339574728564173
1772094493902013400,2.195013427734375,-8.080597191765904,0.03677303926516324,-2.113712109388411
1772094493911963600,2.204963623046875,-7.847104077711701,-0.20313852699659762,-1.9269097270995377
1772094493921912600,2.21491259765625,-7.560477339363097,-0.40026868042387065,-1.8015394263729452
1772094493931862500,2.224862548828125,-7.106389755794406,-0.5093581102939322,-1.8005749652549623
1772094493941811500,2.2348115234375,-6.450535152778029,-0.5056341943999753,-1.7175933151856064
1772094493951761700,2.24476171875,-5.758369465452432,-0.5404406828325241,-1.463641642731428
1772094493961711600,2.254711669921875,-4.9315749429285525,-0.620265037914738,-1.0669215216346084
1772094493971660500,2.26466064453125,-3.957980670419335,-0.7064033253841102,-0.695293244761601
1772094493981610500,2.274610595703125,-2.807396676844358,-0.7101265106257051,-0.3990336587361991
1772094493991559700,2.2845595703125,-1.6119512127578257,-0.7282019002161919,-0.11348733603544532
1772094494001509600,2.294509521484375,-0.48007484226226804,-0.8116769598256797,0.16925737324804066
1772094494011458600,2.30445849609375,0.4538070130616426,-0.8783714188955724,0.3989513872802257
1772094494021408500,2.314408447265625,1.278092183113098,-0.9170418527472763,0.5148822440102696
1772094494031357400,2.324357421875,2.181983973842859,-0.9653631083238869,0.5304056110303849
1772094494041307600,2.3343076171875,3.064506228807568,-1.021816890016943,0.5373637230725958
1772094494051256600,2.344256591796875,3.7527147029399868,-1.0968310683384537,0.5817659420419484
1772094494061206500,2.35420654296875,4.148530130282044,-1.191294774147868,0.642043227545917
1772094494071155500,2.364155517578125,4.4127895539999,-1.3154318798176943,0.6983698026627302
1772094494081105700,2.374105712890625,4.5876597986936565,-1.3704501488149166,0.7869805446602404
1772094494091054600,2.3840546875,4.586078082460165,-1.3739280540585517,0.8827025799676775
1772094494101004500,2.394004638671875,4.313127987286448,-1.3029276414230466,0.9284268047884107
1772094494110954500,2.40395458984375,3.996194958001375,-1.217817162631452,0.8402334844853728
1772094494120903700,2.413903564453125,3.8129549443691966,-1.0988972801532595,0.8237936602074653
1772094494130853600,2.423853515625,3.71734879052639,-0.9757910519011318,0.7758166149586438
1772094494140802600,2.433802490234375,3.7820296447515487,-0.8357441371768712,0.7654983423009515
1772094494150752500,2.44375244140625,3.8627445189327,-0.6732465403873473,0.6783744778603314
1772094494160701700,2.45370166015625,3.6733857301592825,-0.5759911580327898,0.6398644222021103
1772094494170652000,2.46365185546875,3.2101725908488032,-0.5567990393720567,0.6397228217743337
1772094494180600800,2.473600830078125,2.2170640550523997,-0.47161012504938987,0.7169607405599207
1772094494190550800,2.48355078125,0.7697732431411742,-0.4855184580883011,0.8049404911775141
1772094494200499700,2.493499755859375,-0.6917296339958906,-0.5612547766719013,0.9322292658112943
1772094494210450000,2.503449951171875,-2.051300076878071,-0.6018959991399199,0.8008309369668364
1772094494220398800,2.51339892578125,-3.268341286700964,-0.4687856787458062,0.556808172526583
1772094494230348800,2.523348876953125,-4.204650661432743,-0.31001185171976686,0.2532726041488349
1772094494240298800,2.533298828125,-4.6911879777073855,-0.1419569861292839,0.00853825737312436
1772094494250247700,2.54324755859375,-4.89573381421864,0.016226400722935796,-0.12919307388514278
1772094494260198000,2.553197998046875,-4.935430449312925,0.1689024223305285,-0.12357961791753769
1772094494270146800,2.563146728515625,-4.797815876302122,0.1880846041191369,-0.04324183342047035
1772094494280096800,2.5730966796875,-4.441134189474583,0.16206073974221943,0.09741539522185921
1772094494290045700,2.583045654296875,-4.076367395868897,0.1607055988062173,0.159892090466246
1772094494299996000,2.592995849609375,-3.668024495387077,0.19004881686419248,0.18055830026753245
1772094494309944800,2.60294482421875,-3.1598335657089947,0.1822388007003814,0.14172237365581095
1772094494319894800,2.612894775390625,-2.5397008489370343,0.2222143258012831,0.0568573209926486
1772094494329843700,2.62284375,-1.8105419402569531,0.2665495074164122,-0.05088401873670518
1772094494339794000,2.6327939453125,-0.9992384168535471,0.338615138130635,-0.0832350403085351
1772094494349742800,2.642742919921875,-0.1719061341911554,0.41919199208058416,-0.12331976140495389
1772094494359692800,2.65269287109375,0.6205722772330046,0.5407761253319681,-0.16989742471724747
1772094494369642800,2.662642822265625,1.2794301537185906,0.6187356363903731,-0.2793666476851329
1772094494379592000,2.672592041015625,1.8886638753354548,0.6638887102596461,-0.3836834563259035
1772094494389542000,2.6825419921875,2.4134248315423728,0.6491096588008105,-0.48808089245483277
1772094494399490800,2.69249072265625,2.832688354489207,0.6375114293351769,-0.5236050641700625
1772094494409440800,2.702440673828125,3.1856267631351947,0.6369218659441918,-0.5642429621698335
1772094494419389700,2.7123896484375,3.404034536260366,0.6549026360537856,-0.5797684480817988
1772094494429340000,2.72233984375,3.4154315440654752,0.677061495565623,-0.5987109393630177
1772094494439288800,2.732288818359375,3.400478889605403,0.7430495599318295,-0.6108307815499603
1772094494449238800,2.74223876953125,3.4106565847486254,0.8765197996795177,-0.6801983322866261
1772094494459187700,2.752187744140625,3.3693653739392757,0.9691152273990213,-0.7771578004345298
1772094494469138000,2.762137939453125,3.252261089515686,0.9680117962017655,-0.821691281100735
1772094494479086800,2.7720869140625,3.213401489767432,0.9622355508878827,-0.7852533555414527
1772094494489036800,2.782036865234375,3.1471032634735105,1.000483302348107,-0.7300953127473593
1772094494498986800,2.79198681640625,2.921574844688177,1.050046520809829,-0.6205662858836353
1772094494508936000,2.80193603515625,2.5477725117117167,1.0521138286031781,-0.43532395598571744
1772094494518886000,2.811885986328125,2.196262674564123,1.0510912075571714,-0.23614351896513253
1772094494528834800,2.821834716796875,1.878779025658965,1.0286315384678542,-0.09680223175957799
1772094494538784800,2.83178466796875,1.5873632994681597,0.9665779640063643,-0.01995057234521955
1772094494548734000,2.84173388671875,1.2828718186050652,0.8947820170789956,-0.018298786550201476
1772094494558684000,2.851683837890625,0.9044722209662198,0.7863714728511869,-0.0035983898181468246
1772094494568632800,2.8616328125,0.32007541896402836,0.6363143285050988,0.02734656434804201
1772094494578582800,2.871582763671875,-0.4170300648063421,0.4970265615850687,0.1451623580418527
1772094494588531700,2.88153173828125,-1.1262263819098473,0.4121911003425717,0.23893647415190933
1772094494598482000,2.89148193359375,-1.6180740795522928,0.33462752979919314,0.3013722528640181
1772094494608430800,2.901430908203125,-1.8522499151736498,0.29473727182894943,0.3406563616346568
1772094494618380800,2.911380859375,-1.8961855030119419,0.25460531405732034,0.3269385827317834
1772094494628331000,2.9213310546875,-1.7878215744048356,0.19151552841588854,0.22655074757039545
1772094494638280000,2.931280029296875,-1.6787556350082158,0.059291708532720803,0.04090688766688108
1772094494648230000,2.94122998046875,-1.6149918956279754,-0.1513143048003316,-0.1017608770802617
1772094494658178800,2.9511787109375,-1.608058296972513,-0.38580081380605696,-0.12650843791104852
1772094494668128800,2.961128662109375,-1.7910253388822077,-0.5039025848343968,-0.12453509201146662
1772094494678078000,2.971077880859375,-2.0769752008825537,-0.5483585432849825,-0.1707159014932811
1772094494688028000,2.98102783203125,-2.4982453874766826,-0.5758697966754436,-0.3901156082652509
1772094494697976800,2.990976806640625,-3.0560090340971944,-0.6088441377773881,-0.7501468977816402
1772094494707926800,3.0009267578125,-3.7410166663616895,-0.7335697108596563,-1.077114414346963
1772094494717877000,3.010876953125,-4.907198042041063,-0.8463195994660258,-1.2924362041555344
1772094494727826000,3.020825927734375,-6.641459291172027,-0.8585884216696024,-1.443615630529821
1772094494737775900,3.03077587890625,-8.362509761074184,-0.8015813169427216,-1.4932900542810559
1772094494747724800,3.040724853515625,-9.53907692168951,-0.6516216416217386,-1.4596476046591997
1772094494757675000,3.050675048828125,-9.942829571771622,-0.4003708986893296,-1.3062025714404881
1772094494767624000,3.0606240234375,-9.456118652495741,-0.24512992196455596,-1.0962664201930166
1772094494777574000,3.070573974609375,-8.242514431384205,-0.31336978384554387,-0.7929170220371335
1772094494787522800,3.080522705078125,-6.719310008093714,-0.49852074566558,-0.4359838446665555
1772094494797472800,3.09047265625,-5.029498141542077,-0.8150074924878775,-0.016989274854212998
1772094494807422000,3.100421875,-3.4495997711271045,-1.147718959532678,0.39997020893394947
1772094494817372000,3.110371826171875,-2.1369114909291267,-1.337021049682796,0.5666758518725633
1772094494827321900,3.12032177734375,-1.1765583927869796,-1.4287763733163474,0.6132745945055037
1772094494837270800,3.130270751953125,-0.5605179137647152,-1.3964908912613987,0.4685598706332966
1772094494847221000,3.140220947265625,-0.09539455691874027,-1.3183314006514846,0.21603812138438225
1772094494857170000,3.150169921875,0.46267070299685,-1.275181702493876,-0.11594831932149827
1772094494867119900,3.160119873046875,1.2102291917204857,-1.1808840009011328,-0.3781591034138575
1772094494877068800,3.17006884765625,2.0360767887830735,-1.0235986588671804,-0.4587046854427084
1772094494887019000,3.18001904296875,2.906884056034684,-0.8662211085051298,-0.38113990932293235
1772094494896968000,3.189968017578125,3.884038651373982,-0.674520432780683,-0.24588665861599146
1772094494906918000,3.19991796875,4.845003159412741,-0.44445780463181433,-0.1374648988744244
1772094494916866800,3.20986669921875,5.744581178596616,-0.2685756794817746,-0.03762424926701933
1772094494926817000,3.219817138671875,6.543309298065305,-0.16617752741128206,0.10143745381217449
1772094494936767000,3.22976708984375,7.213473581463098,-0.06742730338908731,0.2161964537512511
1772094494946716000,3.2397158203125,7.73514943113625,0.04190802753344178,0.30417463346626605
1772094494956665900,3.249665771484375,8.014860106486081,0.12498466240987181,0.3582616494953632
1772094494966614800,3.25961474609375,8.095214330661296,0.20160444929711518,0.3977347780320793
1772094494976565000,3.26956494140625,8.103214681765436,0.32021570421755313,0.39068591896649446
1772094494986514000,3.279513916015625,8.113813817191124,0.47778512388989325,0.33062790223639454
1772094494996463900,3.2894638671875,8.084851926600933,0.6459647849038243,0.1842695393430069
1772094495006412800,3.299412841796875,8.031746943879128,0.8116166810058056,0.045443106324411925
1772094495016363000,3.309363037109375,7.978526225823163,0.9489926229551434,-0.08783252416662872
1772094495026312000,3.31931201171875,7.9512465892314905,1.0667259990625082,-0.21205610254351048
1772094495036262000,3.329261962890625,7.790827479216456,1.129605064562708,-0.27233923326637594
1772094495046211800,3.3392119140625,7.41793057064712,1.0532945628203452,-0.27596104049272835
1772094495056161000,3.3491611328125,6.820040665343403,0.8656329333536327,-0.14012122206948696
1772094495066111000,3.359111083984375,6.084274321222305,0.6175925307698548,0.13413305103797465
1772094495076060000,3.369059814453125,5.221082205149531,0.4745419041849673,0.39566520521640774
1772094495086009900,3.379009765625,4.220737872880697,0.5049577929757535,0.46640846475306896
1772094495095959000,3.388958984375,3.241080354809761,0.5947520456694066,0.5116433351542801
1772094495105909000,3.398908935546875,2.1261229704111813,0.5846781031616032,0.5313915533278137
1772094495115858000,3.40885791015625,0.7903016519069671,0.46970951559245583,0.5306057001797482
1772094495125807900,3.418807861328125,-0.7370213126182555,0.2680233062960207,0.5737440732257441
1772094495135757800,3.4287578125,-2.172760218423605,0.02702332374304533,0.5435560749066993
1772094495145707000,3.43870703125,-3.6231834831416605,-0.08404255729913711,0.4203371800603345
1772094495155656700,3.44865673828125,-5.208163102343678,-0.037552462672442194,0.2970659339722246
1772094495165606100,3.458606201171875,-6.8475295607715845,0.03987535266205668,0.2755271791201085
1772094495175556000,3.46855615234375,-8.268727315527201,0.04049479973465204,0.326169059664011
1772094495185505000,3.478505126953125,-9.337755307921766,0.025886574798077343,0.39649142690747974
1772094495195455200,3.488455322265625,-10.123573092412949,0.050066053417325014,0.35397352384738623
1772094495205404200,3.498404052734375,-10.559221932971477,0.08325710600987077,0.17494009505957364
1772094495215354000,3.50835400390625,-10.649306108522415,0.0019255612351000307,-0.11044774914383887
1772094495225304000,3.518303955078125,-10.179885931265353,-0.05353986700773239,-0.45869785384312267
1772094495235253000,3.5282529296875,-9.3380084059,0.05001476162150502,-0.7358658589728176
1772094495245203200,3.538203125,-8.198450833252071,0.2018872848264873,-0.8425536710612476
1772094495255152000,3.548152099609375,-6.695070469850301,0.32654066945537924,-0.7970806445226073
1772094495265102000,3.55810205078125,-4.979183081799746,0.4271969462946057,-0.5599182673711329
1772094495275051000,3.568051025390625,-3.2108845385104416,0.47748482576906676,-0.2874683037392795
1772094495285001200,3.578001220703125,-1.5158219118237495,0.4672597843527794,-0.0016944558929651975
1772094495294951200,3.587951171875,0.013297872990369795,0.3804125448964536,0.25176607204340395
1772094495304900000,3.597900146484375,1.3654296903043985,0.2475172554925084,0.4203204846538603
1772094495314850000,3.60785009765625,2.5737469109237194,0.07605112015381454,0.48279429382141675
1772094495324799200,3.61779931640625,3.6161557764619587,-0.07318579385057092,0.43580947448033835
1772094495334749200,3.627749267578125,4.38725939142406,-0.19424992181584239,0.2731531982640736
1772094495344698000,3.637697998046875,4.935327573460341,-0.28450711584612726,0.11886062657162547
1772094495354648000,3.64764794921875,5.241273344784974,-0.40505628002658484,0.01078293102737516
1772094495364597200,3.65759716796875,5.396043050736188,-0.5356494299679995,-0.059901675390917807
1772094495374547200,3.667547119140625,5.357034397906065,-0.6041381520435214,-0.07319468954307957
1772094495384496000,3.67749609375,5.204358449363708,-0.6071120532877743,-0.09968034447915851
1772094495394446000,3.687446044921875,5.03747511177063,-0.6287801336079836,-0.12285364173054694
1772094495404396300,3.697396240234375,4.861666709443926,-0.6324059228897094,-0.11649108442869037
1772094495414345200,3.70734521484375,4.5773131767243145,-0.6342926134191453,0.007883574590366333
1772094495424295200,3.717295166015625,4.182067658224701,-0.5814474506773054,0.10508921778537332
1772094495434244000,3.727244140625,3.7263013277888297,-0.4809136311739683,0.14765355380307882
1772094495444194300,3.7371943359375,3.2167589835017916,-0.3863412773583084,0.2040771960861981
1772094495454143200,3.747143310546875,2.582704708883166,-0.36347163922861214,0.24900263521205632
1772094495464093200,3.75709326171875,1.954729461917281,-0.38257038051746783,0.24626736502926797
1772094495474043100,3.767043212890625,1.4344611409544943,-0.3830649591013789,0.19850962508693337
1772094495483992000,3.776991943359375,0.8516501468390226,-0.3515584255296737,0.031773513944819566
1772094495493942300,3.7869423828125,0.14619827696084975,-0.33757585821077224,-0.2464082348046824
1772094495503891200,3.79689111328125,-0.5842191073477268,-0.3892298384066671,-0.4692637080537155
1772094495513841200,3.806841064453125,-1.4387491935372352,-0.4507249752677977,-0.5929897487046196
1772094495523790000,3.8167900390625,-2.2502672364741563,-0.3982963574375957,-0.6293097104400396
1772094495533740300,3.826740234375,-2.971666617068648,-0.22381197025626898,-0.6287334449220449
1772094495543689200,3.836689208984375,-3.5500872672706842,-0.0012823679607361555,-0.5693251973375678
1772094495553639200,3.84663916015625,-3.986812212628126,0.1939981390118599,-0.5387118132133036
1772094495563589000,3.856589111328125,-4.169028143909573,0.2977075198113918,-0.5181440222851932
1772094495573538300,3.866538330078125,-4.105078526568413,0.3252341169014573,-0.5321644373964518
1772094495583488300,3.87648828125,-3.7089433657526967,0.33461284368671473,-0.5965202974509447
1772094495593437200,3.886437255859375,-3.088791359758377,0.23366649785973131,-0.6267183057073503
1772094495603387100,3.89638720703125,-2.421594109472632,0.024855843510851263,-0.5486885789569467
1772094495613336300,3.90633642578125,-1.7883704404592513,-0.2012229756988585,-0.43446993297226727
1772094495623286300,3.916286376953125,-1.2300994288384914,-0.3725350164543837,-0.4465615719780326
1772094495633236200,3.926236328125,-0.7524135275393724,-0.4597032314933836,-0.45520014792047436
1772094495643185200,3.93618505859375,-0.35891397592425345,-0.5006356919929384,-0.44222135081663727
1772094495653135400,3.94613525390625,0.0022241057902574538,-0.49860681651383637,-0.36456411064043637
1772094495663084300,3.956084228515625,0.320368848952651,-0.49470790937915443,-0.2578495566755533
1772094495673034200,3.9660341796875,0.6022597909510136,-0.4794975538309663,-0.1974762634512037
1772094495682983200,3.975983154296875,0.9021014001816511,-0.45352658868506546,-0.11483677788302302
1772094495692933400,3.985933349609375,1.1617355021864175,-0.4525958106409758,-0.08860080512538551
1772094495702882300,3.99588232421875,1.408700676754117,-0.47395986651331184,-0.10587101581282914
1772094495712832300,4.005832275390625,1.543100379371643,-0.5354331568688154,-0.06248568226844072
1772094495722782200,4.0157822265625,1.6002707118362187,-0.6331273690320551,0.03565561607517302
1772094495732731100,4.025731201171875,1.6960826173841952,-0.6867158974871039,0.14570859374776482
1772094495742681300,4.035681396484375,1.8114602241456508,-0.6756848003849387,0.15087788614444433
1772094495752630300,4.04563037109375,1.8467688534140585,-0.6133870419040321,0.14989990795776248
1772094495762580200,4.055580322265625,1.8008084817498922,-0.6084079383172094,0.17356047726944088
1772094495772529200,4.065529052734375,1.775442569825053,-0.6187872935123742,0.18711203275993465
1772094495782479400,4.075479248046875,1.7806968370914458,-0.5610322930276394,0.12434512239731847
1772094495792428300,4.08542822265625,1.817498919788003,-0.47030565485469994,-0.009009308950975537
1772094495802378200,4.095378173828125,1.8256302037954328,-0.3935828459843993,-0.07257453008443117
1772094495812328200,4.105328125,1.810159662941098,-0.3944145475681871,-0.11777926107570529
1772094495822277400,4.11527734375,1.7790543305814266,-0.41525114550031716,-0.17210260661132631
1772094495832227300,4.125227294921875,1.7171967170834541,-0.38641529244259,-0.2223782841913402
1772094495842176300,4.13517626953125,1.5973434262126682,-0.3045844929087907,-0.2939031590923667
1772094495852126200,4.145126220703125,1.4146838428169488,-0.21174488116987047,-0.30354126746617255
1772094495862075100,4.1550751953125,1.1994500235527754,-0.09967223423793911,-0.28821320382244886
1772094495872025300,4.165025390625,1.046907930523157,0.02137296983115375,-0.2586353002257645
1772094495881975300,4.174975341796875,1.0097253240764141,0.1668150946624577,-0.2479248864453286
1772094495891924200,4.18492431640625,1.109410271665454,0.28533048799298705,-0.27461503271125254
1772094495901874200,4.194874267578125,1.279519001045823,0.34996165785752237,-0.32140937098152933
1772094495911823400,4.2048232421875,1.382890528193116,0.4088332412820309,-0.4172663577802479
1772094495921773300,4.214773193359375,1.4964718991875647,0.4905789928808808,-0.5162814432837068
1772094495931722200,4.22472216796875,1.6303893712460993,0.6848277456529438,-0.6191347187105566
1772094495941672400,4.23467236328125,1.6065484769314526,0.8862661176681518,-0.6221105927161872
1772094495951622100,4.2446220703125,1.4840794506043196,1.0122617837514727,-0.5364317394521088
1772094495961571300,4.2545712890625,1.2990578142523765,0.9618808191660791,-0.4215895547416061
1772094495971521000,4.26452099609375,1.0112047489792109,0.8554013891313225,-0.31253008161839096
1772094495981470200,4.27447021484375,0.5831061776697636,0.8124149917766451,-0.3447895889818668
1772094495991420200,4.284420166015625,0.02532265730500221,0.8701244726192205,-0.5401709625130519
1772094496001369300,4.294369384765625,-0.5864513964444399,0.9669587069522589,-0.735273007646203
1772094496011319000,4.304319091796875,-1.469628315925598,0.9828620132006705,-0.8691088658358901
1772094496021269200,4.314269287109375,-2.486899817597866,0.932808673134446,-1.069498824776709
1772094496031218200,4.32421826171875,-3.6323318352371454,0.9109284113682806,-1.3093749178662895
1772094496041168100,4.334168212890625,-5.149945306652784,0.9110122902594506,-1.5146388395190238
1772094496051117000,4.344116943359375,-6.690362730550766,0.8712072263546288,-1.6790847208321094
1772094496061067000,4.35406689453125,-8.065521787708997,0.7503459274850786,-1.5336255718007683
1772094496071016200,4.36401611328125,-9.380261739739774,0.5203583373337983,-1.1614803583815694
1772094496080966100,4.373966064453125,-10.360540604579448,0.21211261850371957,-0.8857831564567983
1772094496090915300,4.383915283203125,-10.770468143904209,-0.002373451133072376,-0.9531427283719182
1772094496100865000,4.393864990234375,-10.464073459768295,-0.133882254614681,-1.3464704305514692
1772094496110815200,4.403815185546875,-9.533100185367465,-0.23437647275999188,-1.7331906972900033
1772094496120764200,4.41376416015625,-8.173417514282464,-0.42627310944795604,-1.8819418736040592
1772094496130714000,4.423714111328125,-6.566901186054944,-0.7890367465376853,-1.5832802679382263
1772094496140663000,4.4336630859375,-4.767771451172233,-1.113215363036841,-1.170108485995233
1772094496150613200,4.44361328125,-2.913282817161083,-1.1965756371602416,-0.8117538975194096
1772094496160562200,4.453562255859375,-1.1842068617135286,-1.121016684437543,-0.501204577922076
1772094496170515200,4.46351513671875,0.34010406151413913,-1.0757442950375378,-0.21830986570864916
1772094496180465200,4.473465087890625,1.7190905680060387,-1.0341348120592533,0.1668042810074985
1772094496190414000,4.4834140625,2.803137265834212,-0.9865016848772764,0.6133176299296319
1772094496200364000,4.493364013671875,3.6622652012079953,-0.9164166335210203,1.0510046983174979
1772094496210313200,4.503313232421875,4.330530957508087,-0.7845851739563048,1.420602711471915
1772094496220263200,4.51326318359375,4.806427637302876,-0.6149561909168958,1.7127524510256944
1772094496230212000,4.523212158203125,5.255285503524542,-0.4314066729441285,1.926646399988234
1772094496240162000,4.533162109375,5.7229830947726965,-0.2880183388374746,2.0956220336854456
1772094496250112300,4.5431123046875,6.17050357491076,-0.2028285111993551,2.245306691457331
1772094496260061200,4.553061279296875,6.628282414212823,-0.1607683618441224,2.3896267534561453
1772094496270011100,4.56301123046875,7.056197445648908,-0.09025587885603308,2.479682141304016
1772094496279960000,4.5729599609375,7.354345694965124,0.029412849228084084,2.467333824123442
1772094496289910300,4.58291015625,7.66140673405528,0.18306480319574475,2.3776696275502442
1772094496299859200,4.592859130859375,8.03664406827092,0.32108189259283243,2.216873500916362
1772094496309809200,4.60280908203125,8.391454116007685,0.4915757488332689,2.0143183998309073
1772094496319759000,4.612759033203125,8.633519828096032,0.6588754852075129,1.8366899424701928
1772094496329708000,4.6227080078125,8.626685598161815,0.8044216549351811,1.6944452254407107
1772094496339658200,4.632658203125,8.39877525267601,0.8970575607955455,1.5845767374895512
1772094496349607200,4.642607177734375,8.129698199543357,0.9385769543375819,1.5156645293049513
1772094496359557000,4.65255712890625,7.842598582985997,0.9339943027224391,1.5044023999258875
1772094496369506000,4.662506103515625,7.447726573973894,0.8473570527549833,1.542293593033403
1772094496379456300,4.672456298828125,6.842299843424558,0.6757691907327622,1.507514102205634
1772094496389406200,4.68240625,5.992802490705252,0.5130356662955134,1.276797759388387
1772094496399355100,4.692355224609375,4.843192895120382,0.5438085518304259,0.8840569171860814
1772094496409305000,4.70230517578125,3.3677117615133523,0.8069356105174869,0.4279305212661624
1772094496419254300,4.712254150390625,1.6058493887513876,0.9936519950233399,-0.21214345203340051
1772094496429204200,4.722204345703125,-0.470692096889019,0.8371269698373973,-1.0604757795613258
1772094496439153200,4.732153076171875,-2.2962486509263513,0.5412652240231632,-1.738644286520779
1772094496449103000,4.74210302734375,-3.9514971536189316,0.5020430015075952,-2.066450591997802
1772094496459053300,4.75205322265625,-5.380160421949625,0.6839123843736946,-2.211350207450241
1772094496469002200,4.762002197265625,-6.308971549880504,0.8667774272136389,-2.0460244745627043
1772094496478952200,4.7719521484375,-6.754011319118738,0.8844222433671355,-1.6497678793244064
1772094496488901000,4.781901123046875,-6.71650138041377,0.6930374286588281,-1.123473868331313
1772094496498851300,4.791851318359375,-6.528291761675477,0.390048753574118,-0.7210447219379246
1772094496508800300,4.80180029296875,-6.311825185745954,0.08635909061320125,-0.5856659451551735
1772094496518750200,4.811750244140625,-6.180599436989426,-0.32159049970209597,-0.5673239405177534
1772094496528700200,4.8217001953125,-6.276310220250487,-0.6602661358483135,-0.6851930718339979
1772094496538649300,4.8316494140625,-6.449322269856929,-0.5482642525976523,-1.0523363853126764
1772094496548599300,4.841599365234375,-6.549464313563704,0.021728907129354772,-1.4682088045164943
1772094496558548200,4.85154833984375,-6.344581207922101,0.645954628835991,-1.6499506885454058
1772094496568498200,4.861498291015625,-5.710614027065039,1.0387705090358852,-1.540094913945347
1772094496578447000,4.871447021484375,-4.7621430898964405,1.1714972369398922,-1.23565940105319
1772094496588397300,4.881397216796875,-3.7809517863869666,1.1292544975593686,-0.8214844334170222
1772094496598347300,4.89134716796875,-2.8223540074795483,0.8841311514660716,-0.3954565309017896
1772094496608296200,4.901296142578125,-1.7928420329153536,0.46412959656827146,-0.0664813277758658
1772094496618246400,4.911246337890625,-0.908263429942727,0.03285505297067575,0.15301920902207494
1772094496628195300,4.9211953125,-0.21205109757483004,-0.36673922618981447,0.2978188712313771
1772094496638145300,4.931145263671875,0.313785378909111,-0.7525399303980171,0.43718518328033384
1772094496648094200,4.94109423828125,0.726595195671916,-0.9974328287363052,0.5197150709941983
1772094496658044200,4.951044189453125,1.1444617113023996,-1.074223296015337,0.5580844760727137
1772094496667994400,4.960994384765625,1.7074767025798558,-1.0523595469925553,0.5662814457274973
1772094496677943300,4.970943359375,2.3609902954280373,-1.0028986929267645,0.5720141441605985
1772094496687893200,4.980893310546875,2.969432574406266,-0.9666919457748532,0.5786692912008613
1772094496697842200,4.99084228515625,3.5257816780537365,-0.962076268672943,0.5948134204678237
1772094496707792400,5.00079248046875,3.9294665235966444,-1.005111400540173,0.6050042673535645
1772094496717741300,5.0107412109375,4.091203145951033,-1.058805727457255,0.49592824495434756
1772094496727691300,5.020691162109375,4.194758797493577,-1.1473303986065089,0.4175594955079257
1772094496737641200,5.03064111328125,4.223506168550252,-1.235698564019799,0.5056554929163307
1772094496747590400,5.04059033203125,4.189824263700842,-1.2040467036932707,0.5951368437359109
1772094496757540400,5.050540283203125,4.056782405433059,-1.0577889516301453,0.6234585001938044
1772094496767489300,5.0604892578125,3.82799936876595,-0.837752115998417,0.5447330462642014
1772094496777439200,5.070439208984375,3.434267177438736,-0.617300123694539,0.4410611479308456
1772094496787389200,5.08038916015625,2.940135168251395,-0.4870191084422171,0.31458365314733233
1772094496797338400,5.09033837890625,2.3442086719751356,-0.4397470331249758,0.15333448551632464
1772094496807288000,5.1002880859375,1.4474977326601743,-0.4727065785165876,0.07595737745575606
1772094496817237200,5.1102373046875,0.10989888308942318,-0.4178199365423992,0.04942534436099231
1772094496827187200,5.120187255859375,-1.2696166157126425,-0.15101901164818554,-0.005774820541776716
1772094496837136400,5.130136474609375,-2.7257857306063173,0.2495775124905631,-0.06340495253782719
1772094496847086000,5.140086181640625,-4.0794828975409265,0.5497111269377172,0.007605506567656993
1772094496857035300,5.15003515625,-5.012871416389942,0.651417643482238,0.21266155762337147
1772094496866985200,5.159985107421875,-5.474312869852781,0.6104227122057229,0.36509931349568064
1772094496876935200,5.16993505859375,-5.45191632912755,0.5391969298491254,0.3996790439676493
1772094496886884000,5.179884033203125,-5.161770769003033,0.5154418506544083,0.314765841313824
1772094496896834000,5.189833984375,-4.654780447286367,0.45708011644817886,0.20246566923633216
1772094496906783000,5.199782958984375,-4.048856873130798,0.38883192513026293,0.10434168735370039
1772094496916733200,5.209733154296875,-3.45268604670465,0.28724812164995817,-0.0008761252474039792
1772094496926682000,5.21968212890625,-2.789662867233157,0.19103019258435813,-0.1671338052228093
1772094496936632000,5.229632080078125,-2.024971457400918,0.07485655834069475,-0.2849826609360054
1772094496946582300,5.239582275390625,-1.2254694309502838,-0.07427071214360184,-0.26959019028656184
1772094496956531200,5.24953125,-0.4633715447425842,-0.21558287016386166,-0.17128573727048932
1772094496966481200,5.259481201171875,0.19440145911574364,-0.2909337878927588,-0.0675095748450607
1772094496976430000,5.26943017578125,0.7128688681364059,-0.2755665978150442,0.008129201648198067
1772094496986380000,5.279380126953125,1.1905682134389877,-0.22029252742584793,0.032312625790201124
1772094496996330200,5.289330322265625,1.585868676996231,-0.19085739330071955,0.0023217209458351136
1772094497006279200,5.299279052734375,1.9307249014735222,-0.20916536780437453,-0.035598552125692365
1772094497016229000,5.30922900390625,2.260241517999768,-0.21477332561295479,-0.07080927397757768
1772094497026178000,5.319177978515625,2.6041461408406494,-0.21083436046252027,-0.09718297470547259
1772094497036128300,5.329128173828125,2.886848399221897,-0.20423247797945512,-0.13416793968826532
1772094497046077200,5.3390771484375,3.121789958518743,-0.16352830981044097,-0.1835992023333907
1772094497056027100,5.349027099609375,3.379852865684032,-0.08149110098434612,-0.2899425118330866
1772094497065977000,5.35897705078125,3.621584231251478,0.0020358897417783735,-0.31753421004861593
1772094497075926300,5.36892626953125,3.8567642754793163,0.08765073785893618,-0.2793875078100711
1772094497085876200,5.378876220703125,4.20305199406445,0.19235694767609238,-0.2240519164919853
1772094497095825200,5.3888251953125,4.599204690536856,0.2884039040889591,-0.18405600619018075
1772094497105775000,5.398775146484375,4.925896897292136,0.36454482141807676,-0.13228848261721432
1772094497115724300,5.408724365234375,5.107398542824387,0.3928551892969757,-0.08504873866699636
1772094497125674200,5.41867431640625,5.244111783081292,0.3384680578101426,-0.008422996963001788
1772094497135624200,5.428624267578125,5.093482245674729,0.24227836845833806,-0.029726481754519044
1772094497145573000,5.438572998046875,4.63817593396604,0.14550010209623723,-0.18904891910664737
1772094497155523300,5.4485234375,4.290771778571606,-0.005936349512729793,-0.2285344687335193
1772094497165469200,5.45846923828125,4.076927952361107,-0.11717479237653314,-0.16515181935904547
1772094497175419100,5.468419189453125,3.9742181039929387,-0.19682452154420316,-0.09834505902109666
1772094497185368000,5.4783681640625,3.9173435396045444,-0.2693310826926492,-0.05502183092748746
1772094497195318000,5.488318115234375,3.9324394019275903,-0.3109822311218828,-0.07860511548556387
1772094497205268200,5.498268310546875,3.7993198022484775,-0.2699494703193195,-0.20009715000670403
1772094497215217200,5.508217041015625,3.47265974419713,-0.23116768504763022,-0.23619174202103166
1772094497225167000,5.5181669921875,2.9639754780441523,-0.29368412778051567,-0.15522123084468767
1772094497235116000,5.528115966796875,2.249361812067032,-0.4116564820092171,0.08808783236825839
1772094497245066200,5.538066162109375,1.5496218900948762,-0.5095010989611968,0.33429552136585117
1772094497255015200,5.54801513671875,0.7650619967103004,-0.4791585676675662,0.43969775062315164
1772094497264965000,5.557965087890625,-0.216618551620841,-0.5086826587177813,0.27883312533032145
1772094497274915000,5.5679150390625,-1.6814228083908558,-0.5839237411303445,0.1432186400955543
1772094497284864300,5.5778642578125,-3.8861341623485086,-0.6122280811272561,0.1840547640811652
1772094497294814200,5.587814208984375,-6.532739388734102,-0.6589998422395438,0.3032191959049553
1772094497304763100,5.59776318359375,-9.51746188673079,-0.741743518834561,0.2703495390201919
1772094497314713000,5.607713134765625,-12.363139486652612,-0.8454529726993292,0.299858395968657
1772094497324662000,5.617662109375,-14.79188522144556,-0.7541234732624142,0.3927088030962273
1772094497334612200,5.6276123046875,-16.728202828359603,-0.5207087582066655,0.36254670640341935
1772094497344562200,5.637562255859375,-17.9192409973979,-0.3626244478147477,0.21199405189165843
1772094497354511000,5.647510986328125,-18.326005104255675,-0.15186781049724668,0.008810608041100204
1772094497364461000,5.6574609375,-17.879371928346156,0.22023977432530373,-0.25728958470523355
1772094497374410200,5.66741015625,-16.435314107006786,0.4647160181540996,-0.23152272729668766
1772094497384360200,5.677360107421875,-14.44478794004321,0.24302878496684133,0.03608187866322696
1772094497394310000,5.687309814453125,-11.861590479207038,-0.07899798726066946,0.06647851476427168
1772094497404259000,5.697259033203125,-9.54597720259726,-0.3710314069584012,-0.04300338502209634
1772094497414209000,5.707208984375,-7.4779399259299035,-0.795540721604228,-0.2084149330295622
1772094497424158200,5.717158203125,-6.073833006706834,-1.0871180680975316,-0.34065610590633005
1772094497434108000,5.72710791015625,-5.269287725391984,-1.1309665621742606,-0.5503898299168795
1772094497444057000,5.73705712890625,-4.501482567453384,-0.8801014575585723,-0.8227323145862668
1772094497454007000,5.747007080078125,-4.03908074452579,-0.7942429368786513,-0.9622376697797328
1772094497463957000,5.75695703125,-3.232933288711309,-0.6713818424940109,-0.8135765098366886
1772094497473906000,5.766906005859375,-2.597380299967527,-0.1324038526251912,-0.30675942579507826
1772094497483856100,5.776856201171875,-1.749034455370903,0.348301104234159,-0.09233273992901668
1772094497493805000,5.78680517578125,-0.21559271570444105,0.7785435557045042,-0.05683218655139208
1772094497503755000,5.796755126953125,1.499992474529147,1.2074183720834553,0.19757800679262727
1772094497513704000,5.806703857421875,3.1399732654631136,1.4318670328080654,0.31876857414916154
1772094497523654000,5.81665380859375,4.890148707562685,1.5355375429019331,0.3354004869330674
1772094497533604000,5.82660400390625,6.349609849739075,1.794572948361188,0.38436296302266415
1772094497543553000,5.836552978515625,7.430400760641693,2.0486009009219703,0.44983763450663533
1772094497553503000,5.8465029296875,8.259291963183879,2.116066125168651,0.5683139014031737
1772094497563452000,5.856451904296875,8.847038075613975,2.2190897156611085,0.6712769938800484
1772094497573402000,5.866402099609375,9.22180194709897,2.3119947938516736,0.7163073181524873
1772094497583351000,5.87635107421875,9.43485900684595,2.293364912183583,0.7292777127541601
1772094497593301000,5.886301025390625,9.536616084533929,2.262583112689853,0.6927101694658399
1772094497603251000,5.8962509765625,9.68428618761301,2.273282932011038,0.5931176494006067
1772094497613200100,5.9062001953125,9.76766998874247,2.2425249517843127,0.4342270641271025
1772094497623150000,5.916150146484375,9.78691712552607,2.1049929424904286,0.3958666826052591
1772094497633099000,5.92609912109375,9.789028418591618,1.940869424999505,0.5896676916098221
1772094497643049000,5.936049072265625,9.69364613663256,1.9096229306034742,0.7361655725717544
1772094497652998000,5.945997802734375,9.576762216961383,1.9126589372985063,0.8390242548260838
1772094497662948000,5.955947998046875,9.427200016525386,1.886922438495606,0.9473162141755223
1772094497672898000,5.96589794921875,9.080219054979086,1.792495557565242,1.1146353859025984
1772094497682847000,5.975846923828125,8.539456227520107,1.7172168830886483,1.3447162803605197
1772094497692797200,5.985797119140625,8.215009169343114,1.7323877103440462,1.4712106166809797
1772094497702746000,5.99574609375,7.84930538714826,2.029563607496768,1.2221535844005644
1772094497712696000,6.005696044921875,6.6339265575796365,2.223654247097671,0.8781152521774173
1772094497722645000,6.01564501953125,5.451961921834945,2.288664771668613,0.5149151233665645
1772094497732595000,6.025594970703125,4.6771892629712815,2.3487813867181537,0.1865816887428984
1772094497742545200,6.035545166015625,3.9627854403525586,2.4233326237030326,-0.10298676561340689
1772094497752494000,6.045494140625,3.024213381385803,2.4016622052952648,-0.43823659202940757
1772094497762444000,6.055444091796875,1.7076584888875483,2.211824108572304,-0.7223210985492915
1772094497772393000,6.06539306640625,0.5373486351013184,1.862383478914201,-0.9376132238719612
1772094497782343200,6.07534326171875,-0.33254034826159473,1.3719810116440057,-1.20089824959971
1772094497792292000,6.0852919921875,-1.0711614972919226,0.7425295546457171,-1.3923187201432883
1772094497802242000,6.095241943359375,-1.6641256366312502,0.13428279823958872,-1.396649004432559
1772094497812192300,6.105192138671875,-2.2684207328021526,-0.34874972478449345,-1.366189276500046
1772094497822141200,6.11514111328125,-2.6974522010475397,-0.7733008327454328,-1.279457626247406
1772094497832091100,6.125091064453125,-3.185627347657084,-1.081231640407443,-1.1281007974795996
1772094497842040000,6.1350400390625,-3.839377087348699,-1.332289052724838,-0.9856070010598749
1772094497851990000,6.144989990234375,-4.636802307525277,-1.5497227201208472,-0.9564601092915982
1772094497861939200,6.154939208984375,-5.480208942154049,-1.6372817611083388,-1.1693774683069438
1772094497871889200,6.16488916015625,-6.392891942104697,-1.7153288773849606,-1.191088876312226
1772094497881839000,6.174839111328125,-7.255215458649396,-1.8616481503769755,-0.7662629699978977
1772094497891788000,6.1847880859375,-7.768861146602034,-1.832395314016193,-0.37036088728569444
1772094497901738200,6.19473828125,-8.016843389257788,-1.224835955352336,-0.39229792074039577
1772094497911687200,6.204687255859375,-7.983337425497174,-0.2804217462286353,-0.8027241303022951
1772094497921637000,6.21463720703125,-7.230661447629332,0.5740747299522161,-1.1471553343005478
1772094497931586000,6.2245859375,-6.01145516872704,1.154307251881808,-1.0863351010262965
1772094497941536300,6.234536376953125,-4.87109680109024,1.195659837489575,-0.6434486373644321
1772094497951486200,6.244486328125,-3.725034084331989,0.8346377833701669,-0.06267064691390842
1772094497961435100,6.25443505859375,-2.605168469625711,0.4541908978126943,0.24286018693428485
1772094497971385000,6.264385009765625,-1.647102605637908,0.18397380779944358,0.1950992686541751
1772094497981334000,6.274333984375,-0.7563695716887712,-0.08487024029493331,0.0878324511013925
1772094497991284200,6.2842841796875,0.03782908765673637,-0.45453006663918494,0.10113357549477368
1772094498001233200,6.294233154296875,0.5972825870603322,-0.822374733320251,0.2616279427031055
1772094498011183000,6.30418310546875,0.9499953702569007,-1.1008101280372589,0.4578079192660749
1772094498021133300,6.31413330078125,1.4710972194343805,-1.1478262192994355,0.5005899896876886
1772094498031082200,6.324082275390625,2.2649258764237166,-1.0050994178414345,0.4548284650638699
1772094498041032200,6.3340322265625,3.0803304054051637,-0.9015832215264439,0.42357006103433664
1772094498050981000,6.343981201171875,3.699378834071755,-0.9311505306638777,0.5230681442817673
1772094498060931000,6.35393115234375,4.158614301922917,-1.0225498804666102,0.684761621614173
1772094498070880300,6.36388037109375,4.532272257992625,-1.0804717619508504,0.8615872381594032
1772094498080830200,6.373830322265625,4.704262563335895,-1.151031152820587,1.0567733448468148
1772094498090780000,6.38377978515625,4.746723986968398,-1.2182351688478141,1.1184556017778813
1772094498100729000,6.39372900390625,4.779223988556861,-1.2456491724088787,1.095467744095996
1772094498110679000,6.403678955078125,4.718922372329235,-1.2075815998211503,1.016782476046309
1772094498120628200,6.413628173828125,4.532528278580307,-1.1370222089514135,0.9406702002897858
1772094498130578000,6.423577880859375,4.114239153623581,-1.112240088263899,0.850884715424478
1772094498140527000,6.433527099609375,3.4926737736999987,-1.1088089447714389,0.6381484851296991
1772094498150477000,6.44347705078125,2.7083412593305107,-1.0287919897265732,0.25775075420988725
1772094498160427000,6.453427001953125,1.8310101432681083,-0.8414698213472962,0.053845261428784576
1772094498170376700,6.463376708984375,0.8631558757156134,-0.6345479764197022,0.0027819223361089823
1772094498180326700,6.47332666015625,-0.017584756529331207,-0.42486974545605477,-0.10785559549247846
1772094498190275600,6.483275634765625,-0.8487234457373618,-0.26387619655393063,-0.12546128521198405
1772094498200225500,6.4932255859375,-1.7176181573659182,-0.24481143059991298,-0.02669021019800566
1772094498210174700,6.5031748046875,-2.7069804923713208,-0.3329017289198935,0.11721669528950004
1772094498220124700,6.513124755859375,-3.5897564298361537,-0.33403887972366064,0.154453004684858
1772094498230074600,6.52307470703125,-4.38938471301496,-0.06904781726300716,0.08162099270801991
1772094498240023600,6.5330234375,-4.815561960873008,0.15444233716037123,-0.04184343786463141
1772094498249973800,6.542973876953125,-5.086989961045981,0.6050828855477273,-0.2852528927121311
1772094498259922700,6.552922607421875,-5.098751710510253,1.0353003487072885,-0.4754780159913003
1772094498269872600,6.56287255859375,-4.69873357078135,1.0522644891202448,-0.5440352001931518
1772094498279821600,6.572821533203125,-4.232959056550264,0.818966897638142,-0.5482523794967681
1772094498289771800,6.582771728515625,-3.8735190109252926,0.48938050381131465,-0.46677594635859126
1772094498299721700,6.5927216796875,-3.492828087478876,0.15478336915038526,-0.3082997871048748
1772094498309670700,6.602670654296875,-2.917379731085896,-0.12642094229068607,-0.02234144953712821
1772094498319620600,6.61262060546875,-2.195160850802064,-0.22768775224369017,0.2249957001481205
1772094498329569800,6.62256982421875,-1.422708743840456,-0.22398433114849028,0.3497603631317615
1772094498339519700,6.632519775390625,-0.6259358500927686,-0.250477530070208,0.38333734630197286
1772094498349468700,6.64246875,0.15196224731504918,-0.2858355149056762,0.4124959285080433
1772094498359418600,6.652418701171875,0.7950356946915388,-0.34185463150851425,0.49708121438175434
1772094498369368800,6.662368896484375,1.3237877663612365,-0.4086827268954366,0.5972361175701022
1772094498379317800,6.67231787109375,1.8155992236465215,-0.4932042268179357,0.667350541151315
1772094498389267700,6.682267822265625,2.253175232875347,-0.5540860906189308,0.7170411123197525
1772094498399216600,6.692216552734375,2.450435588553548,-0.5793741880672052,0.7762948269296437
1772094498409166800,6.702166748046875,2.4693916334360835,-0.5868764534560963,0.8687523074831813
1772094498419115800,6.71211572265625,2.539949270740151,-0.5665064866550267,0.8946521070890128
1772094498429065700,6.722065673828125,2.716802798205614,-0.5381491378292441,0.8743647405374795
1772094498439014700,6.7320146484375,2.799648254674673,-0.5287336957627907,0.8356108661860228
1772094498448964600,6.741964599609375,2.910591093859076,-0.5415712942976504,0.8043021202087401
1772094498458914800,6.751914794921875,3.037313685977459,-0.5926151432385668,0.8002671656042337
1772094498468863700,6.76186376953125,3.0861271089851856,-0.6091961660854518,0.7849005235157906
1772094498478813700,6.771813720703125,3.156550890776515,-0.6112793655676767,0.7529206002786755
1772094498488762600,6.7817626953125,3.179085378667712,-0.6693160690706222,0.6157173845477402
1772094498498712800,6.791712890625,3.1824621616244313,-0.7140799974918365,0.379167111412622
1772094498508662800,6.801662841796875,3.115427437749505,-0.6617451954249293,0.25355584153700617
1772094498518611700,6.81161181640625,3.0261481488406656,-0.6009824644915759,0.11364026157483458
1772094498528561700,6.821561767578125,2.915717935353517,-0.5838832264568656,0.013014900463679804
1772094498538510800,6.8315107421875,2.739412104898691,-0.5504403910603374,0.08972947122859767
1772094498548460800,6.841460693359375,2.569126265385747,-0.45967371313795446,0.21476654881229623
1772094498558409700,6.85140966796875,2.505118780377507,-0.27847843014113605,0.2292927032222971
1772094498568359700,6.861359619140625,2.4579724137991668,-0.005924567743390798,0.19778746655853463
1772094498578308900,6.871308837890625,2.4290046779900787,0.19638539947457612,0.17317969779092818
1772094498588258800,6.8812587890625,2.476515201705694,0.31410840031839904,0.16138943461822344
1772094498598208800,6.891208740234375,2.5049597904235124,0.29995770989097653,0.16172211890500038
1772094498608157700,6.90115771484375,2.3923750292509793,0.20191621866002676,0.17089761473573745
1772094498618108000,6.91110791015625,2.0086352396279574,0.11932027997262776,0.20547935450170188
1772094498628056800,6.921056884765625,1.4093430663108826,0.13495200273804367,0.12433425394343212
1772094498638006800,6.9310068359375,0.7786445318609475,0.21359774249494073,0.09574251183988526
1772094498647955700,6.940955810546875,0.13796353257894514,0.27445122045166787,0.17716299527343363
1772094498657906000,6.950906005859375,-0.5836369235455989,0.25010208435393866,0.22554091294072567
1772094498667855600,6.960855712890625,-1.4600152689278125,0.20940540537163613,0.23173456168277187
1772094498677804800,6.9708046875,-2.464877370882034,0.18069873165152966,0.278657586100325
1772094498687754800,6.980754638671875,-3.7421483007401224,0.03994461850598454,0.31859281572345644
1772094498697703700,6.99070361328125,-5.734155646172166,-0.18574249797239897,0.3803585131542757
1772094498707654000,7.00065380859375,-8.381181728318333,-0.2353813389535993,0.5222760075233877
1772094498717602800,7.010602783203125,-11.06235733282566,-0.08240319259427488,0.5232766359332949
1772094498727552800,7.020552734375,-12.825595670115947,0.3413789037555456,0.3037629108602181
1772094498737501700,7.030501708984375,-13.440999020278452,0.844253752977401,-0.2249315123381093
1772094498747452000,7.040451904296875,-13.086477141833305,1.0651871721226722,-0.8407518092710524
1772094498757401600,7.050401611328125,-12.057856563150882,0.9442241664443165,-1.2089207394704222
1772094498767350800,7.060350830078125,-10.705560495185852,0.47548488412350415,-1.2233399446409194
1772094498777300500,7.070300537109375,-8.97532192569971,-0.08234218312203884,-0.9594424130380154
1772094498787250000,7.08025,-6.97105657171905,-0.5793018169507383,-0.6980499961238354
1772094498797199600,7.09019970703125,-5.127732305800914,-1.029842083301395,-0.4134731029771268
1772094498807148800,7.100148681640625,-3.6004806529462337,-1.4318369299307465,-0.027653780833422206
1772094498817098500,7.110098388671875,-2.658689631932974,-1.6205851855903863,0.35331484074294567
1772094498827048700,7.120048583984375,-1.9470874227315187,-1.2958769922591744,0.42615010412279514
1772094498836997600,7.12999755859375,-1.2858598945051432,-0.6582248392790555,0.34983003083448855
1772094498846947600,7.139947509765625,-0.7886988928854465,-0.18019903850108385,0.1408485499633476
1772094498856896500,7.149896484375,-0.1355780987471342,0.2056469296209514,-0.08260594862475991
1772094498866846700,7.1598466796875,0.6848217543035745,0.5551302293770015,-0.1678797282192856
1772094498876795600,7.169795654296875,1.5210627350866794,0.6827993085652589,-0.31069252746030684
1772094498886745600,7.17974560546875,2.5320821906268596,0.561994269927591,-0.4752702915247529
1772094498896695600,7.189695556640625,3.781577224808931,0.42370216298140584,-0.5393748802319168
1772094498906644700,7.199644775390625,4.8078439338415855,0.2851134842414409,-0.505310405805707
1772094498916594700,7.2095947265625,5.57401827570796,0.06491911996044218,-0.46582302954792976
1772094498926543600,7.219543701171875,6.115286714601516,-0.19172025720775127,-0.32749227109178897
1772094498936493600,7.22949365234375,6.316357568478584,-0.426465782475844,0.023437592477072028
1772094498946442500,7.2394423828125,6.282186418807506,-0.6248411136586218,0.3957870049651712
1772094498956392700,7.249392822265625,6.327505569958687,-0.7502510888084769,0.5143619464632123
1772094498966341600,7.259341552734375,6.473000667086243,-0.6063131579950451,0.48431518324576317
1772094498976291600,7.26929150390625,6.762233788540959,0.21228293356932698,0.5000021798623725
1772094498986241800,7.27924169921875,7.175979424849152,0.7182572831764816,0.5262797998046502
1772094498996190700,7.289190673828125,7.688376574045419,0.727836281774193,0.489401071675308
1772094499006140700,7.299140625,8.124394832438231,0.6623879503078758,0.6183321701560169
1772094499016089600,7.309089599609375,8.101019217547774,0.7261071198940277,0.9168711723554879
1772094499026039600,7.31903955078125,7.536997095054388,0.7274580230463296,1.2033745765853672
1772094499035988700,7.32898876953125,7.097863919511437,0.4559685750097036,1.299745211994648
1772094499045938700,7.338938720703125,6.780467364367842,0.20206066863201558,1.028725354231149
1772094499055888600,7.348888671875,6.048735390329361,0.31490145039223133,0.4925193132936954
1772094499065837600,7.358837646484375,4.880150460639595,0.43359278481155633,-0.16914373853942377
1772094499075787800,7.368787841796875,3.7703807080119844,0.37124315001294017,-0.7900182318557053
1772094499085736700,7.37873681640625,2.9752018054574725,0.35617300665304064,-1.2435780652232467
1772094499095686700,7.388686767578125,2.061232857349515,0.41699134023115036,-1.3621074140138922
1772094499105635600,7.398635498046875,0.6184726746052503,0.5219649688128382,-1.0804357407893985
1772094499115585800,7.408585693359375,-1.0028408252596854,0.7386547590389847,-0.595258168560639
1772094499125534700,7.41853466796875,-2.2755670974254607,1.1313342995081097,-0.23192922573834657
1772094499135484700,7.428484619140625,-3.0192157192289826,1.5103867350324987,-0.008048099236004054
1772094499145434600,7.4384345703125,-3.4896874513655898,1.545744756400585,0.2681711172688752
1772094499155383800,7.4483837890625,-3.6061499307543037,1.160197259768471,0.47409204152561724
1772094499165333200,7.458333251953125,-3.6035488083451983,0.6513972582813352,0.6412095532007515
1772094499175282200,7.4682822265625,-3.6904765656918284,0.197201538163051,0.7509760420821606
1772094499185232100,7.478232177734375,-3.818929927125573,-0.2196421372257173,0.73725088359043
1772094499195181000,7.48818115234375,-3.9726393103688955,-0.5279853250809013,0.547059479917772
1772094499205131300,7.49813134765625,-4.156705837953091,-0.6341248556368052,0.17624635535255073
1772094499215080200,7.508080078125,-4.33138377494514,-0.5413454496525227,-0.15554412438981235
1772094499225030100,7.518030029296875,-4.581299616011977,-0.4144363950513303,-0.2261114428376779
1772094499234980000,7.52797998046875,-4.906971247547864,-0.309131269492954,-0.03466353629790246
1772094499244929300,7.53792919921875,-5.320969397312402,-0.1949277480121702,0.341168329744786
1772094499254879200,7.547879150390625,-5.6062558269679545,0.14211458784379064,0.5873963856769725
1772094499264828200,7.557828125,-5.665457957521081,0.7462318432297557,0.5169500632602722
1772094499274778000,7.567778076171875,-5.277131424629688,1.277903674803674,0.31092717646639795
1772094499284727000,7.57772705078125,-4.458963860675692,1.3934610220462083,0.24870593555411322
1772094499294677200,7.58767724609375,-3.3068227007865905,1.1678074425112455,0.28056659805942324
1772094499304627200,7.597627197265625,-1.9572206942111252,0.8702974180333316,0.2765416716585867
1772094499314576100,7.607576171875,-0.6861895355254412,0.5196495680099353,0.20467419386496766
1772094499324526300,7.6175263671875,0.40669279518723483,0.14806523987650871,0.04403692932091653
1772094499334475300,7.627475341796875,1.141187804198265,-0.14611026988383383,-0.06848495921585708
1772094499344425200,7.63742529296875,1.7073972076028585,-0.2894414669757709,-0.023085801631025967
1772094499354374100,7.6473740234375,2.2126269493877886,-0.30943127535283566,0.0463347579345107
1772094499364324000,7.657323974609375,2.698549933156371,-0.29178764650942757,0.07808036095909773
1772094499374273300,7.667273193359375,3.2105858478248117,-0.31935316910408434,0.08823865728210657
1772094499384223200,7.67722314453125,3.655473056849837,-0.33407599686365574,0.024052491238713263
1772094499394173200,7.687173095703125,3.9095810889095066,-0.37323191267736255,-0.02041022574622184
1772094499404122000,7.6971220703125,3.951039472979307,-0.4963252814479172,-0.08691738208308815
1772094499414072300,7.707072265625,3.7498639896839854,-0.5776052421659231,-0.12350826971437781
1772094499424021200,7.717021240234375,3.3425691369503734,-0.5997338526699691,-0.14858940988108515
1772094499433971200,7.72697119140625,3.0524282530009743,-0.5437802390513942,-0.19785057665631173
1772094499443920100,7.736920166015625,2.9103508553624153,-0.40246458303295074,-0.24167744342312214
1772094499453870300,7.746870361328125,2.761277899748087,-0.28713983896989376,-0.2764178078169003
1772094499463819300,7.7568193359375,2.6518811209619044,-0.2897677032554522,-0.275550231202133
1772094499473769200,7.766769287109375,2.5913228996247053,-0.4320143565136939,-0.23193850502334534
1772094499483719200,7.77671923828125,2.4549305618852375,-0.6412427248179913,-0.17995277212243527
1772094499493668400,7.78666845703125,2.069658740389347,-0.7491361133038997,-0.14574066938646138
1772094499503618300,7.796618408203125,1.5278057796061038,-0.7228411038354039,-0.1685677104834467
1772094499513567200,7.806567138671875,0.7190811667799949,-0.6112884621895849,-0.23187990670390426
1772094499523517200,7.81651708984375,-0.13380992003083228,-0.46362997648306187,-0.32969299600645896
1772094499533466000,7.826466064453125,-0.7550321856051683,-0.30003420919328927,-0.38611521351747213
1772094499543416300,7.836416259765625,-1.20065355412364,-0.11032141935043037,-0.4587092520199716
1772094499553366300,7.8463662109375,-1.6192162353247403,0.11168240550532936,-0.5536434614179656
1772094499563315200,7.856315185546875,-2.035247936743498,0.28225962918028236,-0.5741386620339006
1772094499573265400,7.866265380859375,-2.4490835894227025,0.3405912605091929,-0.5474228698700666
1772094499583214300,7.87621435546875,-2.804627796652913,0.3258578748229891,-0.5108594913002104
1772094499593164300,7.886164306640625,-3.066258040910959,0.3307151055958122,-0.383690908979997
1772094499603113200,7.89611328125,-3.096007282486558,0.4313709440436214,-0.2620992134766653
1772094499613063200,7.906063232421875,-2.883677952492237,0.5593094147577882,-0.1825466976057738
1772094499623012400,7.916012451171875,-2.393085807868838,0.6396181192908436,-0.12566975859720259
1772094499632962300,7.92596240234375,-1.6697154194623232,0.6589893939107656,-0.09244564398527144
1772094499642912300,7.935912353515625,-0.8775035500198602,0.5919454638160765,-0.11875011540185659
1772094499652861200,7.945861083984375,-0.2041922007679939,0.40093350100815295,-0.18987466587368398
1772094499662811400,7.955811279296875,0.22938275612592696,0.1733046028122306,-0.30101310069542375
1772094499672760300,7.96576025390625,0.4842418988138437,0.08027677502483128,-0.33427608601301906
1772094499682710300,7.975710205078125,0.6530962442189454,0.0686916973017156,-0.18069354401975868
1772094499692659200,7.9856591796875,0.7283920159608125,0.04282510584574192,0.017994104515202343
1772094499702609400,7.995609375,1.0362462512552737,0.07706380432769656,0.09082008861005306
1772094499712558300,8.005558349609375,1.457673674237728,0.17013368115853517,0.06237166396733373
1772094499722508300,8.01550830078125,1.7488135060966015,0.18282715851496903,0.01992693574130535
1772094499732458200,8.025458251953125,1.9742484013795851,0.032131424004398286,-0.02227671373784542
1772094499742407400,8.035407470703126,2.1109248167574406,-0.11832765220608561,-0.04867943963082507
1772094499752357000,8.045357177734376,2.095461290165782,-0.22598014460820703,-0.06971594404922798
1772094499762306300,8.055306396484376,2.1623060444265603,-0.2675969706427306,-0.07694942070040851
1772094499772256300,8.06525634765625,2.0987129854381084,-0.2672950650867075,-0.08295887198196723
1772094499782205200,8.075205078125,2.1006950991660354,-0.21233407923467457,-0.18359467228874563
1772094499792155400,8.0851552734375,2.1794676071077586,-0.15463479099255054,-0.29772434308202933
1772094499802104300,8.095104248046875,2.24751881454885,-0.17329309503752738,-0.41208395017366856
1772094499812054300,8.10505419921875,2.2928823893636463,-0.2308093913955614,-0.5102264540936797
1772094499822004200,8.115004150390625,2.3497779965400696,-0.2530591075286269,-0.5702081907171755
1772094499831953400,8.124953369140625,2.3676006534785032,-0.24811730374488977,-0.5591476483248173
1772094499841903000,8.134903076171875,2.3267039949446917,-0.19311174809876827,-0.5273285051399842
1772094499851852300,8.144852294921876,2.231912664616108,-0.09398892790451645,-0.5152293038822711
1772094499861802000,8.154802001953126,2.0801970855385066,-0.001279299220815301,-0.49741384386960413
1772094499871751400,8.16475146484375,2.0314444528073072,0.0556401637552306,-0.5180652944931761
1772094499881701000,8.174701171875,2.0265894139915703,0.14962372136488555,-0.5921765326255932
1772094499891650300,8.184650390625,2.0344588321924206,0.24586967094857246,-0.6286464242257177
1772094499901600000,8.19460009765625,1.9602549473404882,0.22048494472540914,-0.6124988608926534
1772094499911550200,8.20455029296875,1.818136633169651,0.10939856888446957,-0.6191285081654787
1772094499921499100,8.2144990234375,1.5100497581630945,0.09684504798799752,-0.6660420158360153
1772094499931449000,8.224448974609375,0.7764572509497404,0.21726945327762512,-0.619622136901319
1772094499941398000,8.23439794921875,-0.17248481086194514,0.4220364582588896,-0.5041146201498806
1772094499951348200,8.24434814453125,-1.1976070260345935,0.6467669681321829,-0.3679833810320124
1772094499961297200,8.254297119140626,-2.0841157202869653,0.848026549514383,-0.4090681825490668
1772094499971247000,8.2642470703125,-2.7563497956961394,0.9295155498731881,-0.46535347580742087
1772094499981196300,8.2741962890625,-3.534861056566238,0.8984468231968581,-0.4993875916279852
1772094499991146200,8.284146240234374,-4.469063229885697,0.8666300546322018,-0.5287970798552036
1772094500001096200,8.29409619140625,-5.4254257970869535,0.762798727953434,-0.5181596582457423
1772094500011045000,8.304045166015625,-6.0788563878268,0.6335555313162505,-0.4545698871929198
1772094500020995000,8.3139951171875,-6.4843742940157645,0.573386053568311,-0.4724097875270992
1772094500030944000,8.323944091796875,-6.581324263682961,0.4714311152206734,-0.49957135069705544
1772094500040894200,8.333894287109375,-6.364592899337411,0.19819058573301881,-0.39323213285058733
1772094500050843100,8.343843017578125,-5.952367604464293,-0.13327584968674927,-0.39824360433705147
1772094500060793000,8.35379296875,-5.411879502293467,-0.4365604755107313,-0.47039676720425483
1772094500070742000,8.363741943359376,-4.92477169265449,-0.6421985642381012,-0.37222770407088096
1772094500080692200,8.373692138671874,-4.624468311131,-0.7661792372372,-0.15387582585141063
1772094500090641200,8.38364111328125,-4.50799998652339,-0.8777524102143943,0.022493206032738088
1772094500100591000,8.393591064453124,-4.319401660728454,-0.8286559324815869,0.3162189627315849
1772094500110541000,8.403541015625,-4.01990784202218,-0.6578123129554092,0.5535784698903561
1772094500120490200,8.413490234375,-3.573362928918004,-0.540701598791033,0.6378783629514276
1772094500130440200,8.423440185546875,-3.0185096167862415,-0.5222806106332689,0.6757485863361508
1772094500140389000,8.43338916015625,-2.493857966172695,-0.49349035028293725,0.7260213413067161
1772094500150339000,8.443339111328125,-2.0294132392406463,-0.44739838812835514,0.7690870144426822
1772094500160288000,8.4532880859375,-1.6414052707791327,-0.450279058131203,0.7973699097927659
1772094500170241800,8.46324169921875,-1.2764561063438653,-0.46933359495215116,0.7693736493643373
1772094500180190700,8.473190673828125,-0.7325245857208966,-0.4898505324758589,0.5757572762116789
1772094500190140700,8.483140625,-0.08486147246658801,-0.4992700661955401,0.4111142648912966
1772094500200091000,8.4930908203125,0.6364052216589451,-0.4785663739280775,0.3378713705586269
1772094500210039800,8.503039794921875,1.4146341584563253,-0.5239911774108186,0.24759587368667124
1772094500219989800,8.51298974609375,2.299942829269171,-0.5747843760589137,0.06952500632070005
1772094500229938700,8.522938720703126,3.177732795014977,-0.572344252897799,-0.17681089390013366
1772094500239889000,8.532888916015626,3.981571389365196,-0.661010743670538,-0.49357327932603656
1772094500249837800,8.542837890625,4.688808973616362,-0.7733258210562169,-0.7059363654594868
1772094500259787800,8.552787841796874,5.23911762805581,-0.8130879226021468,-0.7668302484918386
1772094500269736700,8.56273681640625,5.5820595433443785,-0.7989131206467748,-0.564740463363193
1772094500279687000,8.57268701171875,5.651156460446119,-0.6901161343846469,-0.14253453028891236
1772094500289636900,8.582636962890625,5.442285746473074,-0.5659344954533502,0.30558855538479984
1772094500299585800,8.592585693359375,4.713357723939419,-0.5225396999608725,0.585489346479252
1772094500309535700,8.60253564453125,4.206972382378578,-0.33211247823834417,0.6250786487415433
1772094500319485000,8.61248486328125,4.405300659549236,-0.11152533351378514,0.1142193857701961
1772094500329435000,8.622434814453126,4.813834698688984,0.19302702895738183,-0.35407358668837696
1772094500339383800,8.6323837890625,5.019578220552206,0.2014228456525132,-0.7021290821310132
1772094500349333800,8.642333740234376,5.1339334985286,-0.10096448427187278,-0.8962588116332888
1772094500359282700,8.65228271484375,5.1089019331246615,-0.4400140865633264,-0.9925164881873876
1772094500369233000,8.66223291015625,4.981678405746817,-0.6653232000421733,-1.0099517532434314
1772094500379181800,8.672181884765624,4.736149401462078,-0.690312314543873,-0.9946301924057305
1772094500389131800,8.6821318359375,4.420678845945001,-0.10409803305724635,-1.0211520694326608
