time,seconds_elapsed,z,y,x
1772094491782765000,0.07576513671875,-0.28491538763046265,0.14834201335906982,-0.41943615674972534
1772094491792715300,0.08571533203125,-0.29477977752685547,0.09333803504705429,-0.4391447901725769
1772094491802664200,0.095664306640625,-0.29750072956085205,0.033910393714904785,-0.440781831741333
1772094491812614100,0.1056142578125,-0.3109964430332184,-0.01777622103691101,-0.42469295859336853
1772094491822563000,0.11556298828125,-0.33745548129081726,-0.009274611249566078,-0.3738417625427246
1772094491832513300,0.12551318359375,-0.35255011916160583,0.05227022245526314,-0.3018552362918854
1772094491842462200,0.135462158203125,-0.34683072566986084,0.12893037497997284,-0.24379432201385498
1772094491852412200,0.145412109375,-0.34429213404655457,0.18664716184139252,-0.20443113148212433
1772094491862361000,0.155361083984375,-0.32030025124549866,0.21586762368679047,-0.20587296783924103
1772094491872311300,0.165311279296875,-0.18898004293441772,0.2300402820110321,-0.23242385685443878
1772094491882260200,0.17526025390625,-0.039683230221271515,0.2498890906572342,-0.27439847588539124
1772094491892210200,0.185210205078125,-0.023542335256934166,0.19878581166267395,-0.26718395948410034
1772094491902159000,0.1951591796875,-0.0815315991640091,-0.008066173642873764,-0.1763765513896942
1772094491912109000,0.205109130859375,-0.20547166466712952,-0.3052694499492645,-0.03530387207865715
1772094491922058200,0.215058349609375,-0.3666187524795532,-0.6426213979721069,0.10971484333276749
1772094491932008200,0.22500830078125,-0.4882880747318268,-0.852053165435791,0.24437682330608368
1772094491941958100,0.234958251953125,-0.5387709736824036,-0.7683724164962769,0.36035028100013733
1772094491951907000,0.244906982421875,-0.5114633440971375,-0.4071889817714691,0.5206705927848816
1772094491961857300,0.254857177734375,-0.42313405871391296,0.0912139043211937,0.7136504054069519
1772094491971806200,0.26480615234375,-0.3298206329345703,0.5614703893661499,0.9219546914100647
1772094491981756200,0.274756103515625,-0.2826986610889435,0.847346305847168,1.1363993883132935
1772094491991705000,0.284705078125,-0.22503194212913513,0.9328336119651794,1.2744027376174927
1772094492001655300,0.2946552734375,-0.1390557736158371,0.9460234045982361,1.2673976421356201
1772094492011604200,0.304604248046875,-0.03541562706232071,0.8871010541915894,1.133011817932129
1772094492021554200,0.31455419921875,0.07523765414953232,0.7465258240699768,0.9244570136070251
1772094492031503000,0.324503173828125,0.14869411289691925,0.523194432258606,0.6983787417411804
1772094492041453300,0.334453369140625,0.17700645327568054,0.20220360159873962,0.49588558077812195
1772094492051402200,0.34440234375,0.1659688651561737,-0.1403464376926422,0.3320003151893616
1772094492061352200,0.354352294921875,0.12049645930528641,-0.48881521821022034,0.20764879882335663
1772094492071301000,0.364301025390625,0.05568511039018631,-0.8073973059654236,0.08730901032686234
1772094492081251000,0.3742509765625,-0.027259044349193573,-1.008272647857666,-0.049361489713191986
1772094492091200300,0.3842001953125,-0.11687449365854263,-1.0635449886322021,-0.24439767003059387
1772094492101150200,0.394150146484375,-0.1754794716835022,-1.0543922185897827,-0.48755839467048645
1772094492111100200,0.40410009765625,-0.216822549700737,-1.0377063751220703,-0.7536648511886597
1772094492121049000,0.414049072265625,-0.2695600390434265,-1.0836278200149536,-1.0398210287094116
1772094492130999300,0.423999267578125,-0.2839937210083008,-1.2302014827728271,-1.3133282661437988
1772094492140948200,0.4339482421875,-0.21566925942897797,-1.4093711376190186,-1.5149140357971191
1772094492150898200,0.443898193359375,-0.07751317322254181,-1.5240483283996582,-1.6105879545211792
1772094492160846600,0.4538466796875,0.08241710811853409,-1.5915112495422363,-1.6137683391571045
1772094492170796500,0.463796630859375,0.20035554468631744,-1.6230388879776,-1.5358742475509644
1772094492180745700,0.473745849609375,0.27093997597694397,-1.5633054971694946,-1.37995445728302
1772094492190695700,0.48369580078125,0.3046949505805969,-1.3870775699615479,-1.1488066911697388
1772094492200644600,0.49364453125,0.2972801625728607,-1.1380895376205444,-0.8370909094810486
1772094492210594600,0.503594482421875,0.24870480597019196,-0.7603627443313599,-0.4727364480495453
1772094492220543700,0.513543701171875,0.16347379982471466,-0.21849815547466278,-0.09602005779743195
1772094492230493700,0.52349365234375,0.09491997212171555,0.4714478552341461,0.23658041656017303
1772094492240443000,0.53344287109375,0.0686127319931984,1.1015704870224,0.4906856417655945
1772094492250392600,0.543392578125,0.07038779556751251,1.550889253616333,0.6471378207206726
1772094492260341800,0.553341796875,0.08217574656009674,1.7503266334533691,0.7089207768440247
1772094492270291700,0.563291748046875,0.12002204358577728,1.769067406654358,0.6838542222976685
1772094492280241700,0.57324169921875,0.21595390141010284,1.7877616882324219,0.541688859462738
1772094492290190600,0.583190673828125,0.3652765452861786,1.7398946285247803,0.48387610912323
1772094492300140500,0.593140625,0.5706214904785156,1.6629180908203125,0.4861435294151306
1772094492310089700,0.60308984375,0.6925075054168701,1.6063275337219238,0.4908130466938019
1772094492320039700,0.613039794921875,0.7539136409759521,1.5016030073165894,0.5263909697532654
1772094492329988600,0.622988525390625,0.7773568034172058,1.329967737197876,0.5952685475349426
1772094492339938600,0.6329384765625,0.7757309675216675,1.180700659751892,0.6796574592590332
1772094492349887500,0.642887451171875,0.7664162516593933,1.0815638303756714,0.7642553448677063
1772094492359837700,0.652837646484375,0.7467964887619019,0.9983949661254883,0.8312948346138
1772094492369786600,0.66278662109375,0.7155976891517639,0.8404386043548584,0.83579421043396
1772094492379736600,0.672736572265625,0.6765392422676086,0.656958818435669,0.7667621374130249
1772094492389685500,0.682685546875,0.5950482487678528,0.4962892532348633,0.6365671157836914
1772094492399635700,0.6926357421875,0.5030924677848816,0.3319394588470459,0.4597143232822418
1772094492409584600,0.702584716796875,0.44845861196517944,0.18690824508666992,0.2663082778453827
1772094492419534600,0.71253466796875,0.4390060305595398,0.08826608210802078,0.07413138449192047
1772094492429483800,0.72248388671875,0.44445931911468506,0.07586896419525146,-0.07781052589416504
1772094492439433700,0.732433837890625,0.4778127670288086,0.28377342224121094,-0.15338410437107086
1772094492449382700,0.742382568359375,0.5429238080978394,0.6987870931625366,-0.1323978304862976
1772094492459332600,0.75233251953125,0.619093656539917,1.1844844818115234,-0.02616194635629654
1772094492469282600,0.762282470703125,0.6651896238327026,1.5341342687606812,0.12789544463157654
1772094492479231500,0.7722314453125,0.584237813949585,1.4350286722183228,0.32823890447616577
1772094492489181700,0.782181640625,0.2658112943172455,0.4996900260448456,0.3834885060787201
1772094492499130600,0.792130615234375,-0.18819589912891388,-0.5873364806175232,0.2662836015224457
1772094492509080600,0.80208056640625,-0.6110106706619263,-1.4602903127670288,0.05158616229891777
1772094492519029500,0.812029541015625,-0.8973273038864136,-1.8817310333251953,-0.1484856754541397
1772094492528979700,0.821979736328125,-1.0491875410079956,-1.8305824995040894,-0.29632568359375
1772094492538928600,0.8319287109375,-1.1182066202163696,-1.4379271268844604,-0.45769646763801575
1772094492548878600,0.841878662109375,-1.098793625831604,-0.7726930379867554,-0.6638479232788086
1772094492558827500,0.85182763671875,-1.0258698463439941,0.00858517549932003,-0.8931434154510498
1772094492568777700,0.86177783203125,-0.9145433902740479,0.7584081292152405,-1.1209014654159546
1772094492578726700,0.8717265625,-0.7326063513755798,1.2329578399658203,-1.2826528549194336
1772094492588676600,0.881676513671875,-0.5393794178962708,1.3922618627548218,-1.3593618869781494
1772094492598625500,0.89162548828125,-0.404306560754776,1.2158596515655518,-1.3539799451828003
1772094492608575700,0.90157568359375,-0.3449211120605469,0.8404116630554199,-1.2573583126068115
1772094492618524700,0.911524658203125,-0.310319721698761,0.4000452160835266,-1.066853642463684
1772094492628474600,0.921474609375,-0.28171399235725403,0.001537874573841691,-0.8201389312744141
1772094492638423800,0.931423828125,-0.2565918564796448,-0.25147202610969543,-0.5635973811149597
1772094492648373500,0.94137353515625,-0.22364215552806854,-0.3611600399017334,-0.33987587690353394
1772094492658323700,0.95132373046875,-0.16342967748641968,-0.3506397604942322,-0.18797370791435242
1772094492668272600,0.961272705078125,-0.0782100111246109,-0.29505595564842224,-0.11602598428726196
1772094492678222600,0.97122265625,0.016269885003566742,-0.23178218305110931,-0.10859017074108124
1772094492688171500,0.981171630859375,0.10947617888450623,-0.1881464570760727,-0.11903855204582214
1772094492698121700,0.991121826171875,0.17546851933002472,-0.11490926891565323,-0.12799608707427979
1772094492708070700,1.001070556640625,0.21791599690914154,-0.0680273100733757,-0.12722669541835785
1772094492718020600,1.0110205078125,0.22171153128147125,-0.08658767491579056,-0.1294800043106079
1772094492727969500,1.020969482421875,0.18104402720928192,-0.15506954491138458,-0.15278463065624237
1772094492737919700,1.030919677734375,0.12983302772045135,-0.24942506849765778,-0.19167077541351318
1772094492747868700,1.04086865234375,0.10697945207357407,-0.3272966146469116,-0.21694527566432953
1772094492757818600,1.050818603515625,0.1001812070608139,-0.33341389894485474,-0.21933652460575104
1772094492767767600,1.060767578125,0.11718592047691345,-0.27335554361343384,-0.2260848581790924
1772094492777717500,1.070717529296875,0.18351967632770538,-0.20471255481243134,-0.2172791212797165
1772094492787666700,1.080666748046875,0.28905773162841797,-0.0883694738149643,-0.16423629224300385
1772094492797616600,1.09061669921875,0.38274452090263367,-0.009656546637415886,-0.08569993823766708
1772094492807565600,1.100565673828125,0.4339960217475891,-0.030469344928860664,0.008917586877942085
1772094492817515500,1.110515625,0.4243015944957733,-0.12260593473911285,0.09126465767621994
1772094492827464700,1.120464599609375,0.3431716561317444,-0.21760264039039612,0.1380966603755951
1772094492837414700,1.13041455078125,0.22192829847335815,-0.3072017729282379,0.16377432644367218
1772094492847364600,1.140364501953125,0.08321336656808853,-0.3991166055202484,0.20384903252124786
1772094492857313500,1.1503134765625,-0.06149588152766228,-0.5051873922348022,0.2745985686779022
1772094492867263700,1.160263671875,-0.17870847880840302,-0.6377604603767395,0.34274569153785706
1772094492877212700,1.170212646484375,-0.12504738569259644,-0.6809172630310059,0.2880728840827942
1772094492887162600,1.18016259765625,0.05518990755081177,-0.5998533368110657,0.2006322145462036
1772094492897111600,1.190111572265625,0.2403496503829956,-0.39359045028686523,0.08754533529281616
1772094492907061800,1.200061767578125,0.36103931069374084,-0.19127660989761353,-0.08898631483316422
1772094492917010700,1.2100107421875,0.4657912850379944,-0.1554882526397705,-0.31988662481307983
1772094492926960600,1.219960693359375,0.553144633769989,-0.24609676003456116,-0.5463840365409851
1772094492936909600,1.22990966796875,0.5372815132141113,-0.36593472957611084,-0.6966853737831116
1772094492946859500,1.239859619140625,0.42760494351387024,-0.4857529401779175,-0.7435872554779053
1772094492956808700,1.24980859375,0.2885109782218933,-0.6235930919647217,-0.6934024095535278
1772094492966758700,1.259758544921875,0.17766860127449036,-0.8122816681861877,-0.5736066699028015
1772094492976707600,1.26970751953125,0.09960362315177917,-0.9229927062988281,-0.4169914722442627
1772094492986657500,1.279657470703125,0.05261782556772232,-0.9464491009712219,-0.2748653292655945
1772094492996606700,1.289606689453125,0.030433164909482002,-0.969669759273529,-0.18915922939777374
1772094493006556700,1.299556640625,0.022181116044521332,-1.0284898281097412,-0.1947447806596756
1772094493016505600,1.309505615234375,0.012764179147779942,-1.1287063360214233,-0.3176853358745575
1772094493026455600,1.31945556640625,0.010838008485734463,-1.1674461364746094,-0.5316417217254639
1772094493036404700,1.32940478515625,0.007018769159913063,-1.0852679014205933,-0.8326020836830139
1772094493046354700,1.339354736328125,-0.012187972664833069,-1.1771445274353027,-1.0578269958496094
1772094493056304600,1.3493046875,-0.050004590302705765,-1.3122153282165527,-1.0699084997177124
1772094493066253600,1.359253662109375,-0.1881304830312729,-1.3523398637771606,-0.930709183216095
1772094493076203800,1.369203857421875,-0.4277838468551636,-1.3701657056808472,-0.79052734375
1772094493086152700,1.379152587890625,-0.6861915588378906,-1.2948592901229858,-0.7524154186248779
1772094493096102700,1.3891025390625,-0.8687248826026917,-1.1012022495269775,-0.819507360458374
1772094493106051600,1.399051513671875,-0.9724360704421997,-0.7975650429725647,-0.949590802192688
1772094493116001500,1.40900146484375,-1.0175637006759644,-0.3882041871547699,-1.0548624992370605
1772094493125950700,1.41895068359375,-1.0132355690002441,0.07338591665029526,-1.0934803485870361
1772094493135900700,1.428900634765625,-0.9600862860679626,0.46196669340133667,-1.0442017316818237
1772094493145849600,1.438849609375,-0.8541886210441589,0.7230002284049988,-0.9097211360931396
1772094493155799600,1.448799560546875,-0.7093368768692017,0.8580280542373657,-0.7248378396034241
1772094493165748500,1.45874853515625,-0.5550346374511719,0.9016550183296204,-0.5492328405380249
1772094493175698400,1.468698486328125,-0.4042004346847534,0.854448139667511,-0.4165853261947632
1772094493185647600,1.478647705078125,-0.2646070420742035,0.6992778778076172,-0.31147485971450806
1772094493195597600,1.48859765625,-0.147332102060318,0.48331359028816223,-0.18308624625205994
1772094493205546500,1.49854638671875,-0.08139905333518982,0.2995913326740265,0.0025106503162533045
1772094493215496400,1.508496337890625,-0.06131136417388916,0.19004672765731812,0.2207316756248474
1772094493225445600,1.518445556640625,-0.05894760414958,0.13839104771614075,0.44408464431762695
1772094493235395600,1.5283955078125,-0.04806752875447273,0.14597785472869873,0.6308377385139465
1772094493245345500,1.538345458984375,-0.009221312589943409,0.22043849527835846,0.7337895631790161
1772094493255294500,1.54829443359375,0.0316491574048996,0.3016524016857147,0.7434725761413574
1772094493265244700,1.55824462890625,0.08902772516012192,0.34692269563674927,0.6888224482536316
1772094493275193600,1.568193603515625,0.1671433001756668,0.3884429931640625,0.6465117335319519
1772094493285143600,1.5781435546875,0.2590906023979187,0.43349549174308777,0.6589912176132202
1772094493295092500,1.588092529296875,0.33600160479545593,0.45562076568603516,0.7269425988197327
1772094493305042700,1.598042724609375,0.39792805910110474,0.4133203625679016,0.816521167755127
1772094493314991600,1.60799169921875,0.4338224232196808,0.3176977038383484,0.897642970085144
1772094493324941600,1.617941650390625,0.45135605335235596,0.1657392382621765,0.9465656280517578
1772094493334890500,1.627890380859375,0.4362497925758362,-0.06816112995147705,0.9521239399909973
1772094493344840400,1.63784033203125,0.3846268355846405,-0.31472548842430115,0.9423866271972656
1772094493354789600,1.64778955078125,0.30408909916877747,-0.5511502623558044,0.9190801978111267
1772094493364739600,1.657739501953125,0.19526353478431702,-0.8242502212524414,0.8837271928787231
1772094493374688500,1.6676884765625,0.09397578984498978,-1.122615933418274,0.8424966931343079
1772094493384638500,1.677638427734375,0.03570610657334328,-1.2803071737289429,0.8230235576629639
1772094493394587400,1.68758740234375,0.03368476778268814,-1.1791646480560303,0.8004053235054016
1772094493404537600,1.69753759765625,0.1014631986618042,-0.8771300315856934,0.7328322529792786
1772094493414486500,1.707486572265625,0.24114014208316803,-0.5204331278800964,0.6311290860176086
1772094493424436500,1.7174365234375,0.39700937271118164,-0.17594140768051147,0.5506728887557983
1772094493434386700,1.72738671875,0.5107175707817078,0.1357714682817459,0.511238157749176
1772094493444335600,1.737335693359375,0.556203305721283,0.3778129518032074,0.5042704939842224
1772094493454285600,1.74728564453125,0.545728862285614,0.4975050091743469,0.511309027671814
1772094493464234500,1.757234375,0.5160888433456421,0.44554761052131653,0.4825712740421295
1772094493474184400,1.767184326171875,0.5056247711181641,0.22131848335266113,0.3942725658416748
1772094493484133600,1.777133544921875,0.5063351392745972,-0.10385255515575409,0.24327608942985535
1772094493494083600,1.78708349609375,0.4677904546260834,-0.45543110370635986,0.058703310787677765
1772094493504032500,1.797032470703125,0.3984066843986511,-0.7533493638038635,-0.14859884977340698
1772094493513982500,1.806982421875,0.2945162355899811,-0.924569308757782,-0.416235089302063
1772094493523931600,1.816931640625,0.16636888682842255,-0.9196706414222717,-0.7456070780754089
1772094493533881600,1.826881591796875,0.02624453604221344,-0.7852821946144104,-1.148858904838562
1772094493543830500,1.83683056640625,-0.12969286739826202,-0.6041603088378906,-1.6255102157592773
1772094493553780500,1.846780517578125,-0.2904990613460541,-0.3761705756187439,-2.0739998817443848
1772094493563729400,1.8567294921875,-0.43280094861984253,-0.07353002578020096,-2.4176669120788574
1772094493573679600,1.8666796875,-0.5578168630599976,0.33341988921165466,-2.615293025970459
1772094493583628500,1.876628662109375,-0.6349610686302185,0.7309104800224304,-2.6415939331054688
1772094493593578500,1.88657861328125,-0.6566277742385864,1.0888417959213257,-2.5086913108825684
1772094493603528700,1.89652880859375,-0.6386072635650635,1.346004605293274,-2.2715606689453125
1772094493613477600,1.9064775390625,-0.5834081768989563,1.4291542768478394,-1.934850811958313
1772094493623427600,1.916427490234375,-0.409083753824234,1.4243441820144653,-1.5532655715942383
1772094493633376500,1.92637646484375,-0.24619147181510925,1.437598705291748,-1.1359533071517944
1772094493643326500,1.936326416015625,-0.18131351470947266,1.4411760568618774,-0.6767138242721558
1772094493653275600,1.946275634765625,-0.1809830218553543,1.3795359134674072,-0.2309264987707138
1772094493663225600,1.9562255859375,-0.2004014402627945,1.2513269186019897,0.1873895525932312
1772094493673174500,1.966174560546875,-0.21682702004909515,1.1037861108779907,0.5913980603218079
1772094493683124500,1.97612451171875,-0.23500490188598633,0.9656643271446228,0.949655294418335
1772094493693073400,1.986073486328125,-0.2742846608161926,0.8189963102340698,1.267545223236084
1772094493703023600,1.996023681640625,-0.3290502429008484,0.5588667988777161,1.5471724271774292
1772094493712972500,2.00597265625,-0.3886089026927948,0.1829424500465393,1.8189053535461426
1772094493722922500,2.015922607421875,-0.4575028121471405,-0.20867851376533508,2.0781123638153076
1772094493732871400,2.025871337890625,-0.5434302091598511,-0.5195008516311646,2.3135368824005127
1772094493742821600,2.035821533203125,-0.6612839102745056,-0.5384947657585144,2.3898653984069824
1772094493752770600,2.0457705078125,-0.7819043397903442,-0.48552611470222473,2.1536552906036377
1772094493762720500,2.055720458984375,-0.6689971685409546,-0.8349322080612183,1.995980978012085
1772094493772669400,2.06566943359375,-0.3879615366458893,-0.8103144764900208,1.7672955989837646
1772094493782619600,2.07561962890625,-0.14366012811660767,-0.639198362827301,1.4773317575454712
1772094493792568600,2.085568603515625,0.09002026915550232,-0.629178524017334,1.1736360788345337
1772094493802518500,2.0955185546875,0.2974857985973358,-0.6023099422454834,0.8503491878509521
1772094493812468500,2.105468505859375,0.45564189553260803,-0.5493388772010803,0.5019091963768005
1772094493822417700,2.115417724609375,0.548546552658081,-0.5599488615989685,0.13707531988620758
1772094493832367600,2.12536767578125,0.5772343873977661,-0.6534990668296814,-0.20746660232543945
1772094493842316500,2.135316650390625,0.5400656461715698,-0.7347611784934998,-0.4548092484474182
1772094493852266500,2.1452666015625,0.4633825719356537,-0.7582193613052368,-0.5491988658905029
1772094493862215400,2.15521533203125,0.3569349944591522,-0.7581140995025635,-0.5172291398048401
1772094493872165600,2.16516552734375,0.23460084199905396,-0.802300751209259,-0.4113525152206421
1772094493882114600,2.175114501953125,0.11280794441699982,-0.8291190266609192,-0.29088279604911804
1772094493892064500,2.185064453125,0.010278375819325447,-0.8386358022689819,-0.20803743600845337
1772094493902013400,2.195013427734375,-0.06315237283706665,-0.8212085962295532,-0.19914105534553528
1772094493911963600,2.204963623046875,-0.12781579792499542,-0.759590744972229,-0.26095595955848694
1772094493921912600,2.21491259765625,-0.16197313368320465,-0.6269240975379944,-0.3306525945663452
1772094493931862500,2.224862548828125,-0.2166811227798462,-0.38718104362487793,-0.3758142292499542
1772094493941811500,2.2348115234375,-0.2650381624698639,-0.15116065740585327,-0.38739997148513794
1772094493951761700,2.24476171875,-0.3026435971260071,0.05690785497426987,-0.372749388217926
1772094493961711600,2.254711669921875,-0.33246976137161255,0.2729755640029907,-0.349871426820755
1772094493971660500,2.26466064453125,-0.3512336015701294,0.5279377698898315,-0.3498072326183319
1772094493981610500,2.274610595703125,-0.34661537408828735,0.7922261953353882,-0.37114110589027405
1772094493991559700,2.2845595703125,-0.30529242753982544,1.035825490951538,-0.4044514000415802
1772094494001509600,2.294509521484375,-0.22858601808547974,1.2113291025161743,-0.42230668663978577
1772094494011458600,2.30445849609375,-0.14009423553943634,1.2911368608474731,-0.40724998712539673
1772094494021408500,2.314408447265625,-0.05928025394678116,1.2840888500213623,-0.34362465143203735
1772094494031357400,2.324357421875,-0.0071105267852544785,1.196817398071289,-0.24912209808826447
1772094494041307600,2.3343076171875,0.018814975395798683,1.0250276327133179,-0.1404835283756256
1772094494051256600,2.344256591796875,0.02336605079472065,0.7788984775543213,-0.029727455228567123
1772094494061206500,2.35420654296875,0.012322431430220604,0.4921727180480957,0.07184599339962006
1772094494071155500,2.364155517578125,0.05725475400686264,0.1995224803686142,0.16995792090892792
1772094494081105700,2.374105712890625,-0.05416964739561081,-0.07844961434602737,0.25917360186576843
1772094494091054600,2.3840546875,0.0746099054813385,-0.35055944323539734,0.35837048292160034
1772094494101004500,2.394004638671875,-0.04656996205449104,-0.5755856037139893,0.48210015892982483
1772094494110954500,2.40395458984375,0.101650670170784,-0.6630118489265442,0.6420432329177856
1772094494120903700,2.413903564453125,-0.004213044419884682,-0.6359703540802002,0.8027690649032593
1772094494130853600,2.423853515625,0.1919202357530594,-0.5283451080322266,0.9294007420539856
1772094494140802600,2.433802490234375,0.0986500233411789,-0.3879532814025879,0.9740099906921387
1772094494150752500,2.44375244140625,0.29744115471839905,-0.3212301731109619,0.9441913962364197
1772094494160701700,2.45370166015625,0.1849418729543686,-0.30424559116363525,0.8330151438713074
1772094494170652000,2.46365185546875,0.36619818210601807,-0.4065093696117401,0.6505262851715088
1772094494180600800,2.473600830078125,0.23970644176006317,-0.6218559741973877,0.43173736333847046
1772094494190550800,2.48355078125,0.45246049761772156,-0.8564828634262085,0.24657443165779114
1772094494200499700,2.493499755859375,0.3272678852081299,-0.9661765694618225,0.1454804390668869
1772094494210450000,2.503449951171875,0.4891712963581085,-0.975996196269989,0.12735310196876526
1772094494220398800,2.51339892578125,0.2584879994392395,-0.8577054738998413,0.1738090068101883
1772094494230348800,2.523348876953125,0.32861408591270447,-0.6398762464523315,0.24155929684638977
1772094494240298800,2.533298828125,0.05529029667377472,-0.32530108094215393,0.29878416657447815
1772094494250247700,2.54324755859375,0.12674397230148315,-0.0574752539396286,0.29932427406311035
1772094494260198000,2.553197998046875,-0.09218137711286545,0.19581818580627441,0.22213345766067505
1772094494270146800,2.563146728515625,0.06365642696619034,0.390786349773407,0.10191596299409866
1772094494280096800,2.5730966796875,-0.08135593682527542,0.574609637260437,-0.022874385118484497
1772094494290045700,2.583045654296875,0.099270299077034,0.6655131578445435,-0.10887797176837921
1772094494299996000,2.592995849609375,-0.04411643370985985,0.7620013356208801,-0.1266469955444336
1772094494309944800,2.60294482421875,0.12951260805130005,0.8037565350532532,-0.07600405067205429
1772094494319894800,2.612894775390625,-0.026921294629573822,0.8578206300735474,0.014777109026908875
1772094494329843700,2.62284375,0.12798014283180237,0.8813760280609131,0.12871593236923218
1772094494339794000,2.6327939453125,-0.02081627957522869,0.9348769783973694,0.2489195466041565
1772094494349742800,2.642742919921875,0.13425825536251068,0.9434300065040588,0.3483009934425354
1772094494359692800,2.65269287109375,-0.0041114031337201595,0.9515904188156128,0.43836167454719543
1772094494369642800,2.662642822265625,0.1397261917591095,0.8997882008552551,0.5061433911323547
1772094494379592000,2.672592041015625,0.0035397065803408623,0.8240680694580078,0.5509780049324036
1772094494389542000,2.6825419921875,0.11345795542001724,0.6660382747650146,0.5643555521965027
1772094494399490800,2.69249072265625,-0.03427313640713692,0.48676222562789917,0.5585261583328247
1772094494409440800,2.702440673828125,0.050215113908052444,0.2698543965816498,0.5347744822502136
1772094494419389700,2.7123896484375,-0.1040475144982338,0.055299848318099976,0.5080838799476624
1772094494429340000,2.72233984375,-0.03759631887078285,-0.15612930059432983,0.4916694760322571
1772094494439288800,2.732288818359375,-0.1727832406759262,-0.2694404721260071,0.4738192558288574
1772094494449238800,2.74223876953125,-0.12443515658378601,-0.3339366614818573,0.45071154832839966
1772094494459187700,2.752187744140625,-0.1628534346818924,-0.36228740215301514,0.41170504689216614
1772094494469138000,2.762137939453125,-0.1759796291589737,-0.35878267884254456,0.37068411707878113
1772094494479086800,2.7720869140625,-0.20638172328472137,-0.33768367767333984,0.31632131338119507
1772094494489036800,2.782036865234375,-0.24112080037593842,-0.3160460293292999,0.2488461434841156
1772094494498986800,2.79198681640625,-0.25342991948127747,-0.295126348733902,0.18385621905326843
1772094494508936000,2.80193603515625,-0.2335025668144226,-0.2813756465911865,0.11056869477033615
1772094494518886000,2.811885986328125,-0.1887904405593872,-0.2712112367153168,0.03612329810857773
1772094494528834800,2.821834716796875,-0.1283808797597885,-0.27469944953918457,-0.0342525988817215
1772094494538784800,2.83178466796875,-0.08595426380634308,-0.2985559403896332,-0.1110621988773346
1772094494548734000,2.84173388671875,-0.045384734869003296,-0.34417110681533813,-0.18702512979507446
1772094494558684000,2.851683837890625,-0.009112858213484287,-0.40212443470954895,-0.24498781561851501
1772094494568632800,2.8616328125,0.022940680384635925,-0.4617086946964264,-0.2620171308517456
1772094494578582800,2.871582763671875,0.06335600465536118,-0.49900251626968384,-0.19889076054096222
1772094494588531700,2.88153173828125,0.10946331173181534,-0.4922442138195038,-0.04540799558162689
1772094494598482000,2.89148193359375,0.1527240127325058,-0.42500078678131104,0.15893402695655823
1772094494608430800,2.901430908203125,0.17637315392494202,-0.3289158046245575,0.35618290305137634
1772094494618380800,2.911380859375,0.19408893585205078,-0.210724875330925,0.4925127923488617
1772094494628331000,2.9213310546875,0.20867827534675598,-0.10102821886539459,0.5336357355117798
1772094494638280000,2.931280029296875,0.2325095236301422,-0.016665613278746605,0.4890102446079254
1772094494648230000,2.94122998046875,0.25147655606269836,0.018373064696788788,0.3910488188266754
1772094494658178800,2.9511787109375,0.26522010564804077,0.0069609833881258965,0.28981760144233704
1772094494668128800,2.961128662109375,0.26972058415412903,-0.03926057368516922,0.21915221214294434
1772094494678078000,2.971077880859375,0.24742810428142548,-0.10563670098781586,0.1769213229417801
1772094494688028000,2.98102783203125,0.1832515001296997,-0.1944749653339386,0.11595837026834488
1772094494697976800,2.990976806640625,0.07908602058887482,-0.29835548996925354,-0.021952923387289047
1772094494707926800,3.0009267578125,-0.0415988489985466,-0.46584755182266235,-0.2518548369407654
1772094494717877000,3.010876953125,-0.14062906801700592,-0.7249611020088196,-0.515398383140564
1772094494727826000,3.020825927734375,-0.21218952536582947,-0.9171891212463379,-0.7063270807266235
1772094494737775900,3.03077587890625,-0.2624499797821045,-0.8667951226234436,-0.7451719641685486
1772094494747724800,3.040724853515625,-0.2855353057384491,-0.5443851351737976,-0.6249110698699951
1772094494757675000,3.050675048828125,-0.2961132526397705,-0.03849228471517563,-0.4033864140510559
1772094494767624000,3.0606240234375,-0.3033205568790436,0.4905736744403839,-0.1998167634010315
1772094494777574000,3.070573974609375,-0.31279894709587097,0.9009270668029785,-0.10487101227045059
1772094494787522800,3.080522705078125,-0.2983792722225189,1.1488840579986572,-0.1535717099905014
1772094494797472800,3.09047265625,-0.23153844475746155,1.2027969360351562,-0.3208850622177124
1772094494807422000,3.100421875,-0.13036708533763885,1.101427435874939,-0.5458856821060181
1772094494817372000,3.110371826171875,-0.035342756658792496,0.8936731219291687,-0.7298920154571533
1772094494827321900,3.12032177734375,0.025479847565293312,0.6621860861778259,-0.8136526942253113
1772094494837270800,3.130270751953125,0.032460108399391174,0.41830897331237793,-0.7711599469184875
1772094494847221000,3.140220947265625,-0.02070111222565174,0.18318618834018707,-0.6200791001319885
1772094494857170000,3.150169921875,-0.08815716207027435,0.02278696745634079,-0.39460843801498413
1772094494867119900,3.160119873046875,-0.1604239046573639,-0.0744279995560646,-0.16133472323417664
1772094494877068800,3.17006884765625,-0.2085690200328827,-0.12681852281093597,0.04172378033399582
1772094494887019000,3.18001904296875,-0.2209751009941101,-0.12819086015224457,0.19073589146137238
1772094494896968000,3.189968017578125,-0.1906726360321045,-0.07682894170284271,0.2788889706134796
1772094494906918000,3.19991796875,-0.13317818939685822,-0.0032218345440924168,0.3196342885494232
1772094494916866800,3.20986669921875,-0.055545780807733536,0.06522134691476822,0.34216317534446716
1772094494926817000,3.219817138671875,0.010672921314835548,0.0993039458990097,0.3559083044528961
1772094494936767000,3.22976708984375,0.05914902687072754,0.10537496954202652,0.36973848938941956
1772094494946716000,3.2397158203125,0.08204048871994019,0.09796738624572754,0.39194074273109436
1772094494956665900,3.249665771484375,0.08587317913770676,0.09653208404779434,0.42075684666633606
1772094494966614800,3.25961474609375,0.08844046294689178,0.09578853100538254,0.4480854272842407
1772094494976565000,3.26956494140625,0.08890578150749207,0.08039604127407074,0.4661610722541809
1772094494986514000,3.279513916015625,0.09412717819213867,0.02347523719072342,0.48142683506011963
1772094494996463900,3.2894638671875,0.10114534199237823,-0.06389674544334412,0.5029908418655396
1772094495006412800,3.299412841796875,0.10428920388221741,-0.11887424439191818,0.5296560525894165
1772094495016363000,3.309363037109375,0.1114378571510315,-0.11318472772836685,0.5463548898696899
1772094495026312000,3.31931201171875,0.10729158669710159,-0.040268976241350174,0.5310630202293396
1772094495036262000,3.329261962890625,0.08947765827178955,0.028004392981529236,0.4720591902732849
1772094495046211800,3.3392119140625,0.0610811710357666,0.05780036747455597,0.3807266056537628
1772094495056161000,3.3491611328125,0.026161842048168182,0.04545363783836365,0.2646225690841675
1772094495066111000,3.359111083984375,-0.0029342584311962128,-0.008616788312792778,0.14712654054164886
1772094495076060000,3.369059814453125,-0.02492379955947399,-0.07069363445043564,0.06491383165121078
1772094495086009900,3.379009765625,-0.03701108694076538,-0.05668274685740471,0.026028482243418694
1772094495095959000,3.388958984375,-0.06002124398946762,0.05090540647506714,0.0011568227782845497
1772094495105909000,3.398908935546875,-0.0963885709643364,0.185929536819458,-0.06102026253938675
1772094495115858000,3.40885791015625,-0.13748571276664734,0.17967380583286285,-0.17854656279087067
1772094495125807900,3.418807861328125,-0.1783500611782074,0.01539166085422039,-0.33108335733413696
1772094495135757800,3.4287578125,-0.23324857652187347,-0.26194143295288086,-0.4684810936450958
1772094495145707000,3.43870703125,-0.3022873103618622,-0.5921675562858582,-0.5356107950210571
1772094495155656700,3.44865673828125,-0.39871618151664734,-0.9346973896026611,-0.5136215090751648
1772094495165606100,3.458606201171875,-0.5080312490463257,-1.2018356323242188,-0.40292325615882874
1772094495175556000,3.46855615234375,-0.5991609692573547,-1.3392667770385742,-0.23065124452114105
1772094495185505000,3.478505126953125,-0.6775846481323242,-1.3721778392791748,-0.07512156665325165
1772094495195455200,3.488455322265625,-0.7411741018295288,-1.3448095321655273,0.017916159704327583
1772094495205404200,3.498404052734375,-0.7808232307434082,-1.2594248056411743,0.034766778349876404
1772094495215354000,3.50835400390625,-0.8192809820175171,-1.0252681970596313,-0.002629989292472601
1772094495225304000,3.518303955078125,-0.864857017993927,-0.6644460558891296,-0.0684119313955307
1772094495235253000,3.5282529296875,-0.9049974083900452,-0.22765463590621948,-0.14662285149097443
1772094495245203200,3.538203125,-0.9189193844795227,0.24855533242225647,-0.20714318752288818
1772094495255152000,3.548152099609375,-0.8930101990699768,0.7160439491271973,-0.2509545385837555
1772094495265102000,3.55810205078125,-0.8247507214546204,1.1173251867294312,-0.27804768085479736
1772094495275051000,3.568051025390625,-0.7172032594680786,1.409886121749878,-0.28986260294914246
1772094495285001200,3.578001220703125,-0.5847312211990356,1.5695868730545044,-0.28340017795562744
1772094495294951200,3.587951171875,-0.41857489943504333,1.5976800918579102,-0.26402363181114197
1772094495304900000,3.597900146484375,-0.25300565361976624,1.5061557292938232,-0.2314920723438263
1772094495314850000,3.60785009765625,-0.11085184663534164,1.2956202030181885,-0.18429146707057953
1772094495324799200,3.61779931640625,-0.013401992619037628,1.0064888000488281,-0.13039974868297577
1772094495334749200,3.627749267578125,0.03176218643784523,0.686722457408905,-0.07938811928033829
1772094495344698000,3.637697998046875,0.04709906503558159,0.3786139190196991,-0.035265401005744934
1772094495354648000,3.64764794921875,0.03944467008113861,0.11556371301412582,-0.002636114601045847
1772094495364597200,3.65759716796875,0.03576737642288208,-0.08527006208896637,0.02137441188097
1772094495374547200,3.667547119140625,0.03690539300441742,-0.21921245753765106,0.04081568866968155
1772094495384496000,3.67749609375,0.03812538832426071,-0.28923866152763367,0.04835589602589607
1772094495394446000,3.687446044921875,0.04514092952013016,-0.2924090325832367,0.03934185951948166
1772094495404396300,3.697396240234375,0.05543963983654976,-0.2655526399612427,0.008556785061955452
1772094495414345200,3.70734521484375,0.09269896894693375,-0.21533605456352234,-0.04109435901045799
1772094495424295200,3.717295166015625,0.1665353775024414,-0.150358647108078,-0.08880249410867691
1772094495434244000,3.727244140625,0.266284316778183,-0.05210649222135544,-0.11172129213809967
1772094495444194300,3.7371943359375,0.3731450140476227,0.03182435780763626,-0.10189928114414215
1772094495454143200,3.747143310546875,0.4636822044849396,0.04884235933423042,-0.05926680564880371
1772094495464093200,3.75709326171875,0.5264145731925964,0.018425334244966507,-0.005326606798917055
1772094495474043100,3.767043212890625,0.5586206316947937,-0.0825190395116806,0.03228228539228439
1772094495483992000,3.776991943359375,0.5421702861785889,-0.26366883516311646,0.02805718220770359
1772094495493942300,3.7869423828125,0.4786190390586853,-0.49221259355545044,-0.020807895809412003
1772094495503891200,3.79689111328125,0.3846677839756012,-0.7172537446022034,-0.09802252054214478
1772094495513841200,3.806841064453125,0.29085105657577515,-0.8790510296821594,-0.1730978637933731
1772094495523790000,3.8167900390625,0.22100327908992767,-0.9444657564163208,-0.22498875856399536
1772094495533740300,3.826740234375,0.17381717264652252,-0.9082641005516052,-0.24904967844486237
1772094495543689200,3.836689208984375,0.14908039569854736,-0.7865411043167114,-0.25811001658439636
1772094495553639200,3.84663916015625,0.15194545686244965,-0.5781916975975037,-0.24961499869823456
1772094495563589000,3.856589111328125,0.18977433443069458,-0.32244887948036194,-0.2168288379907608
1772094495573538300,3.866538330078125,0.2398982048034668,-0.06978026032447815,-0.17160345613956451
1772094495583488300,3.87648828125,0.2835348844528198,0.12077824026346207,-0.12955588102340698
1772094495593437200,3.886437255859375,0.29792436957359314,0.19990897178649902,-0.10168074816465378
1772094495603387100,3.89638720703125,0.287698358297348,0.1797400563955307,-0.09657972306013107
1772094495613336300,3.90633642578125,0.25802162289619446,0.10216426849365234,-0.11938194185495377
1772094495623286300,3.916286376953125,0.21660920977592468,0.02588174305856228,-0.15467095375061035
1772094495633236200,3.926236328125,0.18179170787334442,-0.016360130161046982,-0.191328763961792
1772094495643185200,3.93618505859375,0.1542045623064041,-0.014104699715971947,-0.21022656559944153
1772094495653135400,3.94613525390625,0.13770613074302673,0.017084138467907906,-0.2167215794324875
1772094495663084300,3.956084228515625,0.1346336454153061,0.06399545073509216,-0.20416396856307983
1772094495673034200,3.9660341796875,0.14556828141212463,0.12602302432060242,-0.17261406779289246
1772094495682983200,3.975983154296875,0.15778979659080505,0.2039785385131836,-0.13423818349838257
1772094495692933400,3.985933349609375,0.16023962199687958,0.2787400186061859,-0.10883485525846481
1772094495702882300,3.99588232421875,0.16238880157470703,0.3221093416213989,-0.10573440045118332
1772094495712832300,4.005832275390625,0.16486585140228271,0.2981579005718231,-0.10686778277158737
1772094495722782200,4.0157822265625,0.16341255605220795,0.2395094931125641,-0.09927190840244293
1772094495732731100,4.025731201171875,0.15147128701210022,0.16244550049304962,-0.0775425136089325
1772094495742681300,4.035681396484375,0.12982964515686035,0.08383804559707642,-0.06186768040060997
1772094495752630300,4.04563037109375,0.10242078453302383,-0.00665071327239275,-0.04472258314490318
1772094495762580200,4.055580322265625,0.09470214694738388,-0.06782113015651703,-0.02087237685918808
1772094495772529200,4.065529052734375,0.1025094985961914,-0.10508689284324646,0.015160225331783295
1772094495782479400,4.075479248046875,0.10123464465141296,-0.1213231235742569,0.053740907460451126
1772094495792428300,4.08542822265625,0.08734165132045746,-0.1275939643383026,0.07887168973684311
1772094495802378200,4.095378173828125,0.06357506662607193,-0.14652851223945618,0.08145229518413544
1772094495812328200,4.105328125,0.036809056997299194,-0.15861660242080688,0.06861935555934906
1772094495822277400,4.11527734375,0.009034683927893639,-0.15683361887931824,0.04651165008544922
1772094495832227300,4.125227294921875,-0.02911999076604843,-0.15087772905826569,0.015024403110146523
1772094495842176300,4.13517626953125,-0.0640484169125557,-0.16081932187080383,-0.01182372123003006
1772094495852126200,4.145126220703125,-0.08225110918283463,-0.17583820223808289,-0.027936246246099472
1772094495862075100,4.1550751953125,-0.07793758809566498,-0.17461393773555756,-0.01691528409719467
1772094495872025300,4.165025390625,-0.0579494871199131,-0.13258463144302368,0.017085056751966476
1772094495881975300,4.174975341796875,-0.03818856552243233,-0.031999967992305756,0.06974613666534424
1772094495891924200,4.18492431640625,-0.023227129131555557,0.11311308294534683,0.12917082011699677
1772094495901874200,4.194874267578125,-0.012674884870648384,0.2633824646472931,0.19284725189208984
1772094495911823400,4.2048232421875,-0.0018335306085646152,0.41593655943870544,0.27673840522766113
1772094495921773300,4.214773193359375,0.012735558673739433,0.5650852918624878,0.36845526099205017
1772094495931722200,4.22472216796875,0.022670947015285492,0.6745680570602417,0.45547887682914734
1772094495941672400,4.23467236328125,0.03148467838764191,0.6988060474395752,0.4908486008644104
1772094495951622100,4.2446220703125,0.04187086224555969,0.6246011853218079,0.4651430547237396
1772094495961571300,4.2545712890625,0.0656113475561142,0.484983891248703,0.4004111886024475
1772094495971521000,4.26452099609375,0.09327338635921478,0.3299090266227722,0.32206544280052185
1772094495981470200,4.27447021484375,0.11926557123661041,0.1833781898021698,0.27784258127212524
1772094495991420200,4.284420166015625,0.13088268041610718,0.08494576811790466,0.26085221767425537
1772094496001369300,4.294369384765625,0.1348332166671753,-0.04747486114501953,0.2646416127681732
1772094496011319000,4.304319091796875,0.13139857351779938,-0.24612382054328918,0.2740830183029175
1772094496021269200,4.314269287109375,0.12329485267400742,-0.5199742913246155,0.2871471345424652
1772094496031218200,4.32421826171875,0.07832146435976028,-0.848781168460846,0.3119376301765442
1772094496041168100,4.334168212890625,0.01288706436753273,-1.1858214139938354,0.3298913240432739
1772094496051117000,4.344116943359375,-0.03422671556472778,-1.5330601930618286,0.33557960391044617
1772094496061067000,4.35406689453125,-0.02457275800406933,-1.941904902458191,0.35511496663093567
1772094496071016200,4.36401611328125,-0.005965252406895161,-2.2927284240722656,0.41952911019325256
1772094496080966100,4.373966064453125,-0.007698170840740204,-2.378960371017456,0.5418789982795715
1772094496090915300,4.383915283203125,-0.02108645811676979,-2.103882312774658,0.7026535868644714
1772094496100865000,4.393864990234375,-0.041809581220149994,-1.5673924684524536,0.8364712595939636
1772094496110815200,4.403815185546875,-0.08675184845924377,-0.9473382830619812,0.866747260093689
1772094496120764200,4.41376416015625,-0.14260339736938477,-0.4194939136505127,0.7760370969772339
1772094496130714000,4.423714111328125,-0.1875617355108261,-0.03227128088474274,0.6020523309707642
1772094496140663000,4.4336630859375,-0.20719322562217712,0.18213050067424774,0.37218478322029114
1772094496150613200,4.44361328125,-0.23650802671909332,0.24080076813697815,0.13351422548294067
1772094496160562200,4.453562255859375,-0.2857639789581299,0.18658627569675446,-0.09074390679597855
1772094496170515200,4.46351513671875,-0.33556634187698364,0.11547855287790298,-0.282993346452713
1772094496180465200,4.473465087890625,-0.36631760001182556,0.05465221405029297,-0.4477170705795288
1772094496190414000,4.4834140625,-0.373546838760376,0.013245112262666225,-0.5928072929382324
1772094496200364000,4.493364013671875,-0.3686106503009796,0.005443382076919079,-0.7123251557350159
1772094496210313200,4.503313232421875,-0.3573240637779236,0.009218016639351845,-0.8068534731864929
1772094496220263200,4.51326318359375,-0.3389378786087036,0.025448918342590332,-0.8805748224258423
1772094496230212000,4.523212158203125,-0.31581348180770874,0.044809699058532715,-0.9250273108482361
1772094496240162000,4.533162109375,-0.28327393531799316,0.0650116354227066,-0.9435235261917114
1772094496250112300,4.5431123046875,-0.24763768911361694,0.10236145555973053,-0.9292969107627869
1772094496260061200,4.553061279296875,-0.2012675255537033,0.14761868119239807,-0.883783221244812
1772094496270011100,4.56301123046875,-0.1698371320962906,0.18870215117931366,-0.8043224811553955
1772094496279960000,4.5729599609375,-0.13839425146579742,0.24219654500484467,-0.6955629587173462
1772094496289910300,4.58291015625,-0.10688126087188721,0.3208029866218567,-0.5617175698280334
1772094496299859200,4.592859130859375,-0.08761675655841827,0.4247296452522278,-0.4269736409187317
1772094496309809200,4.60280908203125,-0.0877733826637268,0.5490235090255737,-0.3126460313796997
1772094496319759000,4.612759033203125,-0.11776456981897354,0.642102837562561,-0.22039544582366943
1772094496329708000,4.6227080078125,-0.14841920137405396,0.6688486933708191,-0.1592901051044464
1772094496339658200,4.632658203125,-0.15582838654518127,0.6757838129997253,-0.13503190875053406
1772094496349607200,4.642607177734375,-0.13752944767475128,0.7083534598350525,-0.14354375004768372
1772094496359557000,4.65255712890625,-0.0843125656247139,0.7869641184806824,-0.1772734820842743
1772094496369506000,4.662506103515625,0.013911457732319832,0.87971031665802,-0.22107890248298645
1772094496379456300,4.672456298828125,0.14962029457092285,0.9246365427970886,-0.2501315772533417
1772094496389406200,4.68240625,0.28395622968673706,0.9019315242767334,-0.26592299342155457
1772094496399355100,4.692355224609375,0.41182151436805725,0.7405967116355896,-0.2710743248462677
1772094496409305000,4.70230517578125,0.5399242043495178,0.4222468137741089,-0.2926398813724518
1772094496419254300,4.712254150390625,0.6521777510643005,-0.06898603588342667,-0.31404876708984375
1772094496429204200,4.722204345703125,0.6989181041717529,-0.6216509342193604,-0.2971799373626709
1772094496439153200,4.732153076171875,0.6298027038574219,-1.0955960750579834,-0.20553550124168396
1772094496449103000,4.74210302734375,0.43395671248435974,-1.3856643438339233,-0.05120579153299332
1772094496459053300,4.75205322265625,0.1702164262533188,-1.4132765531539917,0.14177271723747253
1772094496469002200,4.762002197265625,-0.06559372693300247,-1.2155438661575317,0.32579565048217773
1772094496478952200,4.7719521484375,-0.21731241047382355,-0.8527369499206543,0.43234074115753174
1772094496488901000,4.781901123046875,-0.2857566177845001,-0.4440632164478302,0.3893333673477173
1772094496498851300,4.791851318359375,-0.32037344574928284,-0.10972705483436584,0.15853290259838104
1772094496508800300,4.80180029296875,-0.33662375807762146,0.05787600204348564,-0.2377023994922638
1772094496518750200,4.811750244140625,-0.34239909052848816,0.026705030351877213,-0.6848722100257874
1772094496528700200,4.8217001953125,-0.37420549988746643,-0.08545185625553131,-1.0384604930877686
1772094496538649300,4.8316494140625,-0.4612290561199188,-0.1608121246099472,-1.2094154357910156
1772094496548599300,4.841599365234375,-0.5696206092834473,-0.13104204833507538,-1.2000176906585693
1772094496558548200,4.85154833984375,-0.6381222009658813,0.033618539571762085,-1.066684365272522
1772094496568498200,4.861498291015625,-0.6343051791191101,0.3008497953414917,-0.8932891488075256
1772094496578447000,4.871447021484375,-0.5783207416534424,0.5555757880210876,-0.770139753818512
1772094496588397300,4.881397216796875,-0.4870109260082245,0.7280585765838623,-0.7370448112487793
1772094496598347300,4.89134716796875,-0.3645414710044861,0.8553726077079773,-0.7654849886894226
1772094496608296200,4.901296142578125,-0.24363262951374054,0.9358764886856079,-0.827817440032959
1772094496618246400,4.911246337890625,-0.14756521582603455,0.9422073364257812,-0.8818966150283813
1772094496628195300,4.9211953125,-0.07672502845525742,0.8875699639320374,-0.8997417092323303
1772094496638145300,4.931145263671875,-0.039218928664922714,0.8070721626281738,-0.8421391248703003
1772094496648094200,4.94109423828125,-0.02394266426563263,0.7319825291633606,-0.7082273364067078
1772094496658044200,4.951044189453125,-0.0055543361231684685,0.7074880599975586,-0.5179039835929871
1772094496667994400,4.960994384765625,0.019865557551383972,0.7347964644432068,-0.30194810032844543
1772094496677943300,4.970943359375,0.05657723546028137,0.784980058670044,-0.1029718816280365
1772094496687893200,4.980893310546875,0.09930293262004852,0.83149653673172,0.0523734912276268
1772094496697842200,4.99084228515625,0.15478216111660004,0.8480750322341919,0.1545717716217041
1772094496707792400,5.00079248046875,0.20036981999874115,0.8101064562797546,0.20301108062267303
1772094496717741300,5.0107412109375,0.2184430956840515,0.7475280165672302,0.21519556641578674
1772094496727691300,5.020691162109375,0.20958691835403442,0.6521310210227966,0.20069146156311035
1772094496737641200,5.03064111328125,0.1939845234155655,0.5315430760383606,0.17892171442508698
1772094496747590400,5.04059033203125,0.17582803964614868,0.3846387267112732,0.16620132327079773
1772094496757540400,5.050540283203125,0.154250830411911,0.23565003275871277,0.165190652012825
1772094496767489300,5.0604892578125,0.1134265586733818,0.10721220076084137,0.15930524468421936
1772094496777439200,5.070439208984375,0.07275689393281937,-0.0028386726044118404,0.11342190951108932
1772094496787389200,5.08038916015625,0.03205948323011398,-0.12293431907892227,0.008432997390627861
1772094496797338400,5.09033837890625,-0.007655436638742685,-0.26335906982421875,-0.14290645718574524
1772094496807288000,5.1002880859375,-0.02172619104385376,-0.43861907720565796,-0.27767181396484375
1772094496817237200,5.1102373046875,0.005955769680440426,-0.5643932819366455,-0.3093961775302887
1772094496827187200,5.120187255859375,0.05941195413470268,-0.6203283071517944,-0.19637751579284668
1772094496837136400,5.130136474609375,0.11218062788248062,-0.6651706099510193,0.040646743029356
1772094496847086000,5.140086181640625,0.13346199691295624,-0.6628502011299133,0.3394696116447449
1772094496857035300,5.15003515625,0.13042226433753967,-0.5816519856452942,0.6219037175178528
1772094496866985200,5.159985107421875,0.1133483424782753,-0.4058551788330078,0.8048276901245117
1772094496876935200,5.16993505859375,0.10810937732458115,-0.18898706138134003,0.8496265411376953
1772094496886884000,5.179884033203125,0.13337798416614532,0.04048197716474533,0.7624700665473938
1772094496896834000,5.189833984375,0.1886066049337387,0.2570992410182953,0.6040862798690796
1772094496906783000,5.199782958984375,0.24962623417377472,0.43907982110977173,0.43465059995651245
1772094496916733200,5.209733154296875,0.28126513957977295,0.5867635607719421,0.3010057210922241
1772094496926682000,5.21968212890625,0.27484145760536194,0.6637661457061768,0.20697851479053497
1772094496936632000,5.229632080078125,0.2529987394809723,0.6765010952949524,0.13263824582099915
1772094496946582300,5.239582275390625,0.2416670322418213,0.6080896854400635,0.06733543425798416
1772094496956531200,5.24953125,0.2617342174053192,0.48246893286705017,0.004942632745951414
1772094496966481200,5.259481201171875,0.30187222361564636,0.31085366010665894,-0.03758184611797333
1772094496976430000,5.26943017578125,0.3563610315322876,0.13371457159519196,-0.047742873430252075
1772094496986380000,5.279380126953125,0.41741663217544556,-0.04518008604645729,-0.024649405851960182
1772094496996330200,5.289330322265625,0.4613838195800781,-0.224685400724411,0.03320084139704704
1772094497006279200,5.299279052734375,0.48728030920028687,-0.3825872242450714,0.11830005049705505
1772094497016229000,5.30922900390625,0.4836006164550781,-0.5003708600997925,0.22409412264823914
1772094497026178000,5.319177978515625,0.4534633457660675,-0.5790508389472961,0.33772000670433044
1772094497036128300,5.329128173828125,0.40039506554603577,-0.6196965575218201,0.44411224126815796
1772094497046077200,5.3390771484375,0.3243151903152466,-0.5913090705871582,0.5335879325866699
1772094497056027100,5.349027099609375,0.23450195789337158,-0.4967365264892578,0.5886261463165283
1772094497065977000,5.35897705078125,0.14721837639808655,-0.35820189118385315,0.5971765518188477
1772094497075926300,5.36892626953125,0.07831734418869019,-0.1712075024843216,0.5395718216896057
1772094497085876200,5.378876220703125,0.03097335621714592,0.05011308938264847,0.4141201674938202
1772094497095825200,5.3888251953125,0.000435421708971262,0.28666090965270996,0.21569548547267914
1772094497105775000,5.398775146484375,-0.009913420304656029,0.4833691120147705,-0.024206560105085373
1772094497115724300,5.408724365234375,0.009182777255773544,0.6488685607910156,-0.2684647738933563
1772094497125674200,5.41867431640625,0.03302638232707977,0.7526149153709412,-0.46306532621383667
1772094497135624200,5.428624267578125,0.04241802170872688,0.7797842621803284,-0.5564903616905212
1772094497145573000,5.438572998046875,0.033105652779340744,0.7893217206001282,-0.5443166494369507
1772094497155523300,5.4485234375,0.004754706285893917,0.8016897439956665,-0.4460284113883972
1772094497165469200,5.45846923828125,-0.019672231748700142,0.8181027173995972,-0.30118614435195923
1772094497175419100,5.468419189453125,-0.04051652550697327,0.8187991380691528,-0.15099981427192688
1772094497185368000,5.4783681640625,-0.07046158611774445,0.8196170330047607,-0.02033226191997528
1772094497195318000,5.488318115234375,-0.10872961580753326,0.808908998966217,0.07646671682596207
1772094497205268200,5.498268310546875,-0.14007465541362762,0.7677557468414307,0.14128409326076508
1772094497215217200,5.508217041015625,-0.13902457058429718,0.6685354113578796,0.17849697172641754
1772094497225167000,5.5181669921875,-0.09471191465854645,0.5108215808868408,0.20123139023780823
1772094497235116000,5.528115966796875,-0.034301839768886566,0.34809207916259766,0.20405539870262146
1772094497245066200,5.538066162109375,0.002339763566851616,0.19729891419410706,0.18669246137142181
1772094497255015200,5.54801513671875,0.0011607822962105274,0.10245867818593979,0.15293024480342865
1772094497264965000,5.557965087890625,-0.0362086296081543,0.08014171570539474,0.0886090025305748
1772094497274915000,5.5679150390625,-0.06576785445213318,0.03881877660751343,-0.015578118152916431
1772094497284864300,5.5778642578125,-0.01949731633067131,0.01887372136116028,-0.14630141854286194
1772094497294814200,5.587814208984375,0.10578896105289459,0.007011203095316887,-0.2657412588596344
1772094497304763100,5.59776318359375,0.22849810123443604,-0.0004544360563158989,-0.2973412573337555
1772094497314713000,5.607713134765625,0.2719166874885559,-0.01698174700140953,-0.2176208645105362
1772094497324662000,5.617662109375,0.22936829924583435,-0.07718663662672043,-0.04068184271454811
1772094497334612200,5.6276123046875,0.16393736004829407,-0.08861346542835236,0.252305805683136
1772094497344562200,5.637562255859375,0.1593649685382843,0.003945235162973404,0.6634259819984436
1772094497354511000,5.647510986328125,0.2175704836845398,0.17793114483356476,1.1524238586425781
1772094497364461000,5.6574609375,0.29608914256095886,0.3592580556869507,1.5956554412841797
1772094497374410200,5.66741015625,0.36636224389076233,0.4191562533378601,1.9022303819656372
1772094497384360200,5.677360107421875,0.45692214369773865,0.4181298613548279,2.03694486618042
1772094497394310000,5.687309814453125,0.5247470140457153,0.1681583672761917,1.9532008171081543
1772094497404259000,5.697259033203125,0.5425276160240173,-0.23032084107398987,1.70842707157135
1772094497414209000,5.707208984375,0.5077267289161682,-0.689331591129303,1.390419602394104
1772094497424158200,5.717158203125,0.3913629651069641,-1.0907264947891235,1.094283103942871
1772094497434108000,5.72710791015625,0.1697102189064026,-1.2526518106460571,0.8430365324020386
1772094497444057000,5.73705712890625,-0.1033276617527008,-1.2933099269866943,0.6076110005378723
1772094497454007000,5.747007080078125,-0.3703750669956207,-1.1178451776504517,0.3905484974384308
1772094497463957000,5.75695703125,-0.5863534212112427,-0.8439853191375732,0.2043708860874176
1772094497473906000,5.766906005859375,-0.7148211002349854,-0.5002402067184448,0.1219007819890976
1772094497483856100,5.776856201171875,-0.7566325664520264,-0.07570992410182953,0.1303720325231552
1772094497493805000,5.78680517578125,-0.7282528877258301,0.21914009749889374,0.14925836026668549
1772094497503755000,5.796755126953125,-0.6628552675247192,0.2778652012348175,0.18062308430671692
1772094497513704000,5.806703857421875,-0.5877021551132202,0.1709190160036087,0.2514650225639343
1772094497523654000,5.81665380859375,-0.5220052599906921,-0.03869084268808365,0.35294395685195923
1772094497533604000,5.82660400390625,-0.469261109828949,-0.30091872811317444,0.44648510217666626
1772094497543553000,5.836552978515625,-0.4103170335292816,-0.542027473449707,0.5210115313529968
1772094497553503000,5.8465029296875,-0.3385089039802551,-0.686670184135437,0.5490346550941467
1772094497563452000,5.856451904296875,-0.2879278063774109,-0.7059303522109985,0.5283065438270569
1772094497573402000,5.866402099609375,-0.2273440957069397,-0.6148648858070374,0.4627390205860138
1772094497583351000,5.87635107421875,-0.16916804015636444,-0.44418126344680786,0.39350056648254395
1772094497593301000,5.886301025390625,-0.1258929967880249,-0.1837638020515442,0.31343451142311096
1772094497603251000,5.8962509765625,-0.10795120149850845,0.08595909178256989,0.23694008588790894
1772094497613200100,5.9062001953125,-0.09647857397794724,0.2997693717479706,0.15409953892230988
1772094497623150000,5.916150146484375,-0.08148721605539322,0.4904196560382843,0.07178802788257599
1772094497633099000,5.92609912109375,-0.061897799372673035,0.6051297187805176,-0.0024294741451740265
1772094497643049000,5.936049072265625,-0.04465225711464882,0.6409041881561279,-0.03412436693906784
1772094497652998000,5.945997802734375,-0.009688150137662888,0.6289681792259216,-0.043058741837739944
1772094497662948000,5.955947998046875,0.04612797126173973,0.5410156846046448,-0.032859768718481064
1772094497672898000,5.96589794921875,0.10556040704250336,0.3487977981567383,-0.009565897285938263
1772094497682847000,5.975846923828125,0.16979637742042542,0.15173406898975372,0.029554100707173347
1772094497692797200,5.985797119140625,0.1938612461090088,0.07470081001520157,0.08534279465675354
1772094497702746000,5.99574609375,0.20041735470294952,-0.12043333053588867,0.15402628481388092
1772094497712696000,6.005696044921875,0.2143576592206955,-0.3521626889705658,0.24053534865379333
1772094497722645000,6.01564501953125,0.2707644999027252,-0.3905869424343109,0.36813822388648987
1772094497732595000,6.025594970703125,0.3723617196083069,-0.13300201296806335,0.5094497799873352
1772094497742545200,6.035545166015625,0.4932989478111267,0.27597883343696594,0.6045370101928711
1772094497752494000,6.045494140625,0.6172826886177063,0.6031031012535095,0.6395841836929321
1772094497762444000,6.055444091796875,0.7206249237060547,0.779277503490448,0.6292006969451904
1772094497772393000,6.06539306640625,0.7948299050331116,0.852942943572998,0.5814070701599121
1772094497782343200,6.07534326171875,0.8097791075706482,0.8417685031890869,0.4919033944606781
1772094497792292000,6.0852919921875,0.7195421457290649,0.8072406053543091,0.3424585163593292
1772094497802242000,6.095241943359375,0.5453349351882935,0.7518452405929565,0.1464153230190277
1772094497812192300,6.105192138671875,0.34447452425956726,0.6818062663078308,-0.07520070672035217
1772094497822141200,6.11514111328125,0.15969574451446533,0.6276351809501648,-0.25495341420173645
1772094497832091100,6.125091064453125,0.03389865905046463,0.5491616725921631,-0.3446015417575836
1772094497842040000,6.1350400390625,-0.0570223331451416,0.3104232847690582,-0.36564934253692627
1772094497851990000,6.144989990234375,-0.1935460865497589,-0.1445716768503189,-0.39325809478759766
1772094497861939200,6.154939208984375,-0.43132147192955017,-0.8112805485725403,-0.5228078365325928
1772094497871889200,6.16488916015625,-0.7287547588348389,-1.580147385597229,-0.7751637101173401
1772094497881839000,6.174839111328125,-0.9664331674575806,-2.209712505340576,-1.0706425905227661
1772094497891788000,6.1847880859375,-1.1425660848617554,-2.448352098464966,-1.297866940498352
1772094497901738200,6.19473828125,-1.2538580894470215,-2.283726930618286,-1.4046911001205444
1772094497911687200,6.204687255859375,-1.2815883159637451,-1.7371631860733032,-1.4306178092956543
1772094497921637000,6.21463720703125,-1.2219375371932983,-0.9704526662826538,-1.4715195894241333
1772094497931586000,6.2245859375,-1.0766088962554932,-0.24665427207946777,-1.5646404027938843
1772094497941536300,6.234536376953125,-0.8622550368309021,0.297619104385376,-1.6771351099014282
1772094497951486200,6.244486328125,-0.6324524879455566,0.6795549988746643,-1.7736778259277344
1772094497961435100,6.25443505859375,-0.4524461328983307,0.8700087666511536,-1.8067519664764404
1772094497971385000,6.264385009765625,-0.3718426525592804,0.9026252627372742,-1.7573168277740479
1772094497981334000,6.274333984375,-0.3557865023612976,0.8233057260513306,-1.6283130645751953
1772094497991284200,6.2842841796875,-0.3541167080402374,0.6427401900291443,-1.4348002672195435
1772094498001233200,6.294233154296875,-0.35821256041526794,0.3769400417804718,-1.1689399480819702
1772094498011183000,6.30418310546875,-0.36559563875198364,0.14498989284038544,-0.846821129322052
1772094498021133300,6.31413330078125,-0.3748002350330353,0.038460537791252136,-0.5066848993301392
1772094498031082200,6.324082275390625,-0.37945011258125305,0.04515066742897034,-0.20403185486793518
1772094498041032200,6.3340322265625,-0.35454633831977844,0.09038244187831879,0.03528063744306564
1772094498050981000,6.343981201171875,-0.2986428439617157,0.10184229165315628,0.20632241666316986
1772094498060931000,6.35393115234375,-0.22078706324100494,0.07050181180238724,0.31816792488098145
1772094498070880300,6.36388037109375,-0.14408482611179352,-0.015041321516036987,0.36933255195617676
1772094498080830200,6.373830322265625,-0.07257729023694992,-0.12543514370918274,0.376973956823349
1772094498090780000,6.38377978515625,-0.013951262459158897,-0.21162143349647522,0.3571981191635132
1772094498100729000,6.39372900390625,0.014980500563979149,-0.2689220905303955,0.31599754095077515
1772094498110679000,6.403678955078125,0.028873145580291748,-0.2992786765098572,0.24849916994571686
1772094498120628200,6.413628173828125,0.04506886005401611,-0.30500781536102295,0.1578906625509262
1772094498130578000,6.423577880859375,0.08250544965267181,-0.1991511434316635,0.06661961227655411
1772094498140527000,6.433527099609375,0.1548757255077362,0.026257161051034927,-0.01101509016007185
1772094498150477000,6.44347705078125,0.23661774396896362,0.2906366288661957,-0.05708351358771324
1772094498160427000,6.453427001953125,0.29378655552864075,0.45170798897743225,-0.07702380418777466
1772094498170376700,6.463376708984375,0.27958524227142334,0.4619978964328766,-0.10206923633813858
1772094498180326700,6.47332666015625,0.1964300125837326,0.3198696970939636,-0.17972847819328308
1772094498190275600,6.483275634765625,0.07757152616977692,0.039504606276750565,-0.3393777906894684
1772094498200225500,6.4932255859375,-0.021758275106549263,-0.3393101990222931,-0.5493306517601013
1772094498210174700,6.5031748046875,-0.06713827699422836,-0.7146499752998352,-0.733612060546875
1772094498220124700,6.513124755859375,-0.099965900182724,-1.0160683393478394,-0.8255817294120789
1772094498230074600,6.52307470703125,-0.13412226736545563,-1.1078171730041504,-0.7655689716339111
1772094498240023600,6.5330234375,-0.16579481959342957,-1.0398156642913818,-0.5804762244224548
1772094498249973800,6.542973876953125,-0.20425060391426086,-0.9244712591171265,-0.3433789610862732
1772094498259922700,6.552922607421875,-0.2303023487329483,-0.7163615226745605,-0.08870875090360641
1772094498269872600,6.56287255859375,-0.23536022007465363,-0.44688984751701355,0.14364805817604065
1772094498279821600,6.572821533203125,-0.2353920340538025,-0.22321495413780212,0.3295346796512604
1772094498289771800,6.582771728515625,-0.22509919106960297,-0.1075296401977539,0.4591427445411682
1772094498299721700,6.5927216796875,-0.20922361314296722,-0.09861210733652115,0.5421047210693359
1772094498309670700,6.602670654296875,-0.20933333039283752,-0.13908016681671143,0.575874924659729
1772094498319620600,6.61262060546875,-0.23780003190040588,-0.16130061447620392,0.5514925718307495
1772094498329569800,6.62256982421875,-0.27879461646080017,-0.12997625768184662,0.4764169454574585
1772094498339519700,6.632519775390625,-0.29076921939849854,-0.03414786234498024,0.34911322593688965
1772094498349468700,6.64246875,-0.27205437421798706,0.1007859855890274,0.20662106573581696
1772094498359418600,6.652418701171875,-0.24611343443393707,0.24389581382274628,0.05687177926301956
1772094498369368800,6.662368896484375,-0.2144409865140915,0.3833636939525604,-0.07963386923074722
1772094498379317800,6.67231787109375,-0.17423738539218903,0.5221510529518127,-0.18972457945346832
1772094498389267700,6.682267822265625,-0.12321574985980988,0.6097331047058105,-0.2743782103061676
1772094498399216600,6.692216552734375,-0.08853953331708908,0.6330506801605225,-0.3146035373210907
1772094498409166800,6.702166748046875,-0.048008352518081665,0.6203505992889404,-0.3021705448627472
1772094498419115800,6.71211572265625,-0.0055336179211735725,0.6336756944656372,-0.2568342387676239
1772094498429065700,6.722065673828125,0.043890658766031265,0.6272252798080444,-0.1988907903432846
1772094498439014700,6.7320146484375,0.10315127670764923,0.5904669761657715,-0.14082008600234985
1772094498448964600,6.741964599609375,0.14445051550865173,0.5299264192581177,-0.09076332300901413
1772094498458914800,6.751914794921875,0.18649622797966003,0.44989246129989624,-0.05134749785065651
1772094498468863700,6.76186376953125,0.22555147111415863,0.3841091990470886,-0.020146969705820084
1772094498478813700,6.771813720703125,0.2590198814868927,0.33099719882011414,0.004374653100967407
1772094498488762600,6.7817626953125,0.2667054831981659,0.27820321917533875,0.03087363950908184
1772094498498712800,6.791712890625,0.24891361594200134,0.20938311517238617,0.07529433816671371
1772094498508662800,6.801662841796875,0.2053626924753189,0.10367239266633987,0.1291961818933487
1772094498518611700,6.81161181640625,0.13056431710720062,-0.02730756811797619,0.17651906609535217
1772094498528561700,6.821561767578125,0.05805336683988571,-0.1628829687833786,0.20886342227458954
1772094498538510800,6.8315107421875,0.014186360873281956,-0.2505742609500885,0.23116599023342133
1772094498548460800,6.841460693359375,0.012434800155460835,-0.24760030210018158,0.24918681383132935
1772094498558409700,6.85140966796875,0.039716459810733795,-0.16409486532211304,0.25713708996772766
1772094498568359700,6.861359619140625,0.07031884044408798,-0.025573473423719406,0.24814574420452118
1772094498578308900,6.871308837890625,0.11278776079416275,0.1328200101852417,0.2062637060880661
1772094498588258800,6.8812587890625,0.1642264574766159,0.27501818537712097,0.12226706743240356
1772094498598208800,6.891208740234375,0.22125016152858734,0.364121675491333,0.023419084027409554
1772094498608157700,6.90115771484375,0.2791835069656372,0.3851092457771301,-0.05259472131729126
1772094498618108000,6.91110791015625,0.32006028294563293,0.3639228343963623,-0.05870668217539787
1772094498628056800,6.921056884765625,0.3452756106853485,0.385498970746994,0.026504088193178177
1772094498638006800,6.9310068359375,0.36508068442344666,0.5115277171134949,0.17369957268238068
1772094498647955700,6.940955810546875,0.3864530920982361,0.7360652089118958,0.3214211165904999
1772094498657906000,6.950906005859375,0.4160405993461609,0.9430108666419983,0.37717166543006897
1772094498667855600,6.960855712890625,0.4669778048992157,1.0095280408859253,0.3055190443992615
1772094498677804800,6.9708046875,0.5252242684364319,0.8294630646705627,0.10617145895957947
1772094498687754800,6.980754638671875,0.5825088620185852,0.34954360127449036,-0.12717658281326294
1772094498697703700,6.99070361328125,0.6122336387634277,-0.30056312680244446,-0.2314819097518921
1772094498707654000,7.00065380859375,0.5977684259414673,-0.9043925404548645,-0.10798341035842896
1772094498717602800,7.010602783203125,0.5233851671218872,-1.2289683818817139,0.25531211495399475
1772094498727552800,7.020552734375,0.42316827178001404,-1.1360774040222168,0.718877375125885
1772094498737501700,7.030501708984375,0.3688547909259796,-0.676851212978363,1.1339150667190552
1772094498747452000,7.040451904296875,0.35742583870887756,-0.07265269756317139,1.3983643054962158
1772094498757401600,7.050401611328125,0.3525039255619049,0.40406712889671326,1.4697315692901611
1772094498767350800,7.060350830078125,0.3249785602092743,0.6196289658546448,1.364894986152649
1772094498777300500,7.070300537109375,0.23140007257461548,0.6261653900146484,1.1563334465026855
1772094498787250000,7.08025,0.0745105892419815,0.3041039705276489,0.8932315707206726
1772094498797199600,7.09019970703125,-0.10996905714273453,-0.28269898891448975,0.5830118656158447
1772094498807148800,7.100148681640625,-0.24185492098331451,-0.9669414758682251,0.2897337079048157
1772094498817098500,7.110098388671875,-0.34987151622772217,-1.551706314086914,0.04754236340522766
1772094498827048700,7.120048583984375,-0.47212445735931396,-1.8681862354278564,-0.16919980943202972
1772094498836997600,7.12999755859375,-0.51446533203125,-1.8360074758529663,-0.3526352643966675
1772094498846947600,7.139947509765625,-0.43053126335144043,-1.4669302701950073,-0.5001722574234009
1772094498856896500,7.149896484375,-0.26261040568351746,-0.8747680187225342,-0.6206992864608765
1772094498866846700,7.1598466796875,-0.09284693002700806,-0.25537988543510437,-0.7442595958709717
1772094498876795600,7.169795654296875,0.030862387269735336,0.25431033968925476,-0.867722749710083
1772094498886745600,7.17974560546875,0.09500062465667725,0.6725818514823914,-0.9860336780548096
1772094498896695600,7.189695556640625,0.10085006058216095,0.954880952835083,-1.062706470489502
1772094498906644700,7.199644775390625,0.0635538175702095,1.0531032085418701,-1.0693588256835938
1772094498916594700,7.2095947265625,-0.02567335031926632,0.9922411441802979,-0.9901377558708191
1772094498926543600,7.219543701171875,-0.12142996490001678,0.7982708811759949,-0.8345564007759094
1772094498936493600,7.22949365234375,-0.17267757654190063,0.5225675702095032,-0.6043661236763
1772094498946442500,7.2394423828125,-0.1636289656162262,0.2519504427909851,-0.33250048756599426
1772094498956392700,7.249392822265625,-0.10400649160146713,0.07789978384971619,-0.06712173670530319
1772094498966341600,7.259341552734375,-0.14804132282733917,0.059947945177555084,0.20451882481575012
1772094498976291600,7.26929150390625,-0.18809767067432404,0.14476606249809265,0.4664064645767212
1772094498986241800,7.27924169921875,-0.16158004105091095,0.300261914730072,0.6804226636886597
1772094498996190700,7.289190673828125,-0.06808263808488846,0.5071613192558289,0.803633451461792
1772094499006140700,7.299140625,0.07301802188158035,0.6445101499557495,0.8073033094406128
1772094499016089600,7.309089599609375,0.21775953471660614,0.5635425448417664,0.6003736853599548
1772094499026039600,7.31903955078125,0.3644869327545166,0.32058367133140564,0.2678692936897278
1772094499035988700,7.32898876953125,0.5393118858337402,0.13966411352157593,0.023665593937039375
1772094499045938700,7.338938720703125,0.6408084034919739,0.09067019820213318,-0.16712352633476257
1772094499055888600,7.348888671875,0.6084997653961182,0.10541816055774689,-0.27160507440567017
1772094499065837600,7.358837646484375,0.48084306716918945,0.16661493480205536,-0.3240818679332733
1772094499075787800,7.368787841796875,0.2733895480632782,0.33811283111572266,-0.3506591320037842
1772094499085736700,7.37873681640625,0.05438078194856644,0.5451134443283081,-0.36660587787628174
1772094499095686700,7.388686767578125,-0.10499830543994904,0.650894820690155,-0.36359116435050964
1772094499105635600,7.398635498046875,-0.1453406661748886,0.6266453862190247,-0.2966720759868622
1772094499115585800,7.408585693359375,-0.0698072537779808,0.5451435446739197,-0.12249314785003662
1772094499125534700,7.41853466796875,0.04798862338066101,0.5246851444244385,0.14275076985359192
1772094499135484700,7.428484619140625,0.15552163124084473,0.5216284990310669,0.4080049395561218
1772094499145434600,7.4384345703125,0.26280122995376587,0.48144295811653137,0.59964919090271
1772094499155383800,7.4483837890625,0.3400169909000397,0.3615233302116394,0.6877961754798889
1772094499165333200,7.458333251953125,0.3528236150741577,0.14802460372447968,0.6740572452545166
1772094499175282200,7.4682822265625,0.28774717450141907,-0.07208079844713211,0.601119875907898
1772094499185232100,7.478232177734375,0.18403492867946625,-0.192619189620018,0.505035936832428
1772094499195181000,7.48818115234375,0.047559939324855804,-0.2452382594347,0.39683642983436584
1772094499205131300,7.49813134765625,-0.12663662433624268,-0.35022589564323425,0.23871125280857086
1772094499215080200,7.508080078125,-0.3787093460559845,-0.5710256695747375,-0.01794516295194626
1772094499225030100,7.518030029296875,-0.6683177351951599,-0.8698379397392273,-0.39417657256126404
1772094499234980000,7.52797998046875,-0.8945987224578857,-1.115196943283081,-0.8234653472900391
1772094499244929300,7.53792919921875,-0.9748448133468628,-1.1728529930114746,-1.1821776628494263
1772094499254879200,7.547879150390625,-0.944541871547699,-0.9600594639778137,-1.3474746942520142
1772094499264828200,7.557828125,-0.8219355344772339,-0.5192381143569946,-1.309451937675476
1772094499274778000,7.567778076171875,-0.6329578757286072,0.005055329296737909,-1.1288610696792603
1772094499284727000,7.57772705078125,-0.44074657559394836,0.4480902850627899,-0.9053699374198914
1772094499294677200,7.58767724609375,-0.31512558460235596,0.7183606624603271,-0.7161364555358887
1772094499304627200,7.597627197265625,-0.24077169597148895,0.8132152557373047,-0.622114896774292
1772094499314576100,7.607576171875,-0.1891947090625763,0.7989973425865173,-0.6034969091415405
1772094499324526300,7.6175263671875,-0.15061695873737335,0.684475839138031,-0.5942506790161133
1772094499334475300,7.627475341796875,-0.1338677704334259,0.5176390409469604,-0.5222745537757874
1772094499344425200,7.63742529296875,-0.11135553568601608,0.35143008828163147,-0.38272544741630554
1772094499354374100,7.6473740234375,-0.06905291229486465,0.21285603940486908,-0.2118557095527649
1772094499364324000,7.657323974609375,-0.007389015052467585,0.11270067095756531,-0.06533418595790863
1772094499374273300,7.667273193359375,0.06823965162038803,0.04173626750707626,0.023531705141067505
1772094499384223200,7.67722314453125,0.1544640213251114,-0.033662348985672,0.05980209633708
1772094499394173200,7.687173095703125,0.23641490936279297,-0.09829655289649963,0.054527170956134796
1772094499404122000,7.6971220703125,0.3053785264492035,-0.15795962512493134,0.04924186319112778
1772094499414072300,7.707072265625,0.3572118282318115,-0.22131218016147614,0.0809178352355957
1772094499424021200,7.717021240234375,0.40717700123786926,-0.2225036770105362,0.17717139422893524
1772094499433971200,7.72697119140625,0.4508877098560333,-0.13331054151058197,0.30915334820747375
1772094499443920100,7.736920166015625,0.49409109354019165,-0.012307954952120781,0.43658536672592163
1772094499453870300,7.746870361328125,0.5215684175491333,0.09368689358234406,0.5089877247810364
1772094499463819300,7.7568193359375,0.5494261384010315,0.15180984139442444,0.5104527473449707
1772094499473769200,7.766769287109375,0.5771127939224243,0.15722282230854034,0.4428872764110565
1772094499483719200,7.77671923828125,0.5844660401344299,0.09118974953889847,0.35279494524002075
1772094499493668400,7.78666845703125,0.5740693211555481,-0.02299872785806656,0.270110160112381
1772094499503618300,7.796618408203125,0.547253429889679,-0.17704208195209503,0.23816341161727905
1772094499513567200,7.806567138671875,0.5022012591362,-0.3346238136291504,0.2745826542377472
1772094499523517200,7.81651708984375,0.4404364228248596,-0.4729931652545929,0.3589955270290375
1772094499533466000,7.826466064453125,0.3636627197265625,-0.5850165486335754,0.45629769563674927
1772094499543416300,7.836416259765625,0.2718081772327423,-0.6851215958595276,0.5137923955917358
1772094499553366300,7.8463662109375,0.17015115916728973,-0.7969400882720947,0.49412858486175537
1772094499563315200,7.856315185546875,0.07735197246074677,-0.8926865458488464,0.38429635763168335
1772094499573265400,7.866265380859375,0.0013026343658566475,-0.9233060479164124,0.20445971190929413
1772094499583214300,7.87621435546875,-0.0578504353761673,-0.8669761419296265,0.00981193222105503
1772094499593164300,7.886164306640625,-0.0849764347076416,-0.7411037683486938,-0.15314586460590363
1772094499603113200,7.89611328125,-0.09375873953104019,-0.5875653028488159,-0.2435804158449173
1772094499613063200,7.906063232421875,-0.07847661525011063,-0.43621811270713806,-0.2533528506755829
1772094499623012400,7.916012451171875,-0.06745751947164536,-0.279611736536026,-0.22518272697925568
1772094499632962300,7.92596240234375,-0.0606563463807106,-0.13451634347438812,-0.2240896373987198
1772094499642912300,7.935912353515625,-0.05330708622932434,-0.015283947810530663,-0.2806330621242523
1772094499652861200,7.945861083984375,-0.05384119972586632,0.08239524066448212,-0.3882702887058258
1772094499662811400,7.955811279296875,-0.07603278756141663,0.14192967116832733,-0.4857742190361023
1772094499672760300,7.96576025390625,-0.10302501171827316,0.16881310939788818,-0.5277885794639587
1772094499682710300,7.975710205078125,-0.10754333436489105,0.15400327742099762,-0.48006150126457214
1772094499692659200,7.9856591796875,-0.08656954020261765,0.13495561480522156,-0.3686947822570801
1772094499702609400,7.995609375,-0.058833517134189606,0.13955596089363098,-0.23024557530879974
1772094499712558300,8.005558349609375,-0.04492628946900368,0.14862315356731415,-0.10496485233306885
1772094499722508300,8.01550830078125,-0.024580806493759155,0.1471504271030426,-0.02610066533088684
1772094499732458200,8.025458251953125,-0.00266802916303277,0.12985862791538239,0.00811073835939169
1772094499742407400,8.035407470703126,0.018013279885053635,0.09001480042934418,0.01205621100962162
1772094499752357000,8.045357177734376,0.03301495686173439,0.05983525514602661,0.015514723025262356
1772094499762306300,8.055306396484376,0.03458728641271591,0.013468286953866482,0.03989569842815399
1772094499772256300,8.06525634765625,0.02535763755440712,-0.023720037192106247,0.07574194669723511
1772094499782205200,8.075205078125,0.006414305418729782,-0.05285634845495224,0.10815367847681046
1772094499792155400,8.0851552734375,-0.02260298654437065,-0.059362560510635376,0.10478275269269943
1772094499802104300,8.095104248046875,-0.05702700838446617,-0.07959992438554764,0.06916883587837219
1772094499812054300,8.10505419921875,-0.10781482607126236,-0.11078474670648575,0.0017284059431403875
1772094499822004200,8.115004150390625,-0.15702232718467712,-0.14228755235671997,-0.07471230626106262
1772094499831953400,8.124953369140625,-0.2067154347896576,-0.16037213802337646,-0.1391626000404358
1772094499841903000,8.134903076171875,-0.2363007515668869,-0.1706428825855255,-0.18736688792705536
1772094499851852300,8.144852294921876,-0.25204938650131226,-0.1558712273836136,-0.20782679319381714
1772094499861802000,8.154802001953126,-0.24491477012634277,-0.08577176928520203,-0.20055103302001953
1772094499871751400,8.16475146484375,-0.2354523092508316,0.03606465086340904,-0.16649891436100006
1772094499881701000,8.174701171875,-0.23933705687522888,0.14968149363994598,-0.14241115748882294
1772094499891650300,8.184650390625,-0.24728117883205414,0.19885240495204926,-0.1443822979927063
1772094499901600000,8.19460009765625,-0.24221664667129517,0.18454937636852264,-0.17981672286987305
1772094499911550200,8.20455029296875,-0.2232053130865097,0.13398011028766632,-0.22394196689128876
1772094499921499100,8.2144990234375,-0.21366852521896362,0.0035944092087447643,-0.22972795367240906
1772094499931449000,8.224448974609375,-0.20882783830165863,-0.20067043602466583,-0.18170788884162903
1772094499941398000,8.23439794921875,-0.21823571622371674,-0.44358590245246887,-0.07503578066825867
1772094499951348200,8.24434814453125,-0.23196780681610107,-0.6542850136756897,0.023260492831468582
1772094499961297200,8.254297119140626,-0.22566677629947662,-0.7511466145515442,0.06655550003051758
1772094499971247000,8.2642470703125,-0.19256126880645752,-0.7578808069229126,0.045831482857465744
1772094499981196300,8.2741962890625,-0.14420545101165771,-0.7270390391349792,-0.009995561093091965
1772094499991146200,8.284146240234374,-0.08091069757938385,-0.6603729724884033,-0.038466185331344604
1772094500001096200,8.29409619140625,-0.015819314867258072,-0.5343010425567627,0.023336460813879967
1772094500011045000,8.304045166015625,0.016787385568022728,-0.414568692445755,0.14845752716064453
1772094500020995000,8.3139951171875,0.013048574328422546,-0.317851722240448,0.26583102345466614
1772094500030944000,8.323944091796875,-0.018383940681815147,-0.19040518999099731,0.3201115131378174
1772094500040894200,8.333894287109375,-0.05950261652469635,-0.040274813771247864,0.2688025236129761
1772094500050843100,8.343843017578125,-0.10591407865285873,0.09726003557443619,0.09945995360612869
1772094500060793000,8.35379296875,-0.15279290080070496,0.18992047011852264,-0.1280251443386078
1772094500070742000,8.363741943359376,-0.20942018926143646,0.25507572293281555,-0.34659695625305176
1772094500080692200,8.373692138671874,-0.24403461813926697,0.3037774860858917,-0.521648645401001
1772094500090641200,8.38364111328125,-0.23501165211200714,0.3396831154823303,-0.6249074935913086
1772094500100591000,8.393591064453124,-0.19487781822681427,0.3732343912124634,-0.6632168292999268
1772094500110541000,8.403541015625,-0.14858794212341309,0.40243104100227356,-0.6772775650024414
1772094500120490200,8.413490234375,-0.08772273361682892,0.3957238793373108,-0.6844329833984375
1772094500130440200,8.423440185546875,-0.0382666140794754,0.3328807055950165,-0.6866291761398315
1772094500140389000,8.43338916015625,0.0023452620953321457,0.2271401435136795,-0.682939350605011
1772094500150339000,8.443339111328125,0.04787728190422058,0.09972098469734192,-0.6532814502716064
1772094500160288000,8.4532880859375,0.10027444362640381,-0.013944590464234352,-0.5940545797348022
1772094500170241800,8.46324169921875,0.16535915434360504,-0.046597983688116074,-0.4997849464416504
1772094500180190700,8.473190673828125,0.23547139763832092,0.01569521613419056,-0.3663656413555145
1772094500190140700,8.483140625,0.31297340989112854,0.1496250182390213,-0.21930277347564697
1772094500200091000,8.4930908203125,0.4058205485343933,0.3236764371395111,-0.07107443362474442
1772094500210039800,8.503039794921875,0.5201352834701538,0.4742526113986969,0.0673217624425888
1772094500219989800,8.51298974609375,0.6082385182380676,0.5920894742012024,0.19802410900592804
1772094500229938700,8.522938720703126,0.641744077205658,0.6703617572784424,0.2917022407054901
1772094500239889000,8.532888916015626,0.6038238406181335,0.7212230563163757,0.3199613094329834
1772094500249837800,8.542837890625,0.5383790731430054,0.7287020087242126,0.2778831720352173
1772094500259787800,8.552787841796874,0.46017903089523315,0.7360230684280396,0.16820965707302094
1772094500269736700,8.56273681640625,0.39412859082221985,0.7492300271987915,0.056239914149045944
1772094500279687000,8.57268701171875,0.3229929208755493,0.6711815595626831,0.06961430609226227
1772094500289636900,8.582636962890625,0.29293790459632874,0.3941563367843628,0.15072889626026154
1772094500299585800,8.592585693359375,0.34057438373565674,0.0742822140455246,0.2711977958679199
1772094500309535700,8.60253564453125,0.4577608108520508,-0.05953057482838631,0.43553754687309265
1772094500319485000,8.61248486328125,0.5557451248168945,0.028769725933670998,0.6130521297454834
1772094500329435000,8.622434814453126,0.5769904255867004,0.13333992660045624,0.7310207486152649
1772094500339383800,8.6323837890625,0.5340543985366821,0.16342540085315704,0.7246664762496948
1772094500349333800,8.642333740234376,0.45328086614608765,0.1332182139158249,0.5948812961578369
1772094500359282700,8.65228271484375,0.332736611366272,0.05565178394317627,0.37754708528518677
1772094500369233000,8.66223291015625,0.21324743330478668,-0.06300729513168335,0.11724058538675308
1772094500379181800,8.672181884765624,0.13329027593135834,-0.13691399991512299,-0.10081185400485992
1772094500389131800,8.6821318359375,0.03829334303736687,-0.11148083955049515,-0.15981581807136536
