time,seconds_elapsed,z,y,x
1772045497113689000,0.071689208984375,0.5231336472660303,-0.16750673018842935,-0.4139702388443052
1772045497123675100,0.081675048828125,0.7409522223263979,-0.12334259429126977,-0.2973477465882897
1772045497133661200,0.0916611328125,0.99712537022233,-0.1293713530614972,-0.1330972417168319
1772045497143647200,0.101647216796875,1.1984902386099099,-0.16651216619312761,0.02685322787314653
1772045497153633000,0.111633056640625,1.3310948745042084,-0.2613365220084786,0.1926068307839334
1772045497163619000,0.121619140625,1.3290823656380175,-0.4900125911697745,0.31652459461465476
1772045497173605000,0.131605224609375,1.1597118874043226,-0.6811670311883091,0.29233284103572366
1772045497183591200,0.141591064453125,1.0443722745656967,-0.5437003422155976,0.2920759436652064
1772045497193577000,0.151576904296875,1.0036094715446233,-0.4382324273109436,0.287652866525948
1772045497203563300,0.161563232421875,0.9793915606111288,-0.4787696048825979,0.29425562579184766
1772045497213549000,0.171549072265625,1.101769401523471,-0.47497371973097324,0.4059580511718988
1772045497223535000,0.18153515625,1.3757318886101244,-0.39760786371678114,0.5239946480095387
1772045497233521200,0.191521240234375,1.7543442522168158,-0.3181280842885375,0.5787731169015169
1772045497243506200,0.201506103515625,2.1565835751265285,-0.29338673400282855,0.6860229467868805
1772045497253492200,0.2114921875,2.5264941613614558,-0.2744283510327339,0.8046227304652332
1772045497263478000,0.22147802734375,2.925593432679772,-0.06378478216826915,0.6808578191086649
1772045497273464300,0.23146435546875,3.2436715403467415,0.2182595968261361,0.6358639543890953
1772045497283450000,0.2414501953125,3.3573528645843265,0.224736976146698,0.8840230149164795
1772045497293436200,0.251436279296875,3.568509643667936,0.05958762273937463,1.068008878479898
1772045497303422200,0.261422119140625,3.8015374782979485,-0.12043138301968574,1.3163503098368643
1772045497313408300,0.271408203125,3.9938223836511373,-0.4283250735417008,1.3537860142618416
1772045497323394000,0.28139404296875,4.0560646125525235,-0.8675617094591259,1.2101166712567208
1772045497333380000,0.291380126953125,3.937514220973849,-1.2717860687062144,1.2074337157830595
1772045497343366100,0.3013662109375,3.5281314560502763,-1.5803507903575895,1.3426894507080316
1772045497353352200,0.311352294921875,3.0271856751948594,-1.6196581338733433,1.608345881742239
1772045497363338200,0.321338134765625,2.6594974411845205,-1.3041124672934412,1.9834914460211992
1772045497373324000,0.331323974609375,2.445751814651489,-1.0727224629983305,2.2608277934551237
1772045497383310000,0.34131005859375,2.3466712626963853,-0.9190566266357898,2.4291662982925772
1772045497393296100,0.351296142578125,2.3868039511203762,-0.7492185308903455,2.402312485897541
1772045497403282200,0.3612822265625,2.467176879996061,-0.7448556595057249,2.2335808900892733
1772045497413268000,0.37126806640625,2.6040228067219258,-0.965273018887639,2.0944003829360005
1772045497423253000,0.3812529296875,2.8431261618733403,-1.3454369958505035,2.216374903744459
1772045497433239300,0.3912392578125,3.1809102560073135,-1.1094541108071803,2.0613851253017783
1772045497443225000,0.40122509765625,3.2591099324971435,-0.7783420417830348,1.8334300638914107
1772045497453211100,0.411211181640625,2.993759790933132,-0.6463641594849526,1.7079563027903437
1772045497463197200,0.421197265625,2.610845930740237,-0.2483820556282997,1.6336863669648765
1772045497473183200,0.431183349609375,2.2814812899053094,0.31401568053364753,1.5712874861970543
1772045497483169000,0.4411689453125,1.735876867634058,0.4096276795953512,2.0100465677306056
1772045497493155300,0.4511552734375,1.525541341805458,-0.0792689131565392,2.703024448221922
1772045497503141000,0.46114111328125,2.25794376245141,-0.6191384450376033,3.371608184430003
1772045497513127200,0.471127197265625,3.647397886943817,-0.4725074757479131,3.699352530586719
1772045497523113200,0.48111328125,5.033563491284847,-0.055211161220818754,3.672572075688839
1772045497533099300,0.491099365234375,6.089646661910415,0.029003683905303477,3.860943022468686
1772045497543085000,0.5010849609375,5.878315110781789,0.13893150082826614,3.9347622919172047
1772045497553071400,0.5110712890625,4.941611183774471,0.26962051235958934,4.108690871846676
1772045497563057200,0.52105712890625,3.72863181656301,0.209462542386353,4.173721854683756
1772045497573043200,0.531043212890625,2.5137550912976265,0.4114038954876363,3.726709324067831
1772045497583029200,0.541029296875,1.9077064294576644,1.0499448140010237,3.5501018803179263
1772045497593015300,0.551015380859375,1.5379659390926361,1.4828110381036996,3.9096915635466574
1772045497603001000,0.5610009765625,1.5700561908364294,1.2557983721099792,4.767220831552147
1772045497612986000,0.570986083984375,1.9081971355840563,1.1072294204950333,5.068457694533467
1772045497622972200,0.58097216796875,1.9402914789810775,0.802949390425533,4.39059818045795
1772045497632958200,0.590958251953125,1.0740320842921733,0.13889496821016073,2.8879017076671123
1772045497642944000,0.600944091796875,-0.747528093585372,-0.6004067834954708,0.9580635259002447
1772045497652930300,0.610930419921875,-3.030707711841166,-1.233457945486158,-1.1618933230966328
1772045497662916000,0.620916015625,-5.201246454823017,-1.7774916113093495,-2.968634117504954
1772045497672902100,0.630902099609375,-6.77124068633914,-2.2276725428283215,-4.5526177114069455
1772045497682888200,0.64088818359375,-7.689031238561868,-2.96804491944015,-6.469395336070656
1772045497692874200,0.650874267578125,-8.452027534914016,-4.066509141938388,-8.611227332267164
1772045497702860000,0.660860107421875,-9.437866956490277,-5.097155965751409,-10.2231779605031
1772045497712846000,0.67084619140625,-10.816259588742255,-5.297614240688085,-11.58375787268877
1772045497722832100,0.68083203125,-12.727971162188052,-4.9357390768706795,-12.955899627852439
1772045497732818200,0.690818115234375,-15.16027897337675,-4.56334222677797,-14.996725072467326
1772045497742804000,0.700803955078125,-17.497983085763455,-4.224084552960098,-17.748022845470903
1772045497752790300,0.710790283203125,-19.508455477690696,-3.0125118376761675,-21.512439676642416
1772045497762776000,0.720776123046875,-20.750807654380797,-2.120727833369374,-24.703375067579746
1772045497772762000,0.73076220703125,-20.577125158166883,-0.7170628126949071,-26.51749486632347
1772045497782748200,0.740748046875,-18.5760916257143,1.143969397740811,-26.232327679133412
1772045497792734200,0.750734130859375,-14.701665436816215,2.6918814151778814,-23.750321478796003
1772045497802720000,0.760719970703125,-10.153252775883674,4.358675978757441,-20.506622465920447
1772045497812706300,0.770706298828125,-6.094679979902505,5.608368289077282,-17.092867330634594
1772045497822691300,0.78069140625,-3.174566439938545,6.247488614913821,-13.762855477440356
1772045497832677000,0.790677001953125,-1.6508397463396192,6.588071984377503,-10.473414119565486
1772045497842663200,0.8006630859375,-1.3608870784386993,6.668526161795854,-7.1910168349832295
1772045497852649200,0.810649169921875,-1.6724506896451115,6.660331164902448,-4.484901435008645
1772045497862635000,0.820635009765625,-1.8884891032904385,6.683430300939083,-2.330249120205641
1772045497872621000,0.83062109375,-1.3963321935683488,6.587200462239981,-0.42779403540492056
1772045497882607000,0.840607177734375,-0.04153378739356994,6.628539603844285,1.5827163504451511
1772045497892593200,0.85059326171875,2.030829243518412,6.7977043303728095,3.8053222575336694
1772045497902579000,0.860578857421875,4.417542301484942,7.208242110550403,6.142644092604518
1772045497912565200,0.870565185546875,6.206769066512584,7.458530292060971,8.954905745136736
1772045497922551000,0.880551025390625,6.711620038112998,7.248067924982309,11.602529208654165
1772045497932537000,0.890537109375,6.146603643885254,6.878754135596751,13.431765912508963
1772045497942523100,0.900523193359375,5.021808756083249,6.570281476143002,14.500370126533507
1772045497952509200,0.91050927734375,4.1705964161396025,6.258021699365973,14.935235707759857
1772045497962495000,0.920494873046875,4.174132189050317,6.046496671491861,14.983419016170501
1772045497972481300,0.930481201171875,5.030416425430775,5.367314968901872,15.1475808198452
1772045497982467000,0.940467041015625,6.435828582033515,4.532860579274595,15.343332524526119
1772045497992453000,0.950453125,7.4246636782944195,3.7293212601318952,15.370007765483855
1772045498002439200,0.960439208984375,7.486087576550245,2.9481793584972618,15.231979935497044
1772045498012425200,0.97042529296875,6.746749219161272,2.034416600485891,14.747444022172688
1772045498022411000,0.980410888671875,5.68961157104671,1.342382138324529,13.836396514469385
1772045498032397000,0.99039697265625,4.427019154882431,0.8506163468118757,12.78549279230833
1772045498042382800,1.0003828125,3.3073078539550305,0.32049758989885446,12.432491839820146
1772045498052369200,1.010369140625,2.888496750950813,0.024596133128739893,12.560858692014216
1772045498062355000,1.02035498046875,2.993210924878716,-0.11853643611855805,12.791024707472324
1772045498072341000,1.030341064453125,3.045243309932947,-0.36837932154703884,13.003515950030089
1772045498082327000,1.0403271484375,3.1294618083208796,-0.6025684915740043,13.07462537599802
1772045498092313000,1.05031298828125,3.166870040217042,-0.8150249550793319,12.88549396623969
1772045498102299000,1.060298828125,3.12200155544281,-1.1312059969533235,12.478020249807834
1772045498112284000,1.070283935546875,3.060875178828835,-1.4012372090056537,11.569603090608119
1772045498122270200,1.080270263671875,2.7979005342245102,-1.706363919032365,10.032155037909746
1772045498132256000,1.090256103515625,2.2232523882985116,-2.2570520743086933,8.647579333108663
1772045498142242000,1.100241943359375,1.5674270113766193,-2.4274283685840663,7.664926140353083
1772045498152228000,1.11022802734375,0.9829296716094016,-2.629749368652701,7.009672425839304
1772045498162214100,1.120214111328125,0.6902466288965196,-2.4312403280876573,7.003131625893712
1772045498172200000,1.130199951171875,1.1848930173467844,-1.7966634908996522,6.185279119238257
1772045498182186200,1.140186279296875,1.982428785225749,-1.5543004032999277,4.917449386942386
1772045498192172000,1.150172119140625,2.9145032988667485,-0.5494118517301977,2.7628070090115067
1772045498202158000,1.160157958984375,3.3820383930295703,0.9250256180427968,-0.8878460803359747
1772045498212144000,1.17014404296875,3.3576568159669637,2.7729677530199286,-6.176995275017619
1772045498222130200,1.180130126953125,3.4380613090246914,5.79216769015789,-11.613100871551037
1772045498232116000,1.190115966796875,3.920080271092057,9.164884128090739,-16.506753203320503
1772045498242102300,1.200102294921875,4.0275907977402206,12.179264097726344,-20.745867275369164
1772045498252088000,1.210088134765625,2.5827941407322883,14.440287121492624,-24.217237564277646
1772045498262074000,1.22007421875,-0.3858253637254238,14.536237558728455,-26.620022343862054
1772045498272060000,1.230059814453125,-3.454315109211206,11.074434724110365,-27.509456570172308
1772045498282046000,1.2400458984375,-5.84823035364151,5.4621793644666665,-26.782016740369794
1772045498292032000,1.250031982421875,-6.421541113483905,1.9837945206210017,-25.175203475022315
1772045498302018000,1.26001806640625,-4.897787239617109,2.107346373748779,-22.823295480716226
1772045498312004000,1.270004150390625,-2.9475463212907314,3.561251050841808,-19.597824198448656
1772045498321990000,1.279989990234375,-1.3932663762569426,4.982637021645903,-15.99194139419794
1772045498331976000,1.289975830078125,-0.20926354921553283,6.1674506170809265,-12.386128732573985
1772045498341962000,1.2999619140625,0.7372737530093639,6.974849534261226,-9.211343096926807
1772045498351948000,1.309947998046875,1.7160709279239177,7.372632462283969,-6.640781245779991
1772045498361933800,1.319933837890625,2.6357915714263913,7.14754126587212,-4.6098745531111955
1772045498371920100,1.329920166015625,3.1597745289981365,6.236405495363473,-2.9930946050226686
1772045498381906000,1.339906005859375,3.1039678861021995,4.761454230849445,-1.7701994084745645
1772045498391892000,1.34989208984375,2.4993127244472504,2.9171307247608897,-0.8732254343092442
1772045498401877000,1.359876953125,1.563199749070406,1.174026828482747,0.014421908584237099
1772045498411864000,1.369864013671875,0.4543009340584278,-0.19953823748230934,1.0089017327338456
1772045498421849000,1.37984912109375,-0.5651473271310329,-1.2327601724803448,2.1186919436275957
1772045498431835000,1.3898349609375,-1.4095077553533018,-1.9508534972667693,3.4812867027670142
1772045498441821200,1.3998212890625,-2.077926217997074,-2.235765832912922,5.080493000242114
1772045498451807000,1.409806884765625,-2.869919476252794,-2.26304517724365,6.601774931037426
1772045498461793000,1.41979296875,-4.123642941784858,-2.3681761152788994,7.829365007403492
1772045498471779000,1.429779052734375,-5.496127226775885,-2.8461270972549912,8.63240456033051
1772045498481765000,1.43976513671875,-6.672373484873772,-3.44640974291414,8.796697881430386
1772045498491751000,1.4497509765625,-7.260252868294716,-4.196396335567534,8.796551750957965
1772045498501737200,1.4597373046875,-6.805186210560798,-5.108234993648529,8.77707255898416
1772045498511723000,1.469722900390625,-5.281389666596055,-5.936661501288413,8.636301567769051
1772045498521709000,1.479708984375,-3.639444882112741,-6.654722092849016,8.572273039972782
1772045498531695000,1.489695068359375,-2.3535621912539004,-7.255159929069876,8.713277255421877
1772045498541681200,1.49968115234375,-1.48505282568112,-7.429302444010973,8.7993212156713
1772045498551667000,1.5096669921875,-1.0870587391257285,-7.366237792810797,8.857433212900162
1772045498561653200,1.5196533203125,-1.1513995477415622,-7.18556967549324,8.88279970934689
1772045498571639000,1.52963916015625,-1.4501966163553297,-6.9527043379485605,8.809125985848903
1772045498581625000,1.539625,-1.7932522211514412,-6.690548608511686,8.693571268954873
1772045498591611100,1.549611083984375,-2.0572354582764207,-6.370623996195197,8.445448156523703
1772045498601597200,1.55959716796875,-2.3071042453311383,-6.163540165638923,8.040038386884332
1772045498611583000,1.5695830078125,-2.594926477074623,-6.138506262147426,7.6629112933993335
1772045498621569000,1.579569091796875,-2.958377511906624,-6.0963897064298385,7.257175945067405
1772045498631555000,1.58955517578125,-3.3362790968954563,-6.1687418259352444,6.8756532469719644
1772045498641541000,1.599541015625,-3.6753146523952482,-6.299641411477327,6.465539245164394
1772045498651527000,1.60952685546875,-3.891899886268377,-6.462874409869313,6.012490356993675
1772045498661513200,1.61951318359375,-3.7977909852460026,-6.626690761107206,5.669554871445894
1772045498671499000,1.6294990234375,-3.4093069237053393,-6.6711997649192805,5.3375785868078465
1772045498681485000,1.639485107421875,-2.8716157587766644,-6.65273705651164,4.823481063434481
1772045498691471000,1.64947119140625,-2.2898832075476645,-6.275065773147344,3.7017782964289188
1772045498701457000,1.659456787109375,-1.6011984942056239,-5.134785146921873,1.8460270951360462
1772045498711443000,1.66944287109375,-0.5025720668829977,-2.9817542958408594,-0.6692781482130289
1772045498721429000,1.679428955078125,0.42563364250063895,0.706124946834147,-4.164463027951121
1772045498731415000,1.6894150390625,0.5298224773801863,5.276806430459022,-7.972935273948312
1772045498741400800,1.69940087890625,0.019029694640636443,9.887263751894235,-11.48129586160183
1772045498751387100,1.70938720703125,-0.6582010200120508,13.260508013093471,-14.833281061673164
1772045498761372200,1.7193720703125,-0.9119254595816135,15.086211866647004,-18.254478329658507
1772045498771358000,1.72935791015625,0.3831307178139686,16.114914278393982,-22.515217373538015
1772045498781344000,1.739343994140625,2.813150710326433,16.14519251227975,-26.776945428454873
1772045498791330000,1.749330078125,4.882365214079618,14.466845458072424,-28.22233011448383
1772045498801316000,1.759316162109375,5.173495693588256,11.817412314784526,-25.921111858451365
1772045498811302000,1.769302001953125,4.286994598120451,11.049707110089063,-22.095986583817005
1772045498821288200,1.7792880859375,3.1790392014384268,12.12671791793108,-18.34841099733114
1772045498831274000,1.78927392578125,1.7305694088757038,12.833313697147368,-14.637197348558901
1772045498841260000,1.799260009765625,0.29191154688373205,12.043297291922569,-11.135823551052809
1772045498851246000,1.80924609375,-0.6529753943182528,10.316484020709991,-8.63417507713437
1772045498861232000,1.819232177734375,-0.9576385054212063,8.310907584130764,-7.071297984147072
1772045498871218000,1.829218017578125,-0.7405670954663306,6.095009650248289,-5.652300369784236
1772045498881204200,1.839204345703125,-0.293030248715356,3.9376889930188654,-3.9361394254893063
1772045498891190000,1.84918994140625,-0.059532458486035465,2.1872908480793236,-1.8237626563578844
1772045498901176000,1.859176025390625,-0.1332078624844551,0.8095438202545047,0.6195242294847965
1772045498911162000,1.869162109375,-0.42974516947269437,-0.30708734257519243,2.9092385102063414
1772045498921148200,1.879148193359375,-0.7989269299764186,-1.093326275087893,4.722066515573859
1772045498931134000,1.889134033203125,-1.0855307989060878,-1.710681928361952,6.177353586935997
1772045498941120300,1.899120361328125,-1.2340157254993915,-2.150486719556153,7.327630121996998
1772045498951106000,1.90910595703125,-1.3425555951952934,-2.523177876420319,8.099524595075845
1772045498961092000,1.919092041015625,-1.42598323546648,-3.049661710897088,8.660041924318671
1772045498971078000,1.929077880859375,-1.4071464330494403,-3.4701918927788733,9.16023951715529
1772045498981064200,1.939064208984375,-1.3610861081421375,-3.711218324947357,9.609985272127389
1772045498991050000,1.949050048828125,-1.2793360456943512,-3.836138543818891,10.049393757480383
1772045499001036000,1.9590361328125,-0.9855098242957144,-3.807247380377352,10.744907001668214
1772045499011022000,1.96902197265625,-0.5840741459190845,-3.4697768822371957,11.985822423553467
1772045499021008100,1.979008056640625,-0.25138182196617126,-2.9674036989271637,13.623136041104793
1772045499030994200,1.988994140625,0.06828501619696617,-2.5386902105897664,15.157993492788076
1772045499040980200,1.998980224609375,0.32477197928242385,-2.3143657607667145,16.1715041806221
1772045499050966300,2.00896630859375,0.4466834447920322,-2.2166991672627625,16.5554719337821
1772045499060952000,2.0189521484375,0.3888753989458084,-2.302253444299102,16.263080056035516
1772045499070937000,2.02893701171875,0.15980930755361913,-2.509162795071304,15.351656116235255
1772045499080923400,2.03892333984375,-0.10830489189624785,-2.821469041338563,14.181119467955828
1772045499090909200,2.0489091796875,-0.41494039905071256,-3.218226717966795,12.950447207665443
1772045499100895200,2.058895263671875,-0.7272329090535641,-3.5138112542748448,11.843003852158784
1772045499110881300,2.06888134765625,-1.065754085290432,-3.65699690541625,11.077328107464313
1772045499120867300,2.078867431640625,-1.4677685134030878,-3.709474696150422,10.535779098063706
1772045499130853000,2.08885302734375,-1.856048722934723,-3.7716976358294483,10.080361727195978
1772045499140839400,2.09883935546875,-2.213122623950243,-3.8049958020582793,9.561391044828294
1772045499150825200,2.1088251953125,-2.6515292387843132,-3.7405426191091533,8.97798734551668
1772045499160811300,2.118811279296875,-2.8110066840350627,-3.718191086569428,8.492091249755024
1772045499170797300,2.12879736328125,-2.489322076308727,-3.688331370356679,7.953212336346507
1772045499180783400,2.138783447265625,-2.0639818637967107,-3.4824323656708,7.203465982189774
1772045499190769200,2.14876904296875,-1.8400737396895885,-3.0818910788506266,6.264708629783987
1772045499200755500,2.15875537109375,-1.7943593056105076,-2.3709851813502607,4.952490305185318
1772045499210741200,2.1687412109375,-2.022882960689068,-0.7315425889462233,3.4091561170578
1772045499220727300,2.178727294921875,-2.2845137894690035,2.0171929323539137,1.6126193212777375
1772045499230713000,2.188713134765625,-2.2193559653818604,4.996158766520023,-0.4407417797833681
1772045499240699400,2.198699462890625,-2.3464988287389277,8.129899859595298,-4.259142130076885
1772045499250685200,2.208685302734375,-2.657265736609697,10.56263086463213,-9.903098449885844
1772045499260671200,2.218671142578125,-3.2365117317199705,12.04280863162279,-16.014293511259556
1772045499270657300,2.2286572265625,-3.8790228690385815,11.551779849147795,-21.559311317932604
1772045499280643300,2.238643310546875,-3.555182544583082,9.937653045916557,-26.417581370675563
1772045499290629000,2.248629150390625,-2.4572446840465068,8.027241449153422,-30.02008563840389
1772045499300615400,2.258615478515625,-1.4439999536722898,6.1670303458422415,-31.029886950325963
1772045499310601200,2.268601318359375,-0.9456482809633016,6.0286319289773695,-28.752245969235894
1772045499320587300,2.278587158203125,-0.820627305131033,8.03004364709258,-24.813802942979333
1772045499330573300,2.2885732421875,-1.2488947302013635,10.302411071693896,-20.78692409290075
1772045499340559400,2.298559326171875,-2.0562293499737976,11.712448550009727,-17.55860501998663
1772045499350544100,2.308544189453125,-2.628792506319284,11.54776301472187,-15.060047497820854
1772045499360530200,2.3185302734375,-2.3526555978029964,9.855721781682968,-12.679123836910724
1772045499370516200,2.32851611328125,-1.0078665444672108,7.8997391048341985,-10.078806898969411
1772045499380502300,2.338502197265625,0.4525275677103549,6.263277720198035,-6.964231694135069
1772045499390488000,2.348488037109375,1.2384892176516353,4.33942153545022,-3.412057683718204
1772045499400474400,2.358474365234375,1.4784639488101006,2.313662434802949,-0.13847615827620027
1772045499410460200,2.368460205078125,1.4838357049763202,0.39069150845706463,2.633043149501085
1772045499420446200,2.3784462890625,1.4346516950905321,-1.1995406244456768,4.875340430009365
1772045499430432300,2.388432373046875,1.2123678111843763,-2.2677251517534254,6.59609630087912
1772045499440418300,2.398418212890625,0.6707290776737034,-3.0619787561565635,8.01374425419867
1772045499450404000,2.408404052734375,0.26683599620759485,-3.5717581240698695,9.133635587868094
1772045499460390400,2.418390380859375,0.1130598313383758,-3.7664421995192763,9.965034389317035
1772045499470376200,2.428376220703125,0.047977410575002426,-3.8454137371644377,10.554344682323933
1772045499480362200,2.4383623046875,0.18263664091154933,-3.9676580148249863,10.809151802563667
1772045499490348300,2.448348388671875,0.6521317831009626,-3.9459599777579304,11.155317356073855
1772045499500334300,2.458334228515625,1.225945231768489,-3.8335730772450565,11.723131272065638
1772045499510320000,2.468320068359375,1.672753764244914,-3.6788235372990368,12.279930457568168
1772045499520306400,2.478306396484375,1.9234423432499168,-3.5441841807067394,12.669155400604009
1772045499530292200,2.488292236328125,1.8812603210806846,-3.6888320133551953,12.711449066454172
1772045499540278300,2.4982783203125,1.648920468714833,-4.0882314366638655,12.459653402990101
1772045499550264000,2.50826416015625,1.3702175091028213,-4.565995371635258,11.778286757576465
1772045499560250400,2.51825048828125,1.0192898557573555,-4.977203890681267,10.832538523370028
1772045499570236200,2.528236083984375,0.6117676240086555,-5.318291118013859,9.737149762794376
1772045499580222200,2.53822216796875,0.23535072461962697,-5.785930841594934,8.618089034730195
1772045499590207200,2.548207275390625,-0.052336920958757395,-6.270237037816643,7.704289013448357
1772045499600193300,2.558193359375,-0.35547702374551443,-6.533512126672267,7.111945051833986
1772045499610179000,2.568178955078125,-0.7832780368804931,-6.6330491902232165,6.9034788270086045
1772045499620165400,2.578165283203125,-1.1702888109982013,-6.574267330908775,7.028081358233094
1772045499630151200,2.588151123046875,-1.425547182136774,-6.395512353736162,7.284212420552969
1772045499640137200,2.59813720703125,-1.5136322928249835,-6.2142234741717575,7.401062437954544
1772045499650123300,2.608123291015625,-1.401594644141197,-6.046842708450556,7.254433368360996
1772045499660109300,2.618109375,-1.207339242432639,-5.878585744416713,6.729840169936418
1772045499670095000,2.62809521484375,-1.0500444749832152,-5.769727310290932,6.114072078114748
1772045499680081200,2.6380810546875,-1.1430957567114381,-5.575051125887036,5.691191533714533
1772045499690067200,2.648067138671875,-1.464747558146715,-5.043149650275707,5.341355767259001
1772045499700053200,2.65805322265625,-1.7560697608351707,-4.393881147651374,4.864342650654912
1772045499710039000,2.6680390625,-1.967415340489149,-3.0605542763113975,3.7217227678269147
1772045499720025300,2.678025390625,-2.0756348921895027,-0.6474611609414219,1.3764426672279835
1772045499730011100,2.68801123046875,-1.8527321457326411,2.789064609079063,-1.9674539189338682
1772045499739997200,2.6979970703125,-1.4989153468169272,6.652572221338748,-5.8045829350948335
1772045499749983200,2.707983154296875,-1.6900304777383803,9.508563125482201,-9.709950205701588
1772045499759969300,2.71796923828125,-2.5090906066179275,11.17155186703801,-14.094459421634673
1772045499769955000,2.727955078125,-3.8573335997998712,12.018110243695974,-18.36711569780111
1772045499779941400,2.73794140625,-4.618149629503488,11.671167276072502,-22.143213614416123
1772045499789927200,2.74792724609375,-3.7035973285496233,10.346970344388485,-25.08597036334276
1772045499799912200,2.757912109375,-1.7652552300706505,7.991720053917169,-26.20240015838146
1772045499809898200,2.767898193359375,-0.007615224244073033,6.681535280972719,-25.41568747087717
1772045499819884300,2.77788427734375,0.6932230143588036,7.628626161959767,-22.650314410769937
1772045499829870300,2.787870361328125,0.5860813940882682,9.28258404031992,-18.81718235529065
1772045499839856000,2.797856201171875,0.3167266199927777,10.98214573199153,-15.50731663354635
1772045499849842400,2.807842529296875,0.010798676585778594,11.509313164818286,-12.839535348141192
1772045499859828200,2.817828125,-0.4518086057860404,10.30078259370923,-10.423884072721004
1772045499869814300,2.827814208984375,-0.7655273491997271,8.625269301623106,-8.169040614372491
1772045499879800300,2.83780029296875,-0.5075603036243468,6.870151726946235,-5.677411430165171
1772045499889786400,2.847786376953125,-0.005616159381344914,4.9138615915834905,-3.0052567519813773
1772045499899772200,2.857772216796875,0.16312135471105574,2.9369445555165408,-0.7041980704247951
1772045499909758200,2.86775830078125,-0.2573146460812539,1.08976945938915,0.9195166453629732
1772045499919744300,2.877744140625,-0.999514968772605,-0.5147165320545435,2.1639637485057115
1772045499929730300,2.887730224609375,-1.6726409515202045,-1.8937790263921022,3.298964388501644
1772045499939716400,2.89771630859375,-2.0534861887454987,-2.949909835551679,4.3705993485242125
1772045499949702100,2.9077021484375,-2.1380476553522048,-3.586251344324648,5.43498156093955
1772045499959688200,2.917688232421875,-2.0719583956338465,-4.051432276576757,6.541363424694538
1772045499969674200,2.92767431640625,-1.9243699794888496,-4.629198262262344,7.683118215125798
1772045499979660300,2.937660400390625,-1.711948879557848,-4.9920168444097035,8.58755127312541
1772045499989646000,2.94764599609375,-1.403401985824108,-5.093632467800378,9.23200243859589
1772045499999631000,2.957631103515625,-0.9440893610835075,-4.908877957952022,9.963956530952453
1772045500009617400,2.967617431640625,-0.3795815008997917,-4.3068879238530995,11.010161866164207
1772045500019603200,2.977603271484375,0.13631983875883744,-3.611591245025396,12.201692202633618
1772045500029589200,2.98758935546875,0.3736591251134872,-3.195092802877724,13.033947328650951
1772045500039575000,2.997574951171875,0.3871452141523361,-3.1623326890483496,13.314586809283494
1772045500049561300,3.007561279296875,0.4726701189637184,-3.4470670377790924,12.729551709377764
1772045500059547100,3.017547119140625,0.7097966210842133,-3.9385929561212656,11.392081454622744
1772045500069533200,3.027533203125,0.9572375964701175,-4.550070949533581,9.778857737711071
1772045500079519200,3.037519287109375,1.0505939255595207,-5.146062912261486,8.44066442937851
1772045500089505300,3.04750537109375,0.9394622858047484,-5.551518859130144,7.484125336566567
1772045500099491000,3.057490966796875,0.5779027638077735,-5.784253263771534,7.125323004323244
1772045500109477000,3.06747705078125,-0.017476053724158554,-5.913734799209236,7.308219903606176
1772045500119463200,3.077463134765625,-0.49601241610646246,-5.852682072353363,7.531843950074911
1772045500129449200,3.08744921875,-0.6495207238197326,-5.837154832875728,7.588445542740821
1772045500139435000,3.09743505859375,-0.506584079003334,-5.919331596302986,7.466318461719155
1772045500149421300,3.10742138671875,-0.31786884883046146,-5.9480164235174655,7.255220719346403
1772045500159407000,3.117406982421875,-0.2326139931321144,-5.9857595864564175,6.9705106282740825
1772045500169393200,3.12739306640625,-0.2225052715718746,-5.965777705657482,6.631193333223462
1772045500179379200,3.137379150390625,-0.36001053898930546,-5.641385592538118,6.17611556957364
1772045500189365200,3.147365234375,-0.8932453090310096,-5.060796366125345,5.579525640952586
1772045500199351000,3.15735107421875,-1.7408417965650558,-4.1159512182384725,4.805772388264536
1772045500209336000,3.167336181640625,-2.118002207797766,-2.554687113405764,3.944250835752487
1772045500219322000,3.177322021484375,-1.658094539773464,-0.18402151939868927,2.470031100383401
1772045500229308200,3.18730810546875,-0.5046691852927208,3.003659545917809,-0.33457682252526283
1772045500239294000,3.1972939453125,0.3124661130040884,6.395764867192506,-4.433164818030596
1772045500249280300,3.2072802734375,-0.371705068436265,9.4749203835994,-9.394715797027946
1772045500259266000,3.21726611328125,-3.423634724265337,10.820355918145179,-14.410747723275422
1772045500269252000,3.227252197265625,-7.6974530299484725,8.782720794004202,-19.29860042885542
1772045500279238100,3.237238037109375,-9.945618910229205,6.50625937808752,-24.910574048948288
1772045500289224200,3.24722412109375,-8.340042493200302,5.34234653186202,-28.723730653369426
1772045500299210000,3.2572099609375,-4.302812929499149,3.9142403128921983,-28.71888847403526
1772045500309196300,3.2671962890625,-1.6257985363245009,4.36910268022567,-25.69417006573677
1772045500319182000,3.27718212890625,-2.1733172677844763,6.358945833361148,-22.13077498860359
1772045500329168100,3.287168212890625,-3.7084067746579645,8.485598965126275,-19.774981092774865
1772045500339154200,3.297154296875,-4.27453785212934,10.448073926603794,-18.670429951578377
1772045500349140200,3.30714013671875,-3.923130890834331,10.976875682634114,-16.89143173509836
1772045500359126000,3.3171259765625,-3.74882997046113,10.173965893566608,-14.03424431464672
1772045500369112300,3.3271123046875,-3.702921036723256,8.870041934582591,-10.465469298040865
1772045500379098000,3.33709814453125,-3.4353345144093033,7.312279992651939,-6.897384601786732
1772045500389084200,3.347084228515625,-2.9546289730280635,5.870750813007354,-3.7812943162143227
1772045500399070200,3.3570703125,-2.8196295509517193,4.906600076147914,-1.1305728866815565
1772045500409056300,3.36705615234375,-3.122670833006501,4.231023120051622,1.4445622637301683
1772045500419042000,3.3770419921875,-3.6566602208077907,3.6050209267243742,4.014346116241812
1772045500429027000,3.387027099609375,-4.048752828234434,2.967232141752541,6.413311045277118
1772045500439013000,3.39701318359375,-4.1677924646347755,2.470910805827379,8.384609949201344
1772045500448999200,3.406999267578125,-4.110069758984446,2.0527470608159897,10.276107586658
1772045500458985200,3.416985107421875,-3.62482540512979,1.7059895327620207,12.111188340365885
1772045500468971300,3.42697119140625,-2.8002526503086087,1.3286365215666591,13.48501936379075
1772045500478957000,3.43695703125,-1.8130173904597757,0.8622016437307,14.211555522751807
1772045500488943000,3.446943115234375,-0.5791430461924523,0.4515815920971334,14.281331069767475
1772045500498929200,3.45692919921875,0.8849832382507622,0.1719774458616972,14.33428641488552
1772045500508915200,3.466915283203125,2.0172300494939086,0.06384849505424499,14.571287829321623
1772045500518901000,3.47690087890625,2.544645904123783,0.09229264538064598,14.677468568670749
1772045500528887300,3.48688720703125,2.674242005851865,0.10164777209460735,14.720220499682426
1772045500538873000,3.496873046875,2.414987696944922,0.0802200764015317,14.690587577962875
1772045500548859100,3.506859130859375,1.9758838936269283,-0.09226853385269641,14.44635328966379
1772045500558845000,3.516844970703125,1.4510387662678956,-0.45003085552379485,13.87333245267868
1772045500568831200,3.526831298828125,1.0080390514899045,-0.8865601321786641,12.922435749667882
1772045500578817000,3.536817138671875,0.6832002905815839,-1.476890708144009,11.580704330337047
1772045500588803000,3.546802978515625,0.4589321009904146,-2.090369519984722,10.17245198187232
1772045500598789000,3.5567890625,0.23670389279425144,-2.674265678988397,8.97558203794062
1772045500608775200,3.566775146484375,0.0763484956651926,-3.23515096476078,8.290218431845307
1772045500618761000,3.576760986328125,-0.10017945310771464,-3.690149233433604,8.22208539133966
1772045500628747300,3.586747314453125,-0.3189683345049619,-4.161174507799744,8.579522280448675
1772045500638733000,3.596733154296875,-0.7168617371648549,-4.735294538198411,9.015333618092537
1772045500648719000,3.606718994140625,-1.2484896565318107,-5.447039078480005,9.230616537195443
1772045500658705200,3.616705078125,-1.66162680555284,-6.197835818472504,9.330649859830736
1772045500668690200,3.626690185546875,-1.7993676352918146,-6.441378032854199,8.864906325259804
1772045500678676200,3.63667626953125,-1.8691338299572466,-6.253773978793621,8.084772431623936
1772045500688662000,3.646662109375,-2.6563854466438293,-6.187858029815554,6.814859463313222
1772045500698648300,3.6566484375,-3.905925489011407,-6.072852763497829,4.606315983846783
1772045500708634000,3.666634033203125,-4.778900747951865,-5.042478619146347,1.363996442630887
1772045500718620200,3.6766201171875,-4.788152560421824,-1.9333138950534163,-2.4709663354068994
1772045500728606200,3.686606201171875,-4.311284405246377,2.559015205737948,-7.039672427305579
1772045500738592300,3.69659228515625,-4.85226058319509,6.83526453796029,-12.68761577092409
1772045500748578000,3.706578125,-6.794038793602585,9.172622613388299,-17.786355790996552
1772045500758564400,3.716564453125,-9.448594102209805,9.36294527875781,-23.662928442025184
1772045500768550100,3.726550048828125,-11.371700345373153,9.277743614551424,-30.465612898898122
1772045500778536200,3.7365361328125,-11.677876418322324,8.727914852583408,-35.00216911782026
1772045500788522200,3.746522216796875,-9.874386734664439,8.006612502622604,-35.45465920306444
1772045500798508300,3.75650830078125,-7.749756048637628,8.245031967163085,-30.73997812156677
1772045500808494000,3.766494140625,-5.618423234623671,9.722385324382781,-24.00333528587818
1772045500818480000,3.776480224609375,-2.6180571772933003,12.375310401439666,-18.650316553354262
1772045500828466200,3.786466064453125,-0.48238304613940414,14.184001160871981,-14.770358449292182
1772045500838452200,3.7964521484375,-0.8658761675249784,13.901172061240672,-11.981230419588089
1772045500848438300,3.806438232421875,-2.585456053417921,12.242474294877052,-10.538686509943007
1772045500858424000,3.816424072265625,-3.97210856449306,10.218667789602279,-10.122303510868548
1772045500868410000,3.82641015625,-3.9394700312167403,8.507797352930902,-9.448526297670602
1772045500878396200,3.836396240234375,-3.2819138849794864,7.275003862702846,-7.702200516736507
1772045500888382200,3.84638232421875,-2.974149081534147,6.083439623963833,-4.928989602610469
1772045500898368000,3.856367919921875,-3.1515415381819007,4.863624565513431,-1.915344376990199
1772045500908354000,3.86635400390625,-3.3361978483527897,3.814791219885647,0.7015607076585293
1772045500918340000,3.876340087890625,-3.196995713889599,2.9128008788630364,2.844460625347495
1772045500928326100,3.886326171875,-2.8108669833034274,2.0994367696680127,4.583629520264267
1772045500938312000,3.89631201171875,-2.620692786493897,1.4931044685810804,5.648181828549504
1772045500948298200,3.90629833984375,-2.2867731127031146,1.299892219249904,6.355730962967872
1772045500958283300,3.916283203125,-1.2575709347404538,1.492211611394584,7.595966001373529
1772045500968269000,3.92626904296875,0.1278390289276838,1.940270143932104,9.373304175686835
1772045500978255400,3.93625537109375,1.3059563415944575,2.2741867489829657,11.311106468200682
1772045500988241200,3.9462412109375,1.9724439823061226,2.4134280464127658,12.843231864571571
1772045500998227200,3.956227294921875,2.0947779840767384,2.4468415095843374,13.68533852251768
1772045501008213000,3.966212890625,2.025780435696244,2.4604247753873465,14.126052829772233
1772045501018199300,3.97619921875,2.096812704774737,2.616782042790949,15.055510438913107
1772045501028185000,3.98618505859375,2.1641794370830056,2.9675571359232067,16.640351526427267
1772045501038171100,3.996171142578125,2.121987478041649,3.329429084870219,18.48118397552967
1772045501048157000,4.006156982421875,2.039035054066777,3.704640700122714,20.13900495905876
1772045501058143200,4.016143310546875,1.6310077954053879,3.989201153591275,21.509348724889755
1772045501068129000,4.02612890625,1.0557581033896655,4.013340446330607,22.24983742135763
1772045501078115000,4.036114990234375,0.2152560310959816,3.721011989209056,21.775537655365465
1772045501088101000,4.04610107421875,-0.6806984638284892,3.092079003126919,19.907606771457193
1772045501098087200,4.056087158203125,-1.43883336468935,2.3058590675756334,17.334266687768697
1772045501108073000,4.066072998046875,-2.052550953722,1.4413973699584604,14.471982236438988
1772045501118059000,4.07605908203125,-2.3443115478277203,0.593653217582032,12.132412330180406
1772045501128045000,4.086045166015625,-2.224469362872839,-0.00597264466881752,10.855070673173666
1772045501138031000,4.096031005859375,-1.8302374053299426,-0.2330953469082713,10.725103400045633
1772045501148017000,4.106016845703125,-1.2490449523270128,-0.14930038942834362,11.271140368515253
1772045501158003200,4.116003173828125,-0.9842050983726978,0.0991834917397704,11.949537642729283
1772045501167989000,4.125989013671875,-0.8134580710887909,0.13324823102746158,11.94407820827961
1772045501177975000,4.13597509765625,-0.34212942986190314,-0.19357843402875585,11.081950506567955
1772045501187961000,4.145961181640625,0.051883331972360607,-0.48453313684538,9.121764532810449
1772045501197947100,4.155947021484375,0.13668052529739216,-1.0582798038870096,6.770339353585243
1772045501207933000,4.165932861328125,-0.2531944060797803,-1.110800410849601,3.892812324938178
1772045501217919200,4.175919189453125,-1.4624299288541078,-0.5460780311323702,0.9874415960758924
1772045501227905000,4.185905029296875,-3.1226269938647744,1.1668675313126295,-1.2043114921092986
1772045501237891000,4.19589111328125,-4.426374427238106,4.511367709390819,-3.8352813424676655
1772045501247877000,4.205877197265625,-5.4187745225042105,8.419062838423251,-7.830874242922663
1772045501257863200,4.21586328125,-6.41519145219624,10.933347506552934,-13.710690405917166
1772045501267849000,4.225848876953125,-7.909910954758525,11.16728368819952,-21.05420023409128
1772045501277835000,4.2358349609375,-9.850707752913236,10.002688120406866,-29.26214311830997
1772045501287821000,4.245821044921875,-11.372189005672931,8.010337076103687,-37.445187708115576
1772045501297807000,4.25580712890625,-11.728936743474007,5.7974453382998705,-41.88714256632328
1772045501307793200,4.265793212890625,-10.459032542991638,5.515581284308433,-40.01000896978378
1772045501317779000,4.275779052734375,-8.346869708871841,7.0975780883073805,-33.249129518461224
1772045501327765000,4.285764892578125,-5.929893906849623,9.333903893190621,-26.331565467476842
1772045501337750800,4.295750732421875,-3.7695752368479964,11.19859652583003,-21.61269219498634
1772045501347737000,4.305737060546875,-2.7367536993443964,11.490166565799713,-18.476491433799264
1772045501357723000,4.315722900390625,-3.355725555643439,9.79816391120553,-15.450712702792883
1772045501367709000,4.325708984375,-4.407668557724357,7.492806655672192,-12.35730712723732
1772045501377695000,4.335695068359375,-4.339467128157615,5.775679496693611,-9.801709036466479
1772045501387680000,4.345679931640625,-3.5729666230767965,4.399444334736466,-7.618169649875163
1772045501397666000,4.355666015625,-2.8363381091684103,3.0622686790138482,-5.687607245486975
1772045501407652000,4.365652099609375,-2.232886916475743,2.100474734413624,-3.5952760700404642
1772045501417638100,4.37563818359375,-1.8937198435507714,1.463635359121114,-0.9052443743824958
1772045501427624000,4.3856240234375,-1.864659753283113,1.102816134097427,1.861083794492483
1772045501437610200,4.3956103515625,-1.6204016457170247,0.8279409160800277,4.364063224753737
1772045501447596000,4.405595947265625,-1.02740871867463,0.641030543372035,6.280618146577477
1772045501457582000,4.41558203125,-0.2113325740419328,0.4159147970408201,7.633503997129202
1772045501467567900,4.42556787109375,0.6167543263800442,0.22664719368219374,8.414726855045556
1772045501477554200,4.43555419921875,1.1574737530887127,0.1973494952663779,8.97793473854661
1772045501487540000,4.4455400390625,1.1795330977488308,0.4460898628130555,9.456069552657008
1772045501497526000,4.455526123046875,0.9106208797890692,0.7417536018371581,9.995534741520881
1772045501507512000,4.465511962890625,0.900711991649866,0.9879910466521978,11.279888323116301
1772045501517498000,4.475498046875,1.552520534145832,1.5605620940431952,13.237678926169872
1772045501527484000,4.48548388671875,2.7639251993864775,2.578341545237601,15.74917308679819
1772045501537470200,4.49547021484375,3.9416111348986624,3.2924913930952546,18.454060990804432
1772045501547456000,4.5054560546875,4.41323846681118,3.326645007109642,20.595413679051397
1772045501557442000,4.515442138671875,4.019313967782259,2.935409893295169,21.495009233891963
1772045501567428000,4.525427978515625,2.8167694853454828,2.3214297078035773,20.82924815388918
1772045501577414100,4.5354140625,1.1540087073266505,1.4716927011094987,19.191312605047226
1772045501587400000,4.54539990234375,-0.34499241807758807,0.6471585247330367,17.176839745306967
1772045501597386200,4.55538623046875,-1.0916583418756722,-0.07614358421023934,15.462107372510433
1772045501607372000,4.5653720703125,-1.0831260758519172,-0.6828619254726916,14.015479992944002
1772045501617358000,4.575358154296875,-0.6493179677892476,-1.2442992191046476,13.060124556958675
1772045501627344100,4.58534423828125,-0.030682686500810085,-1.6561792076714337,12.436328641504048
1772045501637330200,4.595330078125,0.37858898273110386,-1.9027926461920142,11.795541843760013
1772045501647316000,4.60531591796875,0.4805027122855186,-2.16000332044214,11.18169799799919
1772045501657302000,4.615302001953125,0.26487496180031445,-2.338892737649381,10.57859532648325
1772045501667288000,4.6252880859375,-0.21132636349685488,-2.4373256393507123,9.68479179904759
1772045501677274000,4.635274169921875,-0.5857289273887872,-2.4117915312521157,8.683370192936062
1772045501687260000,4.645260009765625,-0.9910842634271829,-2.354249881257117,7.435584300759435
1772045501697246000,4.655245849609375,-1.5643600250214338,-2.294104624634981,5.894269635760784
1772045501707232000,4.66523193359375,-1.9980343506366014,-2.090043502900749,4.367933928707242
1772045501717218000,4.675218017578125,-2.225386477717757,-1.8493673454746602,3.2068881623506544
1772045501727204000,4.6852041015625,-1.7684131095796822,-1.0244578329797833,1.8990128353923559
1772045501737190000,4.69518994140625,-0.9598007249563932,0.6842934926457702,-0.34962826118469237
1772045501747176000,4.705176025390625,-0.7159639115422963,3.307627295167744,-2.993662760299444
1772045501757162000,4.715161865234375,-2.583254743981361,5.017301507791877,-5.056913971734047
1772045501767148000,4.72514794921875,-7.801412586116791,4.357557496121525,-8.702468276637791
1772045501777133800,4.7351337890625,-15.757031399083136,2.925670589569211,-15.842710617673395
1772045501787120000,4.7451201171875,-23.39163079023361,4.5682329214289785,-26.234745261669158
1772045501797106000,4.75510595703125,-27.648596160793304,6.575913929072022,-35.135348923254014
1772045501807092000,4.765092041015625,-26.83755099606514,7.704632127797603,-40.736013213825224
1772045501817078000,4.775078125,-20.88920139507055,8.812409829825162,-40.464645419406885
1772045501827064000,4.78506396484375,-12.783879511892795,9.588262685140966,-34.85927222049236
1772045501837049900,4.7950498046875,-5.752643489021063,9.537796234229207,-28.111563216388223
1772045501847036200,4.8050361328125,-1.549481458710879,8.438124681767821,-22.567305288171767
1772045501857022000,4.81502197265625,-0.7177431961745023,7.150534017947316,-19.12957306497097
1772045501867008000,4.825008056640625,-2.7251643838375803,6.400463254141807,-17.425897508239746
1772045501876994000,4.834994140625,-5.659680543163418,6.1278241246134035,-15.513243685507774
1772045501886980000,4.84497998046875,-7.355310156083107,6.402016328802705,-12.968636359828709
1772045501896966000,4.8549658203125,-7.0042615067064755,6.809305920839309,-9.923947176647186
1772045501906952200,4.8649521484375,-5.212165323722362,7.148135140112042,-6.416274571257829
1772045501916938000,4.87493798828125,-2.9771508936986324,7.373927178269624,-2.7450772910535335
1772045501926923000,4.884923095703125,-0.8068592573456466,7.407795545601845,0.6226555132478475
1772045501936909000,4.894908935546875,1.357744981020689,7.3892369756042955,3.3872155034065243
1772045501946895000,4.90489501953125,3.423416113078594,7.279331078252196,5.509244482502341
1772045501956881200,4.914881103515625,4.959101247757673,7.232284664916992,7.210158757826686
1772045501966867000,4.924866943359375,5.913679269629717,7.047821831491589,8.810983596414328
1772045501976853200,4.934853271484375,6.314716231012344,6.655028382319212,10.165347702825068
1772045501986839000,4.944839111328125,6.416069988596439,6.233389362412691,11.312633239376543
1772045501996825000,4.9548251953125,6.695030722361802,5.6589183266192675,12.55130292816162
1772045502006811100,4.96481103515625,7.568861721348762,5.014399356609583,14.120573521578311
1772045502016797200,4.974797119140625,8.72587837831974,4.596187388542294,15.902767903751133
1772045502026783200,4.984783203125,9.469233570134639,4.345120331613719,17.543363027191162
1772045502036769000,4.99476904296875,9.31197555449903,4.19005398080349,18.56434974999428
1772045502046755000,5.004755126953125,8.35276578117311,3.9811625163033604,18.960274482929705
1772045502056741000,5.0147412109375,7.025573174804449,3.640965808069706,18.737873256254193
1772045502066727200,5.02472705078125,5.631687205344438,3.293400909155607,18.097171798706054
1772045502076713000,5.034712890625,4.4003146878302095,2.9959464873224495,17.391766106057165
1772045502086699000,5.044698974609375,3.5150872655600307,2.6793057189822194,16.79946773715019
1772045502096685000,5.05468505859375,3.166974669635296,2.286802777189016,16.16244409133196
1772045502106671000,5.064671142578125,3.2441064246326685,1.9054631805755198,15.469834751892089
1772045502116657000,5.074656982421875,3.485281909883022,1.4383518647827207,14.630512756228446
1772045502126643200,5.084643310546875,3.7061537350341673,0.8861025976695119,13.647508265817164
1772045502136629000,5.09462890625,3.880522752207517,0.2801720092512667,12.649324910974501
1772045502146615000,5.104614990234375,3.84648195091784,-0.2530385031320154,11.57223110102415
1772045502156601000,5.11460107421875,3.4732401744335886,-0.7394125916689633,10.412102449512481
1772045502166587100,5.124587158203125,2.8831548054009675,-1.1518595664687454,9.32715792606175
1772045502176573000,5.134572998046875,2.3382402650900183,-1.2613592211075126,8.428153907373547
1772045502186559200,5.144559326171875,1.98668366619125,-1.0846874799497426,7.838645461446046
1772045502196545000,5.154544921875,1.9460798531241714,-1.013903924935311,7.360527598470449
1772045502206531000,5.164531005859375,2.2577584690123795,-1.062101554132253,6.810244662994146
1772045502216517000,5.17451708984375,2.3892601121008394,-1.4866485704399643,6.043368310338258
1772045502226503200,5.184503173828125,2.3015528948143125,-2.085485985726863,4.737919333744049
1772045502236489000,5.194489013671875,1.8752514360547066,-3.058652242082357,3.0690380270183084
1772045502246475300,5.204475341796875,0.6318199396952986,-3.8391263274580236,0.3166916217446327
1772045502256461000,5.2144609375,-2.451906537888944,-3.768718327757716,-4.576960710024833
1772045502266447000,5.224447021484375,-7.30959294552505,-3.762713242124021,-10.83814759542346
1772045502276433200,5.23443310546875,-13.26901397563219,-2.3222294798791405,-18.1960740714848
1772045502286419200,5.244419189453125,-19.819152242934702,-0.6929997269969433,-24.13537644267082
1772045502296405000,5.254405029296875,-25.818238343954086,-0.6419168246872723,-26.979143240535258
1772045502306391000,5.26439111328125,-28.596830951118466,-0.4388651722565293,-28.05457934640646
1772045502316377000,5.274377197265625,-26.298109772598742,1.0406379103429615,-28.04189054522514
1772045502326363100,5.284363037109375,-21.04815627775192,2.1735214120544493,-25.735710867393017
1772045502336348200,5.29434814453125,-15.785547883993386,2.820924266937375,-22.11708314785957
1772045502346334200,5.304334228515625,-11.465410894727706,3.287606543663144,-18.41339112676382
1772045502356320300,5.3143203125,-8.313593462213873,3.5222704550623893,-14.82594180482626
1772045502366306000,5.32430615234375,-6.477979624542594,3.702870767840743,-12.157092013406753
1772045502376292400,5.334292236328125,-5.402314970612526,3.880080853658914,-10.410395645594596
1772045502386278100,5.344278076171875,-4.315184335294366,4.106582793651521,-9.127741269132494
1772045502396264200,5.35426416015625,-3.1563106522798536,4.275195146994292,-8.0571052570194
1772045502406250000,5.36425,-1.8412579810380933,4.451035405763983,-7.003543129304051
1772045502416236300,5.374236328125,-0.39270693993270395,4.6240968474701045,-5.722933994933962
1772045502426221000,5.384220947265625,1.1637030028671025,4.589593104843795,-4.19150827126503
1772045502436207000,5.39420703125,2.6299188800007105,4.472914060094952,-2.7402204986721275
1772045502446193200,5.404193115234375,3.855961142402887,4.4424154614567755,-1.5882126097738742
1772045502456179200,5.41417919921875,4.5213931365817785,4.393957427757978,-0.6851651609137653
1772045502466165000,5.4241650390625,4.782913490724563,4.413568721678852,-0.02034253080487251
1772045502476151300,5.4341513671875,4.84131307272315,4.576061130836606,0.3245382435917854
1772045502486137000,5.44413720703125,4.7471664700388905,4.657484445548057,0.3120180769756436
1772045502496123100,5.454123046875,4.783893149411678,4.650114793562889,0.06882365311831236
1772045502506109000,5.46410888671875,4.828039749652147,4.45470708001405,-0.01303892979323864
1772045502516095200,5.47409521484375,4.815105449277162,4.193478694555163,0.09236351865977048
1772045502526081000,5.4840810546875,4.956912797802686,4.4042336148396135,0.14551993930786847
1772045502536067000,5.494067138671875,5.562987178605795,4.240371963155269,-0.18388503353744745
1772045502546053000,5.50405322265625,5.766226608693599,3.5242987460196016,-0.08687968042120336
1772045502556039200,5.5140390625,5.521686615446209,2.57995628695786,1.0356951932437717
1772045502566025000,5.52402490234375,5.054365456295013,2.529379069148004,1.0935206286162138
1772045502576011300,5.53401123046875,4.237602498441935,2.6704300463482737,0.818776635763049
1772045502585997000,5.5439970703125,3.8793011014580725,2.803873763415217,0.38777079870477316
1772045502595983000,5.553983154296875,3.6057121238589285,2.6354443654239175,-0.0251004659216851
1772045502605969200,5.56396923828125,3.412499582266807,2.4181217571869493,-0.2737438028346747
1772045502615955200,5.573955078125,3.2263656007587906,2.451865621356666,-0.5111775442734361
1772045502625941000,5.58394091796875,3.1109973463475704,2.670288884311914,-0.8416344373244792
1772045502635927300,5.59392724609375,3.1374317642867564,2.7530703356340527,-1.2444357049658894
1772045502645913000,5.6039130859375,2.978363484358787,2.793577702589333,-1.721192654851824
1772045502655899100,5.613899169921875,2.7481033608764407,3.1031267591029406,-2.23928918473348
1772045502665885200,5.62388525390625,2.4608745649814603,3.7005972699508067,-2.524138245885074
1772045502675871200,5.633871337890625,2.159596785467863,4.140188710655272,-2.574155783985555
1772045502685857000,5.64385693359375,1.6063719513207673,3.8222315990194677,-2.172459335780889
1772045502695843300,5.65384326171875,0.8482815471887588,2.914598283673823,-1.3897184745170175
1772045502705829000,5.6638291015625,0.3291793473958969,2.1725170573174952,-0.7077428303595632
1772045502715815200,5.673815185546875,0.28334464793801306,1.8566478578716514,-0.31999727569390085
1772045502725801200,5.68380126953125,0.5311924505591392,1.708817303533852,0.018563830694556235
1772045502735786200,5.6937861328125,0.8280658576339482,1.449973475123942,0.3318180984016508
1772045502745772000,5.70377197265625,1.207108429351449,1.1231497509434818,0.4138208204362541
1772045502755758000,5.713758056640625,1.4979717823565006,0.7640197941809892,0.15157522075884045
1772045502765744000,5.723744140625,1.5610183133780955,0.3566872397854924,-0.33166685336269436
1772045502775730200,5.733730224609375,1.5410311718821526,0.04800736732184887,-0.8762614410042763
1772045502785716000,5.743716064453125,1.4479378776431082,-0.3821759013071656,-1.287636110397428
1772045502795702300,5.753702392578125,1.3271844230622052,-0.7976385706663132,-1.6528379344195125
1772045502805688000,5.76368798828125,1.1545026283234356,-1.0535688497170805,-2.1805464883856476
1772045502815674000,5.773674072265625,0.8471879067331552,-1.2129697226002811,-2.770286258850992
1772045502825660200,5.78366015625,0.6418675787180662,-1.1053992824584244,-3.081368516281247
1772045502835646200,5.793646240234375,0.7606096934765577,-0.9826701438903808,-2.969503009293973
1772045502845632000,5.803632080078125,1.0504337665617465,-1.0667372511088848,-2.517077513718605
1772045502855618000,5.8136181640625,1.4620476515382528,-1.0801415070831775,-2.07625506991446
1772045502865604000,5.82360400390625,1.8858388810425997,-0.9028472501128911,-1.6711385841332376
1772045502875590100,5.833590087890625,2.070968069422245,-0.6958703870624303,-1.1546813458912073
1772045502885576000,5.843575927734375,1.9315712891697883,-0.49005204639732836,-0.6889158917494118
1772045502895562200,5.853562255859375,1.607694724357128,-0.31431641704589125,-0.4964055801425129
1772045502905548000,5.863548095703125,1.3962147046685218,-0.21687486446946858,-0.6230855752281844
1772045502915534000,5.8735341796875,1.2425965068399905,-0.30002719493061303,-0.8432186377760023
1772045502925520100,5.88352001953125,1.0475637640833855,-0.46446752328574653,-0.9521224454134702
1772045502935506200,5.893506103515625,0.8852151473104953,-0.5645291952326893,-1.0566725148208438
1772045502945492000,5.903491943359375,0.7773948240607976,-0.507537141944468,-1.1051785523798316
1772045502955478300,5.913478271484375,0.659835197085142,-0.215913618221879,-1.0566564404688774
1772045502965464000,5.923464111328125,0.6492395687907934,-0.1876058076262474,-0.6616432694204151
1772045502975450000,5.9334501953125,0.9204010269820689,-0.2824450687497854,-0.2653545254781842
1772045502985436200,5.943436279296875,1.2079752753138542,-0.31708149784505363,-0.122646063394472
1772045502995421200,5.953421142578125,1.2893319545298814,-0.3933797246277332,-0.1513745836202055
1772045503005407000,5.963406982421875,1.3354536542356013,-0.4157014465510845,-0.26966398617513476
1772045503015393000,5.97339306640625,1.4430179568976162,-0.4032610671728849,-0.37260223647169766
1772045503025379000,5.983379150390625,1.433881879761815,-0.23035949220359325,-0.447855118919909
1772045503035364600,5.993364501953125,1.4224667517781258,-0.17814064466655252,-0.4012836296200752
1772045503045351000,6.003350830078125,1.3628227226763963,-0.14345277764499187,-0.24747502378597855
1772045503055336700,6.013336669921875,1.2953151205927134,-0.3065419836521148,-0.30191994987465437
1772045503065322800,6.02332275390625,1.2827730344057082,-0.3135591689378023,-0.5962239448528737
