time,seconds_elapsed,z,y,x
1772045497113689000,0.071689208984375,-0.27791106700897217,-0.2663622796535492,0.4970812201499939
1772045497123675100,0.081675048828125,-0.3668002188205719,-0.41599151492118835,0.5149604082107544
1772045497133661200,0.0916611328125,-0.4362543821334839,-0.5531693696975708,0.4948253333568573
1772045497143647200,0.101647216796875,-0.48810717463493347,-0.6408889889717102,0.4466366767883301
1772045497153633000,0.111633056640625,-0.5109879970550537,-0.6734386682510376,0.36476337909698486
1772045497163619000,0.121619140625,-0.5184206962585449,-0.6624394655227661,0.2846735715866089
1772045497173605000,0.131605224609375,-0.499693363904953,-0.6048837900161743,0.2194061577320099
1772045497183591200,0.141591064453125,-0.4671873450279236,-0.540576159954071,0.18224011361598969
1772045497193577000,0.151576904296875,-0.44835320115089417,-0.49169623851776123,0.1718820184469223
1772045497203563300,0.161563232421875,-0.4427974224090576,-0.47363948822021484,0.16844792664051056
1772045497213549000,0.171549072265625,-0.4454083740711212,-0.46246540546417236,0.15449616312980652
1772045497223535000,0.18153515625,-0.43415093421936035,-0.44711440801620483,0.11915667355060577
1772045497233521200,0.191521240234375,-0.40758347511291504,-0.44095078110694885,0.059589486569166183
1772045497243506200,0.201506103515625,-0.36485743522644043,-0.4292640686035156,-0.027046170085668564
1772045497253492200,0.2114921875,-0.3233230412006378,-0.41641512513160706,-0.13122422993183136
1772045497263478000,0.22147802734375,-0.3014119863510132,-0.4124568700790405,-0.2597126364707947
1772045497273464300,0.23146435546875,-0.29743990302085876,-0.44661828875541687,-0.36649635434150696
1772045497283450000,0.2414501953125,-0.3193739652633667,-0.5069604516029358,-0.4665745198726654
1772045497293436200,0.251436279296875,-0.3593410849571228,-0.600190281867981,-0.5623284578323364
1772045497303422200,0.261422119140625,-0.4179936647415161,-0.7208640575408936,-0.6539568305015564
1772045497313408300,0.271408203125,-0.5052140355110168,-0.8472757935523987,-0.7471964955329895
1772045497323394000,0.28139404296875,-0.6199841499328613,-0.9793651700019836,-0.8494371771812439
1772045497333380000,0.291380126953125,-0.7353349924087524,-1.0887744426727295,-0.9539468288421631
1772045497343366100,0.3013662109375,-0.8183349967002869,-1.1268736124038696,-1.0406283140182495
1772045497353352200,0.311352294921875,-0.8135886788368225,-1.1631338596343994,-1.065024971961975
1772045497363338200,0.321338134765625,-0.7054948210716248,-1.2579424381256104,-1.0103830099105835
1772045497373324000,0.331323974609375,-0.5418744683265686,-1.3800091743469238,-0.8967604637145996
1772045497383310000,0.34131005859375,-0.33601638674736023,-1.4603668451309204,-0.7502153515815735
1772045497393296100,0.351296142578125,-0.1028108149766922,-1.455190896987915,-0.6087865829467773
1772045497403282200,0.3612822265625,0.1324840784072876,-1.3815767765045166,-0.5047966837882996
1772045497413268000,0.37126806640625,0.3742503821849823,-1.2277398109436035,-0.4829705059528351
1772045497423253000,0.3812529296875,0.5704461336135864,-1.1316338777542114,-0.5512600541114807
1772045497433239300,0.3912392578125,0.6533855199813843,-1.200903296470642,-0.7034866213798523
1772045497443225000,0.40122509765625,0.6242244243621826,-1.2888848781585693,-0.833742082118988
1772045497453211100,0.411211181640625,0.5643768310546875,-1.2598822116851807,-0.8545568585395813
1772045497463197200,0.421197265625,0.5678418874740601,-1.2744725942611694,-0.6916599273681641
1772045497473183200,0.431183349609375,0.6425273418426514,-1.4127650260925293,-0.36039918661117554
1772045497483169000,0.4411689453125,0.7118167281150818,-1.6752769947052002,0.06765229254961014
1772045497493155300,0.4511552734375,0.7719247937202454,-2.0443291664123535,0.48395630717277527
1772045497503141000,0.46114111328125,0.8877970576286316,-2.354792594909668,0.7060944437980652
1772045497513127200,0.471127197265625,1.0014759302139282,-2.7422537803649902,0.7420647144317627
1772045497523113200,0.48111328125,1.0633703470230103,-3.1540863513946533,0.6338691711425781
1772045497533099300,0.491099365234375,1.0664165019989014,-3.7490227222442627,0.48830553889274597
1772045497543085000,0.5010849609375,1.079819917678833,-4.452703952789307,0.46953991055488586
1772045497553071400,0.5110712890625,1.1646422147750854,-5.1087517738342285,0.5706894993782043
1772045497563057200,0.52105712890625,1.2666019201278687,-5.473321914672852,0.713889479637146
1772045497573043200,0.531043212890625,1.3671709299087524,-5.3816962242126465,0.7982160449028015
1772045497583029200,0.541029296875,1.520689845085144,-4.948097229003906,0.7720359563827515
1772045497593015300,0.551015380859375,1.7421351671218872,-4.370001792907715,0.6529596447944641
1772045497603001000,0.5610009765625,2.0454890727996826,-3.9385745525360107,0.49039819836616516
1772045497612986000,0.570986083984375,2.3969552516937256,-3.7412219047546387,0.2353602945804596
1772045497622972200,0.58097216796875,2.651671886444092,-3.7033212184906006,-0.05144287645816803
1772045497632958200,0.590958251953125,2.748342275619507,-3.7452619075775146,-0.19008678197860718
1772045497642944000,0.600944091796875,2.7252867221832275,-3.8043015003204346,-0.1675862967967987
1772045497652930300,0.610930419921875,2.6583151817321777,-3.5113141536712646,-0.0982879102230072
1772045497662916000,0.620916015625,2.5868942737579346,-2.7375566959381104,-0.0772068053483963
1772045497672902100,0.630902099609375,2.5248968601226807,-1.689542531967163,-0.19448070228099823
1772045497682888200,0.64088818359375,2.3732247352600098,-0.5770804286003113,-0.4380088150501251
1772045497692874200,0.650874267578125,2.1287362575531006,0.4138818085193634,-0.7183472514152527
1772045497702860000,0.660860107421875,1.9450932741165161,1.0208230018615723,-0.9416550397872925
1772045497712846000,0.67084619140625,1.891526699066162,1.186411738395691,-1.0262173414230347
1772045497722832100,0.68083203125,1.9164319038391113,0.8770124912261963,-0.8573989868164062
1772045497732818200,0.690818115234375,1.95926034450531,0.20891110599040985,-0.3700184226036072
1772045497742804000,0.700803955078125,1.8474985361099243,-0.5852813124656677,0.40528735518455505
1772045497752790300,0.710790283203125,1.4856550693511963,-1.1376574039459229,1.372493028640747
1772045497762776000,0.720776123046875,0.9249354600906372,-1.2379436492919922,2.3844542503356934
1772045497772762000,0.73076220703125,0.2893398404121399,-0.8638875484466553,3.281071901321411
1772045497782748200,0.740748046875,-0.1995786875486374,-0.28145986795425415,3.8385379314422607
1772045497792734200,0.750734130859375,-0.4876059591770172,0.22137662768363953,3.9982409477233887
1772045497802720000,0.760719970703125,-0.5805271863937378,0.5353820323944092,3.8312785625457764
1772045497812706300,0.770706298828125,-0.5662901997566223,0.617209255695343,3.469353199005127
1772045497822691300,0.78069140625,-0.5232906341552734,0.4057435095310211,3.0965590476989746
1772045497832677000,0.790677001953125,-0.46059662103652954,-0.020550034940242767,2.8654396533966064
1772045497842663200,0.8006630859375,-0.3972170054912567,-0.5094680786132812,2.82780122756958
1772045497852649200,0.810649169921875,-0.35040634870529175,-0.8762993812561035,2.9757587909698486
1772045497862635000,0.820635009765625,-0.3517850637435913,-1.0158408880233765,3.19114089012146
1772045497872621000,0.83062109375,-0.4201952815055847,-0.9654642343521118,3.3772284984588623
1772045497882607000,0.840607177734375,-0.5227860808372498,-0.8952816128730774,3.4499776363372803
1772045497892593200,0.85059326171875,-0.6229294538497925,-0.8750959038734436,3.3003389835357666
1772045497902579000,0.860578857421875,-0.6630880832672119,-0.9337568879127502,2.938621997833252
1772045497912565200,0.870565185546875,-0.5422665476799011,-1.0276213884353638,2.486966848373413
1772045497922551000,0.880551025390625,-0.27774563431739807,-1.0660524368286133,2.09196400642395
1772045497932537000,0.890537109375,0.06213204935193062,-0.9629553556442261,1.8210192918777466
1772045497942523100,0.900523193359375,0.42622649669647217,-0.6732720732688904,1.6735538244247437
1772045497952509200,0.91050927734375,0.7610718607902527,-0.2925593852996826,1.5767366886138916
1772045497962495000,0.920494873046875,1.0502939224243164,0.009259088896214962,1.4637047052383423
1772045497972481300,0.930481201171875,1.3049373626708984,0.07566474378108978,1.2601513862609863
1772045497982467000,0.940467041015625,1.4895564317703247,-0.1529596894979477,0.957092821598053
1772045497992453000,0.950453125,1.5997945070266724,-0.49875783920288086,0.6203041076660156
1772045498002439200,0.960439208984375,1.6119059324264526,-0.8326511383056641,0.33562013506889343
1772045498012425200,0.97042529296875,1.52192223072052,-1.0978354215621948,0.14647497236728668
1772045498022411000,0.980410888671875,1.3360106945037842,-1.2753465175628662,0.06954364478588104
1772045498032397000,0.99039697265625,1.1001989841461182,-1.3564493656158447,0.08501873910427094
1772045498042382800,1.0003828125,0.9185174107551575,-1.3459182977676392,0.1429443508386612
1772045498052369200,1.010369140625,0.8375051021575928,-1.2845251560211182,0.1570332646369934
1772045498062355000,1.02035498046875,0.8383656144142151,-1.238567590713501,0.08366357535123825
1772045498072341000,1.030341064453125,0.912343442440033,-1.1679799556732178,-0.017515240237116814
1772045498082327000,1.0403271484375,1.0514835119247437,-1.1193618774414062,-0.1460573971271515
1772045498092313000,1.05031298828125,1.186176061630249,-1.0677622556686401,-0.2804546058177948
1772045498102299000,1.060298828125,1.2903945446014404,-1.0115559101104736,-0.43555739521980286
1772045498112284000,1.070283935546875,1.3286126852035522,-0.9218124747276306,-0.6098660826683044
1772045498122270200,1.080270263671875,1.2398362159729004,-0.8111051917076111,-0.7561001777648926
1772045498132256000,1.090256103515625,1.0882588624954224,-0.6880900263786316,-0.84975665807724
1772045498142242000,1.100241943359375,0.9598124623298645,-0.620003342628479,-0.7941818237304688
1772045498152228000,1.11022802734375,0.8687254190444946,-0.37688788771629333,-0.728847324848175
1772045498162214100,1.120214111328125,0.8610882759094238,-0.17432457208633423,-0.6251870393753052
1772045498172200000,1.130199951171875,0.9392887949943542,-0.14569558203220367,-0.46156638860702515
1772045498182186200,1.140186279296875,1.0650529861450195,-0.3042299151420593,-0.33304914832115173
1772045498192172000,1.150172119140625,1.1747437715530396,-0.49149060249328613,-0.3265922963619232
1772045498202158000,1.160157958984375,1.1707872152328491,-0.7050904631614685,-0.338257759809494
1772045498212144000,1.17014404296875,1.0906649827957153,-0.9134711027145386,-0.29691511392593384
1772045498222130200,1.180130126953125,1.1317049264907837,-1.2008758783340454,-0.29588863253593445
1772045498232116000,1.190115966796875,1.314591884613037,-1.5970298051834106,-0.45622822642326355
1772045498242102300,1.200102294921875,1.6688169240951538,-2.0164382457733154,-0.7822980284690857
1772045498252088000,1.210088134765625,2.2345244884490967,-2.0096042156219482,-1.0326529741287231
1772045498262074000,1.22007421875,2.7196476459503174,-1.449450135231018,-1.0663400888442993
1772045498272060000,1.230059814453125,2.7183845043182373,-0.5768545269966125,-0.8995546102523804
1772045498282046000,1.2400458984375,2.1504645347595215,0.220598042011261,-0.4868725538253784
1772045498292032000,1.250031982421875,1.3204388618469238,0.5579332113265991,0.06257139891386032
1772045498302018000,1.26001806640625,0.5291975736618042,0.3399762809276581,0.61899334192276
1772045498312004000,1.270004150390625,-0.10642891377210617,-0.15361346304416656,1.1380141973495483
1772045498321990000,1.279989990234375,-0.5341821908950806,-0.7192594408988953,1.5764023065567017
1772045498331976000,1.289975830078125,-0.7121511101722717,-1.2764438390731812,1.9231458902359009
1772045498341962000,1.2999619140625,-0.655810534954071,-1.7360681295394897,2.1225650310516357
1772045498351948000,1.309947998046875,-0.441715806722641,-2.0208067893981934,2.0767953395843506
1772045498361933800,1.319933837890625,-0.16090141236782074,-2.098198890686035,1.7474511861801147
1772045498371920100,1.329920166015625,0.1371273547410965,-1.9810997247695923,1.2041192054748535
1772045498381906000,1.339906005859375,0.37129977345466614,-1.732048749923706,0.5598546266555786
1772045498391892000,1.34989208984375,0.5070202946662903,-1.3683223724365234,-0.10144180059432983
1772045498401877000,1.359876953125,0.553634762763977,-0.9022185206413269,-0.7478458285331726
1772045498411864000,1.369864013671875,0.5322163105010986,-0.333722323179245,-1.3536396026611328
1772045498421849000,1.37984912109375,0.4609440267086029,0.2548346221446991,-1.8971893787384033
1772045498431835000,1.3898349609375,0.4037148356437683,0.7454264163970947,-2.3468122482299805
1772045498441821200,1.3998212890625,0.40210577845573425,1.0481667518615723,-2.643859386444092
1772045498451807000,1.409806884765625,0.4696829617023468,1.0754634141921997,-2.6856608390808105
1772045498461793000,1.41979296875,0.585627019405365,0.8873001337051392,-2.423192262649536
1772045498471779000,1.429779052734375,0.7087558507919312,0.570960521697998,-1.8950971364974976
1772045498481765000,1.43976513671875,0.7815934419631958,0.2896062731742859,-1.178263783454895
1772045498491751000,1.4497509765625,0.8153809309005737,0.098899707198143,-0.4154133200645447
1772045498501737200,1.4597373046875,0.8078171610832214,-0.043628107756376266,0.21300503611564636
1772045498511723000,1.469722900390625,0.757053554058075,-0.19817321002483368,0.594940185546875
1772045498521709000,1.479708984375,0.6842280626296997,-0.2940460443496704,0.7499258518218994
1772045498531695000,1.489695068359375,0.5985472202301025,-0.3311867415904999,0.7241429686546326
1772045498541681200,1.49968115234375,0.5244691967964172,-0.2961849272251129,0.593976616859436
1772045498551667000,1.5096669921875,0.4858035743236542,-0.2254585325717926,0.4364554286003113
1772045498561653200,1.5196533203125,0.47496867179870605,-0.16607661545276642,0.31618303060531616
1772045498571639000,1.52963916015625,0.4728360176086426,-0.13797973096370697,0.2607000768184662
1772045498581625000,1.539625,0.48016417026519775,-0.18429803848266602,0.25829681754112244
1772045498591611100,1.549611083984375,0.49615997076034546,-0.2908574938774109,0.30523955821990967
1772045498601597200,1.55959716796875,0.4878147840499878,-0.4394979476928711,0.3841710090637207
1772045498611583000,1.5695830078125,0.47271251678466797,-0.588556706905365,0.4908015727996826
1772045498621569000,1.579569091796875,0.45092418789863586,-0.6918733716011047,0.6184824705123901
1772045498631555000,1.58955517578125,0.4019068479537964,-0.7319982051849365,0.7567175626754761
1772045498641541000,1.599541015625,0.3153237998485565,-0.6817746162414551,0.9120550751686096
1772045498651527000,1.60952685546875,0.21295003592967987,-0.5831950306892395,1.0863288640975952
1772045498661513200,1.61951318359375,0.1271783709526062,-0.4674398899078369,1.25445556640625
1772045498671499000,1.6294990234375,0.04276469349861145,-0.3431874215602875,1.378816843032837
1772045498681485000,1.639485107421875,-0.096408411860466,-0.1898697465658188,1.4597870111465454
1772045498691471000,1.64947119140625,-0.31060510873794556,-0.014738938771188259,1.5357749462127686
1772045498701457000,1.659456787109375,-0.5719518065452576,0.09539133310317993,1.5808851718902588
1772045498711443000,1.66944287109375,-0.8700104355812073,0.036620959639549255,1.568152904510498
1772045498721429000,1.679428955078125,-1.090838074684143,-0.17770370841026306,1.606537938117981
1772045498731415000,1.6894150390625,-1.078765630722046,-0.494099497795105,1.8683035373687744
1772045498741400800,1.69940087890625,-0.7837634086608887,-0.934739351272583,2.3820998668670654
1772045498751387100,1.70938720703125,-0.32120826840400696,-1.3428764343261719,3.127439498901367
1772045498761372200,1.7193720703125,0.11520069092512131,-1.6771314144134521,3.834820032119751
1772045498771358000,1.72935791015625,0.2174263894557953,-2.0034337043762207,4.141937255859375
1772045498781344000,1.739343994140625,-0.17675302922725677,-2.0815718173980713,3.794962167739868
1772045498791330000,1.749330078125,-0.9022199511528015,-1.689490795135498,2.844299793243408
1772045498801316000,1.759316162109375,-1.553088665008545,-0.8560056090354919,1.6895912885665894
1772045498811302000,1.769302001953125,-1.8670979738235474,0.10814765095710754,0.6248226761817932
1772045498821288200,1.7792880859375,-1.8201844692230225,0.9761120080947876,-0.12933582067489624
1772045498831274000,1.78927392578125,-1.5215072631835938,1.517486333847046,-0.4586292803287506
1772045498841260000,1.799260009765625,-1.150768756866455,1.5658856630325317,-0.38495489954948425
1772045498851246000,1.80924609375,-0.8935353755950928,1.2136766910552979,-0.06039974093437195
1772045498861232000,1.819232177734375,-0.8227212429046631,0.6262872815132141,0.32282546162605286
1772045498871218000,1.829218017578125,-0.9014794826507568,0.03677129000425339,0.595876157283783
1772045498881204200,1.839204345703125,-1.0295109748840332,-0.3603936433792114,0.6816309094429016
1772045498891190000,1.84918994140625,-1.1066062450408936,-0.48980143666267395,0.5981954336166382
1772045498901176000,1.859176025390625,-1.1090329885482788,-0.37688183784484863,0.4016170799732208
1772045498911162000,1.869162109375,-1.0447133779525757,-0.13751956820487976,0.1893559694290161
1772045498921148200,1.879148193359375,-0.9572579264640808,0.11514541506767273,0.026011042296886444
1772045498931134000,1.889134033203125,-0.8558218479156494,0.28230831027030945,-0.03081335686147213
1772045498941120300,1.899120361328125,-0.7714493274688721,0.26612505316734314,0.03505466878414154
1772045498951106000,1.90910595703125,-0.7535179853439331,0.04824119806289673,0.25271907448768616
1772045498961092000,1.919092041015625,-0.8075661659240723,-0.311235636472702,0.5536574721336365
1772045498971078000,1.929077880859375,-0.89455646276474,-0.7268354892730713,0.8675711750984192
1772045498981064200,1.939064208984375,-1.0066900253295898,-1.0686414241790771,1.1392185688018799
1772045498991050000,1.949050048828125,-1.1782691478729248,-1.1877042055130005,1.2934521436691284
1772045499001036000,1.9590361328125,-1.3552874326705933,-1.0765479803085327,1.270118236541748
1772045499011022000,1.96902197265625,-1.4196629524230957,-0.7984260320663452,1.1163654327392578
1772045499021008100,1.979008056640625,-1.3064676523208618,-0.44869303703308105,0.8690221309661865
1772045499030994200,1.988994140625,-1.045392394065857,-0.12347393482923508,0.5805658102035522
1772045499040980200,1.998980224609375,-0.6955873370170593,0.1135508269071579,0.3038245439529419
1772045499050966300,2.00896630859375,-0.31539738178253174,0.2581511437892914,0.05758548527956009
1772045499060952000,2.0189521484375,0.015556875616312027,0.3097875416278839,-0.1258113533258438
1772045499070937000,2.02893701171875,0.26466524600982666,0.2913944125175476,-0.24719423055648804
1772045499080923400,2.03892333984375,0.40232500433921814,0.23362767696380615,-0.30700647830963135
1772045499090909200,2.0489091796875,0.4479718506336212,0.15175171196460724,-0.31536826491355896
1772045499100895200,2.058895263671875,0.4329097867012024,0.06209034472703934,-0.28532519936561584
1772045499110881300,2.06888134765625,0.4119773209095001,-0.05076562985777855,-0.20678246021270752
1772045499120867300,2.078867431640625,0.3928150236606598,-0.1564200222492218,-0.08721188455820084
1772045499130853000,2.08885302734375,0.36104217171669006,-0.24520768225193024,0.055351123213768005
1772045499140839400,2.09883935546875,0.3133411109447479,-0.26022326946258545,0.21492038667201996
1772045499150825200,2.1088251953125,0.24986466765403748,-0.18386271595954895,0.3813101649284363
1772045499160811300,2.118811279296875,0.1711714267730713,-0.09303095191717148,0.5204432010650635
1772045499170797300,2.12879736328125,0.06811508536338806,-0.040969617664813995,0.5959011912345886
1772045499180783400,2.138783447265625,-0.050149623304605484,-0.013201538473367691,0.62509685754776
1772045499190769200,2.14876904296875,-0.167340949177742,0.052532732486724854,0.6323806047439575
1772045499200755500,2.15875537109375,-0.247256800532341,0.2043924331665039,0.6559342741966248
1772045499210741200,2.1687412109375,-0.16239650547504425,0.46533241868019104,0.7589056491851807
1772045499220727300,2.178727294921875,0.11893526464700699,0.7654576897621155,0.8844267129898071
1772045499230713000,2.188713134765625,0.6036548018455505,1.0024473667144775,1.002553105354309
1772045499240699400,2.198699462890625,1.2222228050231934,1.0824923515319824,1.1933608055114746
1772045499250685200,2.208685302734375,1.8850446939468384,0.9489452838897705,1.5594160556793213
1772045499260671200,2.218671142578125,2.468705415725708,0.7147507071495056,2.0971627235412598
1772045499270657300,2.2286572265625,2.7137460708618164,0.4951930642127991,2.591249704360962
1772045499280643300,2.238643310546875,2.4321787357330322,0.4084245562553406,2.753567695617676
1772045499290629000,2.248629150390625,1.5722557306289673,0.5621717572212219,2.470621347427368
1772045499300615400,2.258615478515625,0.4696863293647766,0.9881545305252075,1.8833917379379272
1772045499310601200,2.268601318359375,-0.32900872826576233,1.4608291387557983,1.193093180656433
1772045499320587300,2.278587158203125,-0.6087931394577026,1.7392585277557373,0.6450561881065369
1772045499330573300,2.2885732421875,-0.49639683961868286,1.6897224187850952,0.4514177739620209
1772045499340559400,2.298559326171875,-0.23937802016735077,1.2764990329742432,0.6393625736236572
1772045499350544100,2.308544189453125,-0.06902306526899338,0.6995430588722229,1.0283225774765015
1772045499360530200,2.3185302734375,-0.06188435107469559,0.2249535471200943,1.3142478466033936
1772045499370516200,2.32851611328125,-0.12588118016719818,-0.0186013150960207,1.2758573293685913
1772045499380502300,2.338502197265625,-0.15549713373184204,-0.009451094083487988,0.9729452729225159
1772045499390488000,2.348488037109375,-0.12095114588737488,0.17225585877895355,0.5945308804512024
1772045499400474400,2.358474365234375,-0.06461621075868607,0.3599632680416107,0.28049641847610474
1772045499410460200,2.368460205078125,-0.01975579746067524,0.42983874678611755,0.1040409579873085
1772045499420446200,2.3784462890625,-0.005467448849231005,0.3027285635471344,0.08224757015705109
1772045499430432300,2.388432373046875,-0.020199790596961975,-0.04111003503203392,0.2715432047843933
1772045499440418300,2.398418212890625,-0.03570897504687309,-0.5573300123214722,0.6737003326416016
1772045499450404000,2.408404052734375,-0.030591174960136414,-1.1562927961349487,1.1695479154586792
1772045499460390400,2.418390380859375,0.007915450260043144,-1.6919502019882202,1.6543375253677368
1772045499470376200,2.428376220703125,0.014313960447907448,-2.0567266941070557,2.060251235961914
1772045499480362200,2.4383623046875,-0.041516080498695374,-2.1568849086761475,2.32047176361084
1772045499490348300,2.448348388671875,-0.09324851632118225,-2.1148624420166016,2.3993124961853027
1772045499500334300,2.458334228515625,-0.07086841762065887,-2.0058071613311768,2.3532207012176514
1772045499510320000,2.468320068359375,0.04450983554124832,-1.8729190826416016,2.2204132080078125
1772045499520306400,2.478306396484375,0.24035045504570007,-1.7613693475723267,2.0660669803619385
1772045499530292200,2.488292236328125,0.4567711651325226,-1.6857718229293823,1.9273898601531982
1772045499540278300,2.4982783203125,0.6406234502792358,-1.6964921951293945,1.8369978666305542
1772045499550264000,2.50826416015625,0.7539463043212891,-1.7901334762573242,1.806815505027771
1772045499560250400,2.51825048828125,0.796360433101654,-1.935776710510254,1.8246402740478516
1772045499570236200,2.528236083984375,0.7700782418251038,-2.082315683364868,1.8778003454208374
1772045499580222200,2.53822216796875,0.6345971822738647,-2.166510581970215,1.9165312051773071
1772045499590207200,2.548207275390625,0.4304281175136566,-2.1828486919403076,1.9076162576675415
1772045499600193300,2.558193359375,0.21987174451351166,-2.111908435821533,1.8637031316757202
1772045499610179000,2.568178955078125,0.06536579132080078,-1.9283231496810913,1.8038687705993652
1772045499620165400,2.578165283203125,-0.021735740825533867,-1.6652085781097412,1.7137634754180908
1772045499630151200,2.588151123046875,-0.058481767773628235,-1.3609133958816528,1.6082303524017334
1772045499640137200,2.59813720703125,-0.07884667813777924,-1.0753382444381714,1.4868786334991455
1772045499650123300,2.608123291015625,-0.11788808554410934,-0.8507101535797119,1.3638927936553955
1772045499660109300,2.618109375,-0.2120104730129242,-0.7047293782234192,1.259655475616455
1772045499670095000,2.62809521484375,-0.3390411138534546,-0.6579546332359314,1.1909208297729492
1772045499680081200,2.6380810546875,-0.4214106500148773,-0.6016113758087158,1.16054105758667
1772045499690067200,2.648067138671875,-0.46906712651252747,-0.5030206441879272,1.1509493589401245
1772045499700053200,2.65805322265625,-0.47088444232940674,-0.4045543074607849,1.1491069793701172
1772045499710039000,2.6680390625,-0.4162614047527313,-0.3208503723144531,1.2145544290542603
1772045499720025300,2.678025390625,-0.2989517152309418,-0.29439860582351685,1.3747358322143555
1772045499730011100,2.68801123046875,-0.08443914353847504,-0.4492425322532654,1.6141942739486694
1772045499739997200,2.6979970703125,0.250355064868927,-0.8638328909873962,1.9130998849868774
1772045499749983200,2.707983154296875,0.6525054574012756,-1.5053313970565796,2.3575315475463867
1772045499759969300,2.71796923828125,1.048134684562683,-2.185880661010742,3.0278279781341553
1772045499769955000,2.727955078125,1.3558381795883179,-2.6687419414520264,3.882080554962158
1772045499779941400,2.73794140625,1.3979047536849976,-2.925076961517334,4.636744022369385
1772045499789927200,2.74792724609375,0.978879988193512,-2.9692459106445312,4.91616678237915
1772045499799912200,2.757912109375,0.14634083211421967,-2.637099027633667,4.623032569885254
1772045499809898200,2.767898193359375,-0.6739255785942078,-2.001746416091919,3.9453439712524414
1772045499819884300,2.77788427734375,-1.0803248882293701,-1.2533625364303589,3.222177028656006
1772045499829870300,2.787870361328125,-1.0533808469772339,-0.6648340225219727,2.6904091835021973
1772045499839856000,2.797856201171875,-0.7628666758537292,-0.35319024324417114,2.3798065185546875
1772045499849842400,2.807842529296875,-0.4619225561618805,-0.3209580183029175,2.283953905105591
1772045499859828200,2.817828125,-0.2912532091140747,-0.4538593590259552,2.358085870742798
1772045499869814300,2.827814208984375,-0.19068211317062378,-0.6306881904602051,2.4710676670074463
1772045499879800300,2.83780029296875,-0.09902849793434143,-0.7920536398887634,2.459646224975586
1772045499889786400,2.847786376953125,0.008189035579562187,-0.9004693627357483,2.286440134048462
1772045499899772200,2.857772216796875,0.10584591329097748,-0.9108099341392517,2.023858070373535
1772045499909758200,2.86775830078125,0.15008340775966644,-0.7909301519393921,1.783557415008545
1772045499919744300,2.877744140625,0.13744328916072845,-0.5712968707084656,1.610352873802185
1772045499929730300,2.887730224609375,0.07957200706005096,-0.3193642497062683,1.540278434753418
1772045499939716400,2.89771630859375,-0.0035610059276223183,-0.10328944772481918,1.5478713512420654
1772045499949702100,2.9077021484375,-0.10895960032939911,-0.0025721562560647726,1.6326518058776855
1772045499959688200,2.917688232421875,-0.222122460603714,-0.07548993825912476,1.8001525402069092
1772045499969674200,2.92767431640625,-0.3307030200958252,-0.2759079933166504,2.022942543029785
1772045499979660300,2.937660400390625,-0.4527462124824524,-0.5085687041282654,2.2470180988311768
1772045499989646000,2.94764599609375,-0.6199471950531006,-0.6652781367301941,2.40628719329834
1772045499999631000,2.957631103515625,-0.7623730301856995,-0.695594847202301,2.4676787853240967
1772045500009617400,2.967617431640625,-0.7617967128753662,-0.6741257309913635,2.4317238330841064
1772045500019603200,2.977603271484375,-0.578052818775177,-0.6244879364967346,2.358527421951294
1772045500029589200,2.98758935546875,-0.2534782290458679,-0.5733829736709595,2.3086254596710205
1772045500039575000,2.997574951171875,0.11331566423177719,-0.5811429619789124,2.308711528778076
1772045500049561300,3.007561279296875,0.40967488288879395,-0.6674272418022156,2.3465168476104736
1772045500059547100,3.017547119140625,0.5455363988876343,-0.8497576713562012,2.3826634883880615
1772045500069533200,3.027533203125,0.5225812792778015,-1.0618818998336792,2.392080307006836
1772045500079519200,3.037519287109375,0.38415321707725525,-1.2261074781417847,2.369516134262085
1772045500089505300,3.04750537109375,0.20986635982990265,-1.3328933715820312,2.335418939590454
1772045500099491000,3.057490966796875,0.08807870745658875,-1.371022343635559,2.3126258850097656
1772045500109477000,3.06747705078125,0.0462162084877491,-1.3105851411819458,2.3230621814727783
1772045500119463200,3.077463134765625,0.06622988730669022,-1.1863317489624023,2.344601631164551
1772045500129449200,3.08744921875,0.05920606851577759,-1.0441259145736694,2.334648609161377
1772045500139435000,3.09743505859375,0.024115486070513725,-0.9368876218795776,2.2997374534606934
1772045500149421300,3.10742138671875,-0.054956965148448944,-0.8833466172218323,2.253760576248169
1772045500159407000,3.117406982421875,-0.17185258865356445,-0.8775501251220703,2.2318782806396484
1772045500169393200,3.12739306640625,-0.32005298137664795,-0.9077221155166626,2.2331385612487793
1772045500179379200,3.137379150390625,-0.46777716279029846,-0.9551746845245361,2.293274164199829
1772045500189365200,3.147365234375,-0.5929608941078186,-0.9516699910163879,2.4323105812072754
1772045500199351000,3.15735107421875,-0.6305137872695923,-0.866453230381012,2.649282455444336
1772045500209336000,3.167336181640625,-0.5269184112548828,-0.7373181581497192,2.845362663269043
1772045500219322000,3.177322021484375,-0.2925877571105957,-0.65520840883255,2.9358601570129395
1772045500229308200,3.18730810546875,0.04172152280807495,-0.825788676738739,2.9242610931396484
1772045500239294000,3.1972939453125,0.4448191225528717,-1.3416640758514404,2.965975046157837
1772045500249280300,3.2072802734375,0.9364495873451233,-2.1590700149536133,3.3002097606658936
1772045500259266000,3.21726611328125,1.3927743434906006,-2.922264814376831,4.229793548583984
1772045500269252000,3.227252197265625,1.4405066967010498,-3.3692212104797363,5.67648983001709
1772045500279238100,3.237238037109375,1.0122493505477905,-3.484509229660034,6.957507133483887
1772045500289224200,3.24722412109375,0.09718956053256989,-3.258078098297119,7.240358352661133
1772045500299210000,3.2572099609375,-0.9608304500579834,-2.6731667518615723,6.393977642059326
1772045500309196300,3.2671962890625,-1.532893180847168,-1.7356399297714233,5.107926368713379
1772045500319182000,3.27718212890625,-1.5918046236038208,-0.5674421191215515,4.190494537353516
1772045500329168100,3.287168212890625,-1.43855619430542,0.17010971903800964,3.8116350173950195
1772045500339154200,3.297154296875,-1.2975902557373047,0.21817047894001007,3.795038938522339
1772045500349140200,3.30714013671875,-1.2523822784423828,-0.2988055348396301,3.9243826866149902
1772045500359126000,3.3171259765625,-1.2391541004180908,-0.9341128468513489,4.051522254943848
1772045500369112300,3.3271123046875,-1.215181589126587,-1.341617465019226,4.010405540466309
1772045500379098000,3.33709814453125,-1.197846531867981,-1.382520318031311,3.6761116981506348
1772045500389084200,3.347084228515625,-1.1799604892730713,-1.07593834400177,3.085706949234009
1772045500399070200,3.3570703125,-1.1543126106262207,-0.5305130481719971,2.405881643295288
1772045500409056300,3.36705615234375,-1.0869500637054443,0.06528400629758835,1.8216972351074219
1772045500419042000,3.3770419921875,-0.9959354400634766,0.5436378121376038,1.4718213081359863
1772045500429027000,3.387027099609375,-0.9468813538551331,0.7374722957611084,1.4230586290359497
1772045500439013000,3.39701318359375,-0.9493168592453003,0.5222780108451843,1.6980664730072021
1772045500448999200,3.406999267578125,-0.9178487062454224,0.013355117291212082,2.204164505004883
1772045500458985200,3.416985107421875,-0.8224174976348877,-0.5952831506729126,2.741466999053955
1772045500468971300,3.42697119140625,-0.6914400458335876,-1.0866589546203613,3.1562588214874268
1772045500478957000,3.43695703125,-0.5892384648323059,-1.3123104572296143,3.3445773124694824
1772045500488943000,3.446943115234375,-0.5559926629066467,-1.2410852909088135,3.2380456924438477
1772045500498929200,3.45692919921875,-0.511965811252594,-1.0115468502044678,2.877281427383423
1772045500508915200,3.466915283203125,-0.41709256172180176,-0.7124451398849487,2.3960115909576416
1772045500518901000,3.47690087890625,-0.29488223791122437,-0.4153294861316681,1.922865629196167
1772045500528887300,3.48688720703125,-0.11301867663860321,-0.255107581615448,1.5628539323806763
1772045500538873000,3.496873046875,0.13269993662834167,-0.2744244635105133,1.371100902557373
1772045500548859100,3.506859130859375,0.4037085473537445,-0.44605639576911926,1.3359429836273193
1772045500558845000,3.516844970703125,0.6600886583328247,-0.701193630695343,1.4233624935150146
1772045500568831200,3.526831298828125,0.8366320133209229,-1.0433733463287354,1.5786106586456299
1772045500578817000,3.536817138671875,0.8940090537071228,-1.4201419353485107,1.7742518186569214
1772045500588803000,3.546802978515625,0.8362048864364624,-1.7368512153625488,1.9578030109405518
1772045500598789000,3.5567890625,0.6963402628898621,-1.8891934156417847,2.0796751976013184
1772045500608775200,3.566775146484375,0.5539908409118652,-1.8561582565307617,2.08773136138916
1772045500618761000,3.576760986328125,0.45059242844581604,-1.6584882736206055,2.006056308746338
1772045500628747300,3.586747314453125,0.39855054020881653,-1.3778842687606812,1.8605446815490723
1772045500638733000,3.596733154296875,0.3510023355484009,-1.0609076023101807,1.7208319902420044
1772045500648719000,3.606718994140625,0.2724335193634033,-0.7239080667495728,1.619095802307129
1772045500658705200,3.616705078125,0.18312311172485352,-0.4077570140361786,1.5381953716278076
1772045500668690200,3.626690185546875,0.08577817678451538,-0.19497445225715637,1.4826191663742065
1772045500678676200,3.63667626953125,-0.0268593467772007,-0.1743326187133789,1.5404332876205444
1772045500688662000,3.646662109375,-0.18699654936790466,-0.2438453882932663,1.7865829467773438
1772045500698648300,3.6566484375,-0.40176084637641907,-0.2749782204627991,2.169586181640625
1772045500708634000,3.666634033203125,-0.556188702583313,-0.25475871562957764,2.587947368621826
1772045500718620200,3.6766201171875,-0.47399306297302246,-0.384644478559494,2.953932523727417
1772045500728606200,3.686606201171875,-0.13760492205619812,-0.8413076400756836,3.3713152408599854
1772045500738592300,3.69659228515625,0.40817540884017944,-1.5363823175430298,3.9260494709014893
1772045500748578000,3.706578125,0.9319689273834229,-2.1218621730804443,4.640886306762695
1772045500758564400,3.716564453125,1.0559067726135254,-2.3179688453674316,5.388065814971924
1772045500768550100,3.726550048828125,0.7132737040519714,-2.0370352268218994,5.96826171875
1772045500778536200,3.7365361328125,-0.14349465072155,-1.350088119506836,6.0990424156188965
1772045500788522200,3.746522216796875,-1.1605806350708008,-0.33753299713134766,5.718859672546387
1772045500798508300,3.75650830078125,-1.6722872257232666,0.7121427655220032,5.210740089416504
1772045500808494000,3.766494140625,-1.5871031284332275,1.3677091598510742,4.718878269195557
1772045500818480000,3.776480224609375,-1.1396480798721313,1.3308889865875244,4.160254001617432
1772045500828466200,3.786466064453125,-0.538880467414856,0.777409553527832,3.733713150024414
1772045500838452200,3.7964521484375,-0.008905133232474327,0.15061472356319427,3.6078522205352783
1772045500848438300,3.806438232421875,0.2841421961784363,-0.3038369119167328,3.7552764415740967
1772045500858424000,3.816424072265625,0.2588751018047333,-0.5232781171798706,3.952331304550171
1772045500868410000,3.82641015625,0.071560338139534,-0.6667303442955017,4.005090236663818
1772045500878396200,3.836396240234375,-0.15691158175468445,-0.6713943481445312,3.881870746612549
1772045500888382200,3.84638232421875,-0.32773393392562866,-0.5315831899642944,3.6975934505462646
1772045500898368000,3.856367919921875,-0.43138957023620605,-0.3214415907859802,3.577587366104126
1772045500908354000,3.86635400390625,-0.4843233823776245,-0.18236467242240906,3.5661301612854004
1772045500918340000,3.876340087890625,-0.5075055956840515,-0.23058192431926727,3.6562082767486572
1772045500928326100,3.886326171875,-0.5383098721504211,-0.4540054202079773,3.8513221740722656
1772045500938312000,3.89631201171875,-0.6916251182556152,-0.6562356352806091,4.125036716461182
1772045500948298200,3.90629833984375,-0.9901649951934814,-0.7810380458831787,4.373240947723389
1772045500958283300,3.916283203125,-1.2890719175338745,-0.912828266620636,4.473449230194092
1772045500968269000,3.92626904296875,-1.4784692525863647,-1.0316846370697021,4.362349033355713
1772045500978255400,3.93625537109375,-1.5422816276550293,-1.0741528272628784,4.060779094696045
1772045500988241200,3.9462412109375,-1.4904471635818481,-1.024348497390747,3.6506214141845703
1772045500998227200,3.956227294921875,-1.4636662006378174,-0.7683331966400146,3.189610242843628
1772045501008213000,3.966212890625,-1.55156409740448,-0.3091544806957245,2.7225146293640137
1772045501018199300,3.97619921875,-1.614245057106018,0.11583315581083298,2.281179189682007
1772045501028185000,3.98618505859375,-1.5681850910186768,0.4306153357028961,1.922195315361023
1772045501038171100,3.996171142578125,-1.4362324476242065,0.6180422306060791,1.6643797159194946
1772045501048157000,4.006156982421875,-1.135979175567627,0.5607288479804993,1.545250415802002
1772045501058143200,4.016143310546875,-0.6240099668502808,0.2321787178516388,1.5730211734771729
1772045501068129000,4.02612890625,0.025748347863554955,-0.3143554627895355,1.7354882955551147
1772045501078115000,4.036114990234375,0.6337965726852417,-0.8673931956291199,2.0047175884246826
1772045501088101000,4.04610107421875,1.0600193738937378,-1.2925740480422974,2.3074235916137695
1772045501098087200,4.056087158203125,1.2372214794158936,-1.48196542263031,2.595665693283081
1772045501108073000,4.066072998046875,1.1366006135940552,-1.3866844177246094,2.842844247817993
1772045501118059000,4.07605908203125,0.8317230939865112,-1.1057212352752686,2.995870351791382
1772045501128045000,4.086045166015625,0.5122596025466919,-0.7625927329063416,3.0708765983581543
1772045501138031000,4.096031005859375,0.33663833141326904,-0.46635788679122925,3.055049180984497
1772045501148017000,4.106016845703125,0.3392612934112549,-0.24989908933639526,2.9800174236297607
1772045501158003200,4.116003173828125,0.5074009299278259,-0.020262138918042183,2.909010648727417
1772045501167989000,4.125989013671875,0.7277849912643433,0.21720607578754425,2.780942440032959
1772045501177975000,4.13597509765625,0.8859923481941223,0.4941881597042084,2.5594089031219482
1772045501187961000,4.145961181640625,0.9092840552330017,0.7680697441101074,2.2968204021453857
1772045501197947100,4.155947021484375,0.8355681300163269,1.0506738424301147,2.060145616531372
1772045501207933000,4.165932861328125,0.7168837785720825,1.31684410572052,1.9329584836959839
1772045501217919200,4.175919189453125,0.6996693015098572,1.4236489534378052,2.081549882888794
1772045501227905000,4.185905029296875,1.0274256467819214,1.2162675857543945,2.514021396636963
1772045501237891000,4.19589111328125,1.7697240114212036,0.7083712220191956,3.0853915214538574
1772045501247877000,4.205877197265625,2.8172688484191895,0.026255739852786064,3.7355048656463623
1772045501257863200,4.21586328125,3.7952792644500732,-0.8242392539978027,4.396268844604492
1772045501267849000,4.225848876953125,4.427762985229492,-1.5836615562438965,5.0967254638671875
1772045501277835000,4.2358349609375,4.42142915725708,-2.006532907485962,5.803585052490234
1772045501287821000,4.245821044921875,3.4677298069000244,-2.0437965393066406,6.372142314910889
1772045501297807000,4.25580712890625,1.9551633596420288,-1.58817720413208,6.5887675285339355
1772045501307793200,4.265793212890625,0.7755052447319031,-0.8472644686698914,6.379258632659912
1772045501317779000,4.275779052734375,0.3601590692996979,-0.051006823778152466,5.907376289367676
1772045501327765000,4.285764892578125,0.49991723895072937,0.42471975088119507,5.3878302574157715
1772045501337750800,4.295750732421875,0.7774362564086914,0.40343597531318665,4.864786148071289
1772045501347737000,4.305737060546875,0.9118292331695557,0.06756584346294403,4.485927104949951
1772045501357723000,4.315722900390625,0.9370973706245422,-0.29021787643432617,4.3657636642456055
1772045501367709000,4.325708984375,0.8975523710250854,-0.6104193329811096,4.391806125640869
1772045501377695000,4.335695068359375,0.7838443517684937,-0.8487754464149475,4.361451148986816
1772045501387680000,4.345679931640625,0.5503911375999451,-0.9455898404121399,4.241847991943359
1772045501397666000,4.355666015625,0.20501984655857086,-0.8899743556976318,4.064767360687256
1772045501407652000,4.365652099609375,-0.14694298803806305,-0.7726083397865295,3.8664939403533936
1772045501417638100,4.37563818359375,-0.40273040533065796,-0.675584077835083,3.7521774768829346
1772045501427624000,4.3856240234375,-0.5186154246330261,-0.6632056832313538,3.783562421798706
1772045501437610200,4.3956103515625,-0.5313354730606079,-0.7786357402801514,3.911015748977661
1772045501447596000,4.405595947265625,-0.5177575945854187,-1.023136854171753,4.05546760559082
1772045501457582000,4.41558203125,-0.5409784913063049,-1.3631510734558105,4.148411273956299
1772045501467567900,4.42556787109375,-0.6589597463607788,-1.7196016311645508,4.165872573852539
1772045501477554200,4.43555419921875,-0.867584228515625,-2.013653039932251,4.108517169952393
1772045501487540000,4.4455400390625,-1.2067159414291382,-2.0836079120635986,3.995227575302124
1772045501497526000,4.455526123046875,-1.6741981506347656,-1.757375955581665,3.824258327484131
1772045501507512000,4.465511962890625,-2.1125404834747314,-1.1952660083770752,3.534181833267212
1772045501517498000,4.475498046875,-2.3313162326812744,-0.5585814714431763,3.1024324893951416
1772045501527484000,4.48548388671875,-2.2015328407287598,-0.052265770733356476,2.5494887828826904
1772045501537470200,4.49547021484375,-1.7326005697250366,0.16565150022506714,1.9637595415115356
1772045501547456000,4.5054560546875,-1.0686700344085693,0.08733273297548294,1.497729778289795
1772045501557442000,4.515442138671875,-0.3978064954280853,-0.21519504487514496,1.2401036024093628
1772045501567428000,4.525427978515625,0.10038304328918457,-0.5483301281929016,1.2289090156555176
1772045501577414100,4.5354140625,0.37499603629112244,-0.7631489038467407,1.4404064416885376
1772045501587400000,4.54539990234375,0.46216660737991333,-0.8417861461639404,1.7799876928329468
1772045501597386200,4.55538623046875,0.43679362535476685,-0.8405486941337585,2.1113386154174805
1772045501607372000,4.5653720703125,0.34432947635650635,-0.805397093296051,2.3507421016693115
1772045501617358000,4.575358154296875,0.2562825083732605,-0.7358576655387878,2.43808913230896
1772045501627344100,4.58534423828125,0.21186017990112305,-0.5871150493621826,2.3677234649658203
1772045501637330200,4.595330078125,0.1879742443561554,-0.3258450925350189,2.2042999267578125
1772045501647316000,4.60531591796875,0.1724858283996582,0.0002643165353219956,2.02053165435791
1772045501657302000,4.615302001953125,0.14484235644340515,0.3393452763557434,1.895381212234497
1772045501667288000,4.6252880859375,0.09922294318675995,0.6769161224365234,1.8674260377883911
1772045501677274000,4.635274169921875,0.016947273164987564,0.8358272910118103,1.9327422380447388
1772045501687260000,4.645260009765625,-0.13893818855285645,0.7927943468093872,2.1442501544952393
1772045501697246000,4.655245849609375,-0.3293822109699249,0.6584321856498718,2.427126884460449
1772045501707232000,4.66523193359375,-0.48613908886909485,0.6189063787460327,2.6135332584381104
1772045501717218000,4.675218017578125,-0.48417800664901733,0.970979630947113,2.5202226638793945
1772045501727204000,4.6852041015625,-0.33771559596061707,1.6728017330169678,2.028169870376587
1772045501737190000,4.69518994140625,-0.06128570809960365,2.509526252746582,1.23036527633667
1772045501747176000,4.705176025390625,0.5701963901519775,3.1147422790527344,0.3719104826450348
1772045501757162000,4.715161865234375,1.5954092741012573,2.5001213550567627,0.0279386006295681
1772045501767148000,4.72514794921875,2.5415542125701904,0.4968721866607666,0.6455930471420288
1772045501777133800,4.7351337890625,2.950315475463867,-1.8517286777496338,2.259800910949707
1772045501787120000,4.7451201171875,2.7005069255828857,-3.2283260822296143,4.368947505950928
1772045501797106000,4.75510595703125,1.8265177011489868,-3.0966484546661377,6.297538757324219
1772045501807092000,4.765092041015625,0.6331906318664551,-1.858677625656128,7.3664422035217285
1772045501817078000,4.775078125,-0.2271149754524231,-0.2386196404695511,7.2930989265441895
1772045501827064000,4.78506396484375,-0.47440892457962036,1.1891475915908813,6.27656888961792
1772045501837049900,4.7950498046875,-0.3144986927509308,2.085331439971924,4.824456691741943
1772045501847036200,4.8050361328125,-0.07191401720046997,2.2128992080688477,3.483572006225586
1772045501857022000,4.81502197265625,-0.03925109654664993,1.674674391746521,2.672494411468506
1772045501867008000,4.825008056640625,-0.2434132844209671,0.9001483917236328,2.584143877029419
1772045501876994000,4.834994140625,-0.5444536805152893,0.3268675208091736,2.9913434982299805
1772045501886980000,4.84497998046875,-0.8191558122634888,0.13446931540966034,3.5064237117767334
1772045501896966000,4.8549658203125,-0.9722376465797424,0.3245817720890045,3.8523783683776855
1772045501906952200,4.8649521484375,-0.9786084890365601,0.6884068250656128,3.9859113693237305
1772045501916938000,4.87493798828125,-0.880710780620575,0.9421288371086121,4.028907299041748
1772045501926923000,4.884923095703125,-0.7573614120483398,0.902535080909729,4.1059794425964355
1772045501936909000,4.894908935546875,-0.6941332221031189,0.5221896171569824,4.182006359100342
1772045501946895000,4.90489501953125,-0.7231057286262512,0.019929954782128334,4.167932510375977
1772045501956881200,4.914881103515625,-0.7981846332550049,-0.39151081442832947,4.023710250854492
1772045501966867000,4.924866943359375,-0.8623052835464478,-0.6232569217681885,3.7567105293273926
1772045501976853200,4.934853271484375,-0.9030554294586182,-0.6221408843994141,3.412987470626831
1772045501986839000,4.944839111328125,-0.9471072554588318,-0.38336318731307983,3.030898094177246
1772045501996825000,4.9548251953125,-1.0336049795150757,0.03420140966773033,2.585510730743408
1772045502006811100,4.96481103515625,-1.089621901512146,0.418179452419281,2.037585735321045
1772045502016797200,4.974797119140625,-1.0278021097183228,0.6420027017593384,1.4142125844955444
1772045502026783200,4.984783203125,-0.8583401441574097,0.6473168134689331,0.8446199297904968
1772045502036769000,4.99476904296875,-0.6247250437736511,0.43172207474708557,0.4622255265712738
1772045502046755000,5.004755126953125,-0.37322837114334106,0.08263493329286575,0.31397029757499695
1772045502056741000,5.0147412109375,-0.1552344411611557,-0.28144365549087524,0.36051225662231445
1772045502066727200,5.02472705078125,0.03319990634918213,-0.5481032729148865,0.527472198009491
1772045502076713000,5.034712890625,0.22501392662525177,-0.6749768853187561,0.7539281249046326
1772045502086699000,5.044698974609375,0.42138636112213135,-0.6954811215400696,0.9872143864631653
1772045502096685000,5.05468505859375,0.6092122197151184,-0.6660939455032349,1.166016697883606
1772045502106671000,5.064671142578125,0.7577828168869019,-0.6457415223121643,1.2609057426452637
1772045502116657000,5.074656982421875,0.857973575592041,-0.6192916035652161,1.2721154689788818
1772045502126643200,5.084643310546875,0.8737102150917053,-0.5715669393539429,1.2079691886901855
1772045502136629000,5.09462890625,0.8126323223114014,-0.525800883769989,1.073806643486023
1772045502146615000,5.104614990234375,0.6586342453956604,-0.4207859933376312,0.9000665545463562
1772045502156601000,5.11460107421875,0.4352564513683319,-0.2083885371685028,0.7200974822044373
1772045502166587100,5.124587158203125,0.19753576815128326,0.2056453973054886,0.5198307037353516
1772045502176573000,5.134572998046875,0.029142234474420547,0.8324522376060486,0.2931229770183563
1772045502186559200,5.144559326171875,-0.026941008865833282,1.5537649393081665,0.012961370870471
1772045502196545000,5.154544921875,-0.00007515028119087219,2.3308041095733643,-0.3300464153289795
1772045502206531000,5.164531005859375,0.11214832961559296,3.101997137069702,-0.7680836915969849
1772045502216517000,5.17451708984375,0.29562827944755554,3.8539798259735107,-1.277958869934082
1772045502226503200,5.184503173828125,0.4962335526943207,4.544143199920654,-1.8467720746994019
1772045502236489000,5.194489013671875,0.8359382748603821,4.849447727203369,-2.384526014328003
1772045502246475300,5.204475341796875,1.3380168676376343,4.532138347625732,-2.8569176197052
1772045502256461000,5.2144609375,1.6373907327651978,3.523026466369629,-3.059525966644287
1772045502266447000,5.224447021484375,1.5756464004516602,2.010643482208252,-2.784973621368408
1772045502276433200,5.23443310546875,1.2867462635040283,0.6731258630752563,-2.092613935470581
1772045502286419200,5.244419189453125,0.9948446750640869,0.14309395849704742,-1.0628483295440674
1772045502296405000,5.254405029296875,0.7154990434646606,0.8461682796478271,0.1846674382686615
1772045502306391000,5.26439111328125,0.4462074041366577,2.3104331493377686,1.2327885627746582
1772045502316377000,5.274377197265625,0.1254865676164627,3.6804776191711426,1.755630373954773
1772045502326363100,5.284363037109375,-0.1812821477651596,4.6114678382873535,1.8154876232147217
1772045502336348200,5.29434814453125,-0.38206958770751953,5.1301727294921875,1.6399282217025757
1772045502346334200,5.304334228515625,-0.4861792027950287,5.208357810974121,1.3997331857681274
1772045502356320300,5.3143203125,-0.5328649878501892,4.895601749420166,1.2500783205032349
1772045502366306000,5.32430615234375,-0.6055330634117126,4.3618245124816895,1.2493597269058228
1772045502376292400,5.334292236328125,-0.7275831699371338,3.8562495708465576,1.3313853740692139
1772045502386278100,5.344278076171875,-0.88365238904953,3.5151915550231934,1.4049451351165771
1772045502396264200,5.35426416015625,-1.0382970571517944,3.4350507259368896,1.3978968858718872
1772045502406250000,5.36425,-1.192399024963379,3.5521554946899414,1.3353451490402222
1772045502416236300,5.374236328125,-1.294695258140564,3.7163658142089844,1.2299271821975708
1772045502426221000,5.384220947265625,-1.3342159986495972,3.790630340576172,1.0771571397781372
1772045502436207000,5.39420703125,-1.313618540763855,3.785775661468506,0.8928678035736084
1772045502446193200,5.404193115234375,-1.2550997734069824,3.720973491668701,0.7178150415420532
1772045502456179200,5.41417919921875,-1.1731276512145996,3.644624948501587,0.614133358001709
1772045502466165000,5.4241650390625,-1.0676809549331665,3.5169644355773926,0.5889259576797485
1772045502476151300,5.4341513671875,-0.9538736343383789,3.3087501525878906,0.6426968574523926
1772045502486137000,5.44413720703125,-0.8479421734809875,3.0187456607818604,0.7523833513259888
1772045502496123100,5.454123046875,-0.7793722152709961,2.700098991394043,0.8752778172492981
1772045502506109000,5.46410888671875,-0.7437843680381775,2.4166765213012695,0.9968910217285156
1772045502516095200,5.47409521484375,-0.7278717756271362,2.256378412246704,1.0579248666763306
1772045502526081000,5.4840810546875,-0.7193795442581177,1.9554710388183594,1.0118303298950195
1772045502536067000,5.494067138671875,-0.7773230671882629,1.750548005104065,0.8990519046783447
1772045502546053000,5.50405322265625,-0.7876667976379395,1.563528299331665,0.7514938712120056
1772045502556039200,5.5140390625,-0.6669268608093262,1.392120361328125,0.624812126159668
1772045502566025000,5.52402490234375,-0.5558533668518066,1.4480669498443604,0.5934323668479919
1772045502576011300,5.53401123046875,-0.4006585478782654,1.652658462524414,0.5296915173530579
1772045502585997000,5.5439970703125,-0.25601667165756226,1.8825196027755737,0.4632760286331177
1772045502595983000,5.553983154296875,-0.15691658854484558,2.125487804412842,0.4277999997138977
1772045502605969200,5.56396923828125,-0.06579333543777466,2.3291573524475098,0.38087695837020874
1772045502615955200,5.573955078125,0.03860050439834595,2.493513822555542,0.26768770813941956
1772045502625941000,5.58394091796875,0.10065322369337082,2.4320061206817627,0.13918672502040863
1772045502635927300,5.59392724609375,0.050618186593055725,2.040419816970825,0.058281250298023224
1772045502645913000,5.6039130859375,-0.08961641788482666,1.4414986371994019,0.021756529808044434
1772045502655899100,5.613899169921875,-0.2588118016719818,0.8023194074630737,-0.03371249884366989
1772045502665885200,5.62388525390625,-0.4021497666835785,0.2646959125995636,-0.1576661318540573
1772045502675871200,5.633871337890625,-0.506089448928833,0.013973759487271309,-0.26240411400794983
1772045502685857000,5.64385693359375,-0.5370460152626038,0.2711637318134308,-0.26314765214920044
1772045502695843300,5.65384326171875,-0.487537682056427,0.8448708057403564,-0.16305091977119446
1772045502705829000,5.6638291015625,-0.35659167170524597,1.4255599975585938,-0.02264135330915451
1772045502715815200,5.673815185546875,-0.14409396052360535,1.8725944757461548,0.05497990921139717
1772045502725801200,5.68380126953125,0.1413273960351944,2.075213670730591,0.08799751847982407
1772045502735786200,5.6937861328125,0.47236213088035583,2.0627689361572266,0.11621630936861038
1772045502745772000,5.70377197265625,0.7872761487960815,1.8709840774536133,0.16764992475509644
1772045502755758000,5.713758056640625,1.0336576700210571,1.5976145267486572,0.25404757261276245
1772045502765744000,5.723744140625,1.169053316116333,1.2770605087280273,0.3643413186073303
1772045502775730200,5.733730224609375,1.2474716901779175,0.9354709386825562,0.47316932678222656
1772045502785716000,5.743716064453125,1.258772373199463,0.6702331304550171,0.5885879993438721
1772045502795702300,5.753702392578125,1.1624488830566406,0.4260079562664032,0.7226325273513794
1772045502805688000,5.76368798828125,0.9682549238204956,0.16652581095695496,0.8858973979949951
1772045502815674000,5.773674072265625,0.7006763815879822,-0.04791747033596039,1.0628589391708374
1772045502825660200,5.78366015625,0.4381702244281769,-0.1511778086423874,1.2032225131988525
1772045502835646200,5.793646240234375,0.23830683529376984,-0.12669511139392853,1.2685765027999878
1772045502845632000,5.803632080078125,0.10686147212982178,-0.04389317333698273,1.254820466041565
1772045502855618000,5.8136181640625,0.02495441399514675,-0.013114962726831436,1.1633210182189941
1772045502865604000,5.82360400390625,0.012094544246792793,-0.03788742050528526,0.9980990290641785
1772045502875590100,5.833590087890625,0.08341026306152344,-0.07964576035737991,0.8008824586868286
1772045502885576000,5.843575927734375,0.18086650967597961,-0.060646235942840576,0.6395663022994995
1772045502895562200,5.853562255859375,0.253490686416626,0.007887209765613079,0.5306898355484009
1772045502905548000,5.863548095703125,0.28879356384277344,0.0824194997549057,0.4411567449569702
1772045502915534000,5.8735341796875,0.2930620312690735,0.13953302800655365,0.36885589361190796
1772045502925520100,5.88352001953125,0.27295517921447754,0.21575909852981567,0.31426483392715454
1772045502935506200,5.893506103515625,0.23561625182628632,0.3177509009838104,0.281914085149765
1772045502945492000,5.903491943359375,0.1734631359577179,0.48021596670150757,0.36553680896759033
1772045502955478300,5.913478271484375,0.11104324460029602,0.4365728199481964,0.48224857449531555
1772045502965464000,5.923464111328125,0.09315319359302521,0.2771373689174652,0.6304649710655212
1772045502975450000,5.9334501953125,0.08170386403799057,-0.010738503187894821,0.7470711469650269
1772045502985436200,5.943436279296875,0.07015906274318695,-0.33084431290626526,0.8004451990127563
1772045502995421200,5.953421142578125,0.05469222366809845,-0.5340608358383179,0.7939385175704956
1772045503005407000,5.963406982421875,0.034980833530426025,-0.6471508741378784,0.7162331342697144
1772045503015393000,5.97339306640625,0.015491610392928123,-0.6507686972618103,0.6174419522285461
1772045503025379000,5.983379150390625,0.009684853255748749,-0.468406617641449,0.5499670505523682
1772045503035364600,5.993364501953125,0.004453492350876331,-0.3352825343608856,0.4595816135406494
1772045503045351000,6.003350830078125,0.02072726935148239,-0.28157296776771545,0.3561185896396637
1772045503055336700,6.013336669921875,0.011699330061674118,-0.2125476449728012,0.26243966817855835
1772045503065322800,6.02332275390625,-0.023999545723199844,-0.1679103970527649,0.17102718353271484
