time,seconds_elapsed,z,y,x
1772045232287446800,0.03544677734375,-0.25215339086055755,2.0605179870784283,-0.6388415088951588
1772045232297431800,0.045431884765625,-0.20555413677096365,0.6669768855333328,-0.29169278956651684
1772045232307417900,0.05541796875,-0.263260475808382,-0.2660807939261198,-0.09013941286951303
1772045232317404000,0.06540380859375,-0.3748451200276613,-0.40497108596116305,-0.3392863153904676
1772045232327389700,0.0753896484375,-0.616709172064066,0.11779840416759252,-0.6324158597618341
1772045232337376000,0.0853759765625,-0.9246247821569442,-0.18981909976154565,-0.9534934415057301
1772045232347361800,0.09536181640625,-0.9742465989381074,-0.256397312040627,-1.3480273046046494
1772045232357346800,0.105346923828125,-1.002350995916128,-0.03725333359539509,-1.264552610321343
1772045232367332600,0.11533251953125,-1.0104577300041913,0.3657259940266609,-1.025242334420979
1772045232377319000,0.12531884765625,-0.9715893624275922,0.6768748869523405,-0.9677829558819532
1772045232387304700,0.1353046875,-0.8807774571239948,0.699586192715168,-1.0206529608041048
1772045232397290800,0.145290771484375,-0.5789987423509358,0.48476212329566476,-1.184151916655898
1772045232407276000,0.155276123046875,-0.20183774659633635,0.19907529614567757,-1.6260437432572246
1772045232417261800,0.16526171875,0.25318098034262654,0.057709553907811635,-2.637327110430598
1772045232427247900,0.175247802734375,0.41174657144546506,-1.1987608722448349,-3.153842800861597
1772045232437234000,0.18523388671875,0.5237023870646953,-2.0485382109493018,-3.211057556989789
1772045232447220000,0.195219970703125,0.8883698119491338,-0.9982438528582454,-2.8251491911560294
1772045232457205800,0.205205810546875,1.0512971053928135,0.1811614537924528,-3.061491849422455
1772045232467190800,0.215190673828125,0.5189356110543012,0.4009527902305126,-2.342697975151241
1772045232477176800,0.2251767578125,0.388855525201559,0.29761311952620745,-1.6433309781447052
1772045232487163000,0.235162841796875,0.6571510725677013,0.405478450961411,-1.5050889208853244
1772045232497148700,0.245148681640625,1.0705325517386197,0.45929158195257186,-1.365857560327649
1772045232507135000,0.255135009765625,1.5740139885514974,0.47931408702284095,-1.3428373347461222
1772045232517120800,0.265120849609375,1.455237971523404,0.5506202046066522,-1.5788471077963708
1772045232527105800,0.275105712890625,3.3591818335771557,1.1249094540923834,-1.6500313525661825
1772045232537091800,0.285091796875,3.361182652005553,1.3633151823684573,-0.7772475245445967
1772045232547078000,0.295077880859375,3.0572172408431766,0.6067153090551495,2.1375421900480984
1772045232557064000,0.30506396484375,2.3874673834651707,0.0033510639935731886,3.3968235819682477
1772045232567049700,0.3150498046875,2.1801257787555457,0.004892740477621555,3.345553705719113
1772045232577034800,0.32503466796875,1.5605577101290224,0.13193272798210381,3.320523309358954
1772045232587020800,0.335020751953125,1.2615817778170109,-0.16015578290373086,3.4743408291518687
1772045232597006800,0.3450068359375,1.361974581414461,-0.8184279684558511,3.4413229411691426
1772045232606992600,0.35499267578125,1.715533167785406,-1.4871020132958888,2.987738046425581
1772045232616979000,0.36497900390625,2.1692735453516243,-1.7361717589274048,2.534161334988475
1772045232626964700,0.37496484375,2.2613076859265564,-1.6173177082270382,2.053046920545399
1772045232636949800,0.38494970703125,2.1080805332422257,-1.4689219212219118,1.5040689301878214
1772045232646935800,0.394935791015625,1.9667501545786856,-1.2699252432703971,0.9672908615160732
1772045232656921900,0.404921875,2.087163417419791,-1.1000856862202286,0.638779914901033
1772045232666908000,0.414907958984375,1.4978466946721076,-0.7726870847612619,0.4931557845663279
1772045232676893700,0.424893798828125,1.4493044898211955,-0.4596741515293717,0.5729685222759843
1772045232686880000,0.4348798828125,3.323381036877632,-0.30239363180100914,1.0173490969531238
1772045232696864800,0.44486474609375,4.05012119397819,0.17303455369919538,1.349755151310563
1772045232706850800,0.454850830078125,4.371707602027058,0.5566606538146734,1.9591903868488967
1772045232716836900,0.4648369140625,4.333880852457881,0.6576333031266928,2.609475226908922
1772045232726823000,0.474822998046875,4.236555619737506,0.7759060468077659,2.9404250911086796
1772045232736808700,0.48480859375,4.116116053411364,1.1085063085630535,2.9858631924644112
1772045232746793700,0.494793701171875,4.063033867043257,1.4499705525144935,3.046595601324737
1772045232756780000,0.504780029296875,4.109051521852613,1.6091136512443422,3.2805738685473798
1772045232766766300,0.514766357421875,3.9388136131346223,1.534151933762431,3.380852982637286
1772045232776752000,0.524752197265625,3.769081900373101,1.3687611728146671,3.4202427437394856
1772045232786738200,0.53473828125,3.793168293881416,1.5655995036885142,3.587584931015968
1772045232796724200,0.54472412109375,3.523839311814308,1.85736886562258,3.7120050914108753
1772045232806709200,0.554709228515625,3.4035032058626413,2.1618939564943314,3.4774931557029483
1772045232816695300,0.5646953125,2.9906238309949633,2.2368241097941994,3.548643498203158
1772045232826681300,0.574681396484375,2.3837349189385773,2.268598719717562,3.641053486353159
1772045232836667400,0.58466748046875,1.8317448872834443,2.301736434687674,3.3679841487139464
1772045232846653200,0.594653076171875,1.4200611519411206,2.2124828647419807,2.8277432993024587
1772045232856639500,0.604639404296875,1.0401932353153824,1.890086601614952,2.525251467823982
1772045232866624300,0.614624267578125,1.1892355035305022,1.5875874636128544,1.8450655566275118
1772045232876610300,0.6246103515625,1.3714258619792759,1.4636283448584377,1.5177876589387653
1772045232886596000,0.63459619140625,1.4508675013542174,1.3154432779945433,1.2838269273728131
1772045232896582400,0.64458251953125,1.422571527326852,1.2146819333456456,1.098037229257822
1772045232906568200,0.654568115234375,1.2632972034327685,1.178213101191446,1.038705919367075
1772045232916553200,0.66455322265625,0.7874168902508915,1.1504478730399161,0.7198439678460359
1772045232926539300,0.674539306640625,0.1694943968743086,1.2123995945621282,-0.2507411859750748
1772045232936525300,0.684525390625,-0.81623864171803,1.0817302375793456,-1.647781235551834
1772045232946511400,0.694511474609375,-1.8001415422737597,0.8150433675188571,-2.807816363561153
1772045232956497200,0.7044970703125,-2.662656197476387,0.5979946077872067,-4.040586472913622
1772045232966483500,0.7144833984375,-3.3548107788860797,0.5116654008556157,-5.163178882235289
1772045232976468200,0.72446826171875,-3.7338229554653166,0.6328127501249313,-5.915632157263159
1772045232986454300,0.734454345703125,-3.670279580837488,0.8696510829538107,-6.208278886553645
1772045232996440000,0.744440185546875,-3.1544834368526935,0.9790253576472401,-5.952685584372282
1772045233006426400,0.75442626953125,-2.3219886568605896,1.2377829690784214,-5.419537908092141
1772045233016412200,0.764412109375,-1.4581974058508873,1.4457827454358338,-4.815926702532172
1772045233026397200,0.774397216796875,-0.7738228107929229,1.6135694616094232,-4.444132202246785
1772045233036383200,0.78438330078125,-0.28268180011510846,1.8476938593044876,-4.476981163403392
1772045233046369300,0.794369384765625,0.012778817552328108,2.1864450449049473,-4.842161798506975
1772045233056355300,0.804355224609375,0.09890219971351324,2.5802912180006503,-5.463551821863651
1772045233066341000,0.814341064453125,0.13222586570978165,2.976209521195292,-6.202396258255839
1772045233076327400,0.824327392578125,0.11728095616474747,3.3202453692004084,-6.925027226471901
1772045233086312200,0.834312255859375,0.06316445831283926,3.5728970649719236,-7.807880905348062
1772045233096298200,0.84429833984375,-0.07820683688297868,3.491671026398241,-8.846731201621889
1772045233106284300,0.8542841796875,-0.157735716149956,3.0888381215095517,-9.6454014534235
1772045233116270300,0.864270263671875,-0.11464812344312666,2.5887317140877246,-10.496792657065392
1772045233126256000,0.874256103515625,0.02409749942421913,1.4313123215347527,-10.80120230486393
1772045233136241200,0.8842412109375,0.18342267672270535,0.10756956335902214,-10.81418102890253
1772045233146227500,0.8942275390625,0.4945113638937473,-1.4702356341689824,-10.806660570269823
1772045233156213200,0.904213134765625,1.0150758913241327,-3.102890612259507,-10.764394961470364
1772045233166199300,0.91419921875,1.551519686540216,-4.128534805479646,-10.492427447593212
1772045233176185300,0.924185302734375,1.915151046375185,-4.530723274984956,-9.844660289442539
1772045233186171400,0.93417138671875,1.9859820937931536,-4.354063224264979,-8.745528250685334
1772045233196156200,0.94415625,1.7836591940283775,-3.7028894725412127,-7.434152222129702
1772045233206142200,0.95414208984375,1.4360286825321613,-2.9331740970671176,-5.9740235559552906
1772045233216128300,0.964128173828125,1.040608976509422,-2.347821017253399,-4.439494021052122
1772045233226114300,0.9741142578125,0.6591910539627075,-1.9426701908111572,-3.0459979276925324
1772045233236100000,0.98410009765625,0.42086730488166213,-1.772990500497818,-1.9144769465059042
1772045233246086400,0.99408642578125,0.26072014367580415,-1.690848223862052,-1.039409099200368
1772045233256071400,1.004071533203125,0.15888488618507982,-1.7075930224359035,-0.33366029220223425
1772045233266057200,1.01405712890625,0.1363901457823813,-1.801192512631416,0.2683189282417297
1772045233276043300,1.024043212890625,0.13021262619122861,-1.9031196861892938,0.7479618088275194
1772045233286029300,1.034029296875,0.11424831047058105,-2.024974964532256,1.1709008054167032
1772045233296015400,1.044015380859375,0.08214403020143508,-2.1940052510261534,1.5877181042551993
1772045233306000100,1.054000244140625,0.05604176682606339,-2.330218140545487,1.9019903898984192
1772045233315986200,1.063986083984375,0.047727381336688995,-2.349654077899456,2.176178502434492
1772045233325972200,1.07397216796875,0.09190094264931976,-2.341667755320668,2.396088496816158
1772045233335958300,1.083958251953125,0.12925415642261504,-2.2540882560670377,2.496141108673811
1772045233345944000,1.093944091796875,0.15636786186285315,-2.1347288861930367,2.5729221505373716
1772045233355930400,1.103930419921875,0.18131759420223534,-2.0316735853880643,2.614749952441454
1772045233365915400,1.113915283203125,0.19558453142046928,-1.944298668795824,2.5819915921777485
1772045233375901200,1.123901123046875,0.23227497043609618,-1.8503063798904418,2.4507605827242136
1772045233385887500,1.133887451171875,0.3004921090286225,-1.7006524095177649,2.2204811700195073
1772045233395873300,1.143873291015625,0.46625784076862037,-1.5302327144920824,1.937157564869523
1772045233405859300,1.153859375,0.5268821861445904,-1.379561676031351,1.9967998404055833
1772045233415845000,1.16384521484375,0.6802735894799232,-1.0948837336629629,1.8536802402377128
1772045233425830400,1.173830322265625,0.7710520309053361,-0.7571276965796947,1.5754197636961935
1772045233435816200,1.183816162109375,0.7549882733982056,-0.5034475345432758,1.2920681014955042
1772045233445802200,1.19380224609375,0.6822212164163589,-0.2690916661798954,1.005812534546852
1772045233455788300,1.203788330078125,0.5352585309542716,-0.04622165294885635,0.7040484328210354
1772045233465774300,1.2137744140625,0.3743267952419817,0.2158043126285076,0.218036017203331
1772045233475759400,1.22375927734375,0.17859686400145292,0.3723305068582296,-0.32243221122324467
1772045233485745200,1.2337451171875,-0.011420534811168908,0.3709983814716339,-0.7337900756120681
1772045233495731500,1.2437314453125,-0.17571195621490476,0.31940789496600624,-1.1751806746929883
1772045233505717200,1.25371728515625,-0.3525765895962715,0.1814618980437517,-1.60922032648921
1772045233515703300,1.263703369140625,-0.5012111537933349,-0.04471124838590622,-2.0465672031372786
1772045233525689300,1.273689453125,-0.5972938391067087,-0.27950200103521344,-2.4140444247454402
1772045233535674400,1.28367431640625,-0.6212780874148011,-0.389392700818181,-2.7230583514690396
1772045233545660200,1.29366015625,-0.6049354399010539,-0.3849813141167164,-2.8733763387084004
1772045233555646200,1.303646240234375,-0.595710807698965,-0.2936415855467319,-2.92401171644628
1772045233565632300,1.31363232421875,-0.5724798619762063,-0.1063642792224884,-2.862435257977247
1772045233575618300,1.323618408203125,-0.5665054637417197,0.17697335445284842,-2.7067829239726064
1772045233585604000,1.33360400390625,-0.5289171991035342,0.5417196897923946,-2.4308967753469943
1772045233595589000,1.343589111328125,-0.4992249484121799,0.8887328000426292,-2.0717858155459163
1772045233605575400,1.353575439453125,-0.3322711759313941,1.2629904755711554,-1.8175871825933456
1772045233615561200,1.363561279296875,-0.0471150946572423,1.921282534867525,-1.8858236834734676
1772045233625547300,1.37354736328125,0.17353548895865678,2.7215888634383676,-2.022658504283428
1772045233635533300,1.383533203125,0.20369915655404328,3.303123261746764,-1.9039818559765815
1772045233645519400,1.393519287109375,-0.03387859646528959,3.5134500197470184,-1.5280150384426117
1772045233655504100,1.403504150390625,-0.5211375050127506,3.275965205708146,-1.0036001191943884
1772045233665490200,1.413490234375,-1.096332763427496,2.5713223141252994,-0.4966203188717365
1772045233675476200,1.423476318359375,-1.5729168409645558,1.5902829863071442,-0.1855798547565937
1772045233685462300,1.433462158203125,-1.8153126617901025,0.5530085610479116,-0.07854220631718635
1772045233695448000,1.443447998046875,-1.8882282603971658,-0.44329614044129845,-0.17819091354906558
1772045233705433300,1.453433349609375,-1.8161973356701433,-1.3428355811804533,-0.4462234260648489
1772045233715419400,1.46341943359375,-1.6291002082183956,-2.0566718330442906,-0.7713789247721433
1772045233725405200,1.4734052734375,-1.3924223266482352,-2.5331805072575806,-1.1087655440211295
1772045233735391500,1.4833916015625,-1.1370052578166125,-2.7817314897119996,-1.4044190539121626
1772045233745377300,1.493377197265625,-0.9021347179293632,-2.8612188679248094,-1.4444792616218327
1772045233755363300,1.50336328125,-0.6999123559296131,-2.7417852637708187,-1.3327064013540744
1772045233765347600,1.51334765625,-0.6198842949688435,-2.432142976015806,-1.0732909105360506
1772045233775333400,1.52333349609375,-0.6375676895670592,-2.024969119313359,-0.742315327373147
1772045233785319700,1.533319580078125,-0.7050067564591765,-1.6256570820271967,-0.3948112187355757
1772045233795305500,1.543305419921875,-0.748303754132986,-1.2740484606802462,-0.10331599756777286
1772045233805291500,1.55329150390625,-0.7381225518584251,-0.9654214874476194,0.1242629240065813
1772045233815277600,1.563277587890625,-0.7314535954885184,-0.6718062053859234,0.3189987296432257
1772045233825263600,1.573263671875,-0.7625826009847223,-0.44158933652341364,0.5355594135969877
1772045233835248400,1.583248291015625,-0.8661213013924658,-0.23262100739479064,0.7477823606073856
1772045233845234700,1.593234619140625,-1.0118182047024369,0.02802314843535423,0.955537806814909
1772045233855220500,1.603220458984375,-1.2229320214271544,0.27633973761200903,1.1874649867266416
1772045233865206500,1.61320654296875,-1.3947110221073031,0.47280631256401534,1.4116034124583006
1772045233875192300,1.6231923828125,-1.527423210029304,0.6231774912953376,1.6015929003506897
1772045233885178600,1.6331787109375,-1.6199908729590475,0.7117348956704139,1.7554320474535225
1772045233895163600,1.64316357421875,-1.629978160096705,0.7675245874315499,1.8584060997158287
1772045233905149400,1.6531494140625,-1.553880132061243,0.7862631901711225,1.8997768055021762
1772045233915135700,1.6631357421875,-1.4065655644215642,0.7828864072144031,1.8087924662411212
1772045233925121500,1.67312158203125,-1.3362977038443087,0.7004992159068584,1.6954969264507294
1772045233935107600,1.683107666015625,-1.326216747073829,0.5712853914946318,1.5525515138059853
1772045233945093600,1.69309375,-1.3372365921296179,0.3805067990511656,1.4136515771597622
1772045233955078700,1.70307861328125,-1.3497314781740306,0.1272995152235031,1.2797311824917792
1772045233965064400,1.713064453125,-1.3461328691601753,-0.13828268153071402,1.1713345206588506
1772045233975050500,1.723050537109375,-1.3466615692093968,-0.3975876977115869,1.0350964966982603
1772045233985036500,1.73303662109375,-1.3482897549331188,-0.6417097578078508,0.8909627510517835
1772045233995022600,1.743022705078125,-1.3367863641440867,-0.8439315352857112,0.7392050863981247
1772045234005008400,1.75300830078125,-1.3026993856251239,-0.9555839840441942,0.5736094505280256
1772045234014993400,1.762993408203125,-1.273224869337678,-0.9787608614921569,0.4305968178659677
1772045234024979700,1.772979736328125,-1.2399103364959358,-1.036437974435091,0.30573475892245766
1772045234034965500,1.782965576171875,-1.1710127413585782,-1.128615907394886,0.21362989119887352
1772045234044951600,1.79295166015625,-1.0352195385560392,-1.2041402271956205,0.15844225698411463
1772045234054937600,1.8029375,-0.9002613252729177,-1.2804583277225494,0.03485270219445229
1772045234064923600,1.812923583984375,-0.8094400676190853,-1.369789054557681,-0.10502747766077518
1772045234074908400,1.822908447265625,-0.7774325257226824,-1.4994383477777242,-0.24050796125233173
1772045234084894500,1.83289453125,-0.7801461685955524,-1.61942198702991,-0.36548575552999973
1772045234094880500,1.842880615234375,-0.7741235473051666,-1.8322551748931406,-0.4729349073797464
1772045234104866600,1.852866455078125,-0.7311717098072171,-1.9912416217565536,-0.6424269661664962
1772045234114852400,1.862852294921875,-0.6652744655296207,-2.026860632148385,-0.8928314675331115
1772045234124838700,1.872838623046875,-0.6039905602663755,-1.9034312363564967,-1.2088088035285471
1772045234134824400,1.882824462890625,-0.5294494062840939,-1.6506284416764974,-1.5369325043916702
1772045234144809500,1.8928095703125,-0.46581221589297056,-1.34899585737586,-1.8282418475985527
1772045234154795500,1.90279541015625,-0.4680392442926764,-1.0419465087234974,-2.045738351097703
1772045234164781600,1.912781494140625,-0.49028176349997515,-0.8883604595988989,-2.1644500707179306
1772045234174767600,1.922767578125,-0.5430898091018199,-0.9696499187976121,-2.253669738394022
1772045234184753400,1.93275341796875,-0.5167679116263986,-1.0970254218667745,-2.529143799087405
1772045234194739500,1.942739501953125,-0.2685132817700505,-0.9421721292853354,-3.205177266779542
1772045234204724500,1.952724365234375,0.007338087803125381,-0.4598498003572225,-4.035024747133255
1772045234214710500,1.96271044921875,0.25039193414598704,0.20320435877442358,-4.791583119392395
1772045234224696600,1.972696533203125,0.33514702362865206,1.0190548779577016,-5.424377164816856
1772045234234682600,1.9826826171875,0.029630291371047494,1.5674901397407055,-5.770584219381213
1772045234244668400,1.99266845703125,-0.551549594411254,1.5424714338183403,-5.677569835597277
1772045234254654500,2.002654541015625,-1.2023016135916114,1.0456184752345083,-5.331650950324535
1772045234264640500,2.012640625,-1.7259952328279613,0.3426502388656139,-5.09594249830842
1772045234274625500,2.02262548828125,-2.0517346689030527,-0.26360417467951774,-5.059572377288341
1772045234284611600,2.032611572265625,-2.1606457099989056,-0.7565151176393031,-5.095056947645545
1772045234294597600,2.04259765625,-2.2120094020113346,-1.2136591661691665,-4.989794492185116
1772045234304583400,2.05258349609375,-2.2422002498745917,-1.5094430244415997,-4.70915793416202
1772045234314569500,2.062569580078125,-2.3122812095776197,-1.6161030717402696,-4.245898617622256
1772045234324555500,2.072555419921875,-2.4035291682109237,-1.5365081414997577,-3.596787059125304
1772045234334541600,2.08254150390625,-2.4174267606601116,-1.3408639888465403,-2.7861282633662223
1772045234344526600,2.092526611328125,-2.3727552597627044,-1.1160171225845814,-2.0541712484002113
1772045234354512400,2.102512451171875,-2.4172905670598146,-0.9246002322375774,-1.5724708507627247
1772045234364498700,2.112498779296875,-2.4597408847764135,-0.8225111461162566,-1.2292828517585992
1772045234374484500,2.122484375,-2.466509355998039,-0.8044283769369125,-1.0246668726205825
1772045234384470500,2.132470458984375,-2.4039509007543325,-0.8124445101320743,-1.0550438907057047
1772045234394456600,2.14245654296875,-2.317073996812105,-0.8261872042804956,-1.2218880653321742
1772045234404442600,2.152442626953125,-2.277916875422001,-0.8953069177359342,-1.3138006253540515
1772045234414427400,2.162427490234375,-2.294962995029986,-1.0177455489248037,-1.2969956210255622
1772045234424413400,2.172413330078125,-2.296589134927094,-1.1766197675853967,-1.1788713459044695
1772045234434399500,2.1823994140625,-2.2837141635239124,-1.2699638217151163,-0.9935252999037504
1772045234444385500,2.192385498046875,-2.17303932762593,-1.2885334976285696,-0.8102665815711021
1772045234454371300,2.202371337890625,-2.00817317507416,-1.3611603424221277,-0.66582596193254
1772045234464357600,2.212357666015625,-1.9685878913998602,-1.3694278200298546,-0.4338356536567211
1772045234474343400,2.222343505859375,-1.9180884150013326,-1.2388906380593776,-0.040807811206579205
1772045234484328400,2.232328369140625,-1.8888126361563802,-1.0924211429417132,0.36424247747063637
1772045234494314500,2.242314453125,-1.8647294575184583,-0.8497188865154981,0.740545395091176
1772045234504300500,2.252300537109375,-1.9565838576123118,-0.7007131509184837,1.013783659556508
1772045234514286600,2.26228662109375,-1.8742814219787716,-0.7030091529011726,1.2033657356917857
1772045234524272400,2.2722724609375,-1.7761220765218138,-0.7169628594517707,1.1504004537016153
1772045234534258700,2.2822587890625,-1.729753708578646,-0.3647100949823856,1.2631833677947522
1772045234544244500,2.292244384765625,-1.784376110126078,-0.3790951786875725,1.3928823453754187
1772045234554229500,2.3022294921875,-1.853198594200611,-0.2735433848917484,1.4143582641243935
1772045234564215300,2.31221533203125,-1.9164254502251743,-0.08029869459569454,1.3116349717527627
1772045234574201600,2.32220166015625,-1.9819687664985655,0.07625789477229118,1.1363561462581158
1772045234584187400,2.3321875,-1.99221777331233,0.1464841081649065,0.8372247311234474
1772045234594173400,2.34217333984375,-1.9810329469531773,0.1537035380244255,0.4981190329968929
1772045234604159500,2.352159423828125,-1.960445501476526,0.1438128431290388,0.115078331553936
1772045234614145500,2.3621455078125,-1.8998028167262673,0.20866905392110346,-0.3335200069487095
1772045234624130600,2.372130615234375,-1.8778984434321522,0.3070288903862238,-0.7550608271777629
1772045234634116400,2.382116455078125,-1.9002356551855801,0.41102410238981246,-1.1706933001458644
1772045234644102700,2.3921025390625,-1.9283800919130443,0.5831418335050345,-1.5504641861379145
1772045234654088400,2.40208837890625,-1.998434163609147,0.8540127843171358,-1.903622375014424
1772045234664074500,2.412074462890625,-2.0824586007297037,1.200730126491189,-2.2158383126497267
1772045234674060500,2.422060546875,-2.245256130313873,1.594587405502796,-2.4834248349636794
1772045234684046600,2.432046630859375,-2.4548937370061874,2.0337544833153487,-2.745091319578886
1772045234694032400,2.442032470703125,-2.7460537348702547,2.4033555652096865,-2.9329689298838377
1772045234704017400,2.452017333984375,-3.102733960393071,2.626588274273276,-2.993168254780769
1772045234714003500,2.46200341796875,-3.515148640358448,2.7616233521848916,-2.9715654947817325
1772045234723989500,2.471989501953125,-3.913569866284728,2.7274244377240535,-2.8350901549339294
1772045234733975300,2.481975341796875,-4.022573261839151,2.4898347020059823,-2.5552438705056906
1772045234743961600,2.491961669921875,-3.6155198166459797,2.422007074187696,-2.5189170041054485
1772045234753947400,2.501947509765625,-3.1489307711616155,2.8345594090580937,-2.728595527330041
1772045234763934200,2.511934326171875,-2.9759903254866598,3.059043871748447,-2.392386135166883
1772045234773920000,2.521919921875,-3.0211142463266847,2.839140307107568,-1.5383546461492776
1772045234783905000,2.531905029296875,-3.208110397621989,2.5323279820814726,-0.6243161399364471
1772045234793891000,2.54189111328125,-3.3814909882798787,2.2516841175347566,0.1225116964250803
1772045234803877000,2.551877197265625,-3.4870232005923985,2.0646461729243395,0.664262950399518
1772045234813863000,2.56186279296875,-3.573748713365197,1.9437153159499168,1.0963070444643497
1772045234823849200,2.57184912109375,-3.6494177023336287,1.7221274514839051,1.5213321996778248
1772045234833835000,2.5818349609375,-3.612534955616295,1.3854311525866387,1.8965981754660606
1772045234843821000,2.591821044921875,-3.404528749518096,1.0717109478682278,2.1107927148103713
1772045234853806300,2.601806396484375,-2.994130670072138,0.9183645527184009,2.1318594682365655
1772045234863792000,2.611792236328125,-2.431395080257952,0.964236077055335,1.980908443790674
1772045234873778200,2.621778076171875,-1.859043813097477,1.1121464186310768,1.7761171080857514
1772045234883764000,2.631763916015625,-1.3643261129766702,1.3056371926426886,1.617583081164956
1772045234893750300,2.641750244140625,-1.0342869338810443,1.465139187812805,1.5331693524658678
1772045234903736000,2.651736083984375,-0.7248319853916764,1.521745748914778,1.4329799624860287
1772045234913722000,2.66172216796875,-0.4519765827640891,1.4845543746396899,1.2615052054494618
1772045234923708200,2.671708251953125,-0.1256941258534789,1.3601780533865093,1.083831593772769
1772045234933693200,2.681693115234375,0.1958501966193318,1.2021394087672232,0.8981295739412307
1772045234943679000,2.691678955078125,0.45743981660604477,1.020766065789759,0.7270283263921737
1772045234953665300,2.701665283203125,0.5973283258982003,0.8734773632436991,0.5716495486319064
1772045234963651000,2.711651123046875,0.6121876029863953,0.7678387679472565,0.4750537992298603
1772045234973637000,2.72163720703125,0.47109950864613054,0.6677154289409518,0.47690264196693893
1772045234983623000,2.731622802734375,0.23714082290679214,0.6554235181227326,0.6244581787556409
1772045234993609200,2.741609130859375,-0.021584932081401345,0.594352963349223,0.8757885627955198
1772045235003595000,2.751594970703125,-0.24751784001439808,0.5067030292078852,1.0937357326716184
1772045235013580000,2.761580078125,-0.3992077001288533,0.4401496591091156,1.276046356499195
1772045235023566300,2.77156640625,-0.5072784910082817,0.36617139970660206,1.447563783633709
1772045235033552100,2.78155224609375,-0.5642328426346183,0.27863983124792574,1.5715888072311877
1772045235043538200,2.7915380859375,-0.5706254662811756,0.16367226659208536,1.6246043581038712
1772045235053524200,2.801524169921875,-0.509583991471678,0.015801964765787123,1.6494646585941313
1772045235063510300,2.81151025390625,-0.3594754091992974,-0.13903028502762316,1.6664514492303133
1772045235073496000,2.82149609375,-0.15464695635437964,-0.2510302320495248,1.637570222660899
1772045235083481000,2.831481201171875,0.01852262190133333,-0.34679157645404335,1.5736130065351723
1772045235093467100,2.841467041015625,0.1281866733215749,-0.4114560640662908,1.5940461382329463
1772045235103453200,2.851453125,0.20079057563096284,-0.47305853375941515,1.635932976847887
1772045235113439000,2.86143896484375,0.27518267653137446,-0.4714800323963165,1.6092998214662073
1772045235123425300,2.87142529296875,0.3210007171154022,-0.41044717928469177,1.5432815811574458
1772045235133411000,2.8814111328125,0.3514411558255553,-0.27019582802951336,1.378379188248515
1772045235143397000,2.891397216796875,0.3231049959182739,-0.09468319377899169,1.1191834776610134
1772045235153383200,2.901383056640625,0.2850304090678692,0.030414135225117205,0.8081576265931129
1772045235163368200,2.9113681640625,0.24796105373725294,0.10129179826378822,0.4562573288232088
1772045235173354200,2.921354248046875,0.2586813313245773,0.06023147360086441,0.08055822231471538
1772045235183340000,2.931340087890625,0.3529061138115823,-0.09069441640377045,-0.15293839887082575
1772045235193326300,2.941326416015625,0.508687042631954,-0.2512985275968909,-0.32052783890664577
1772045235203312000,2.95131201171875,0.7526314080737531,-0.34744887131899593,-0.45878772408366203
1772045235213298200,2.961298095703125,0.9473508470974862,-0.49596097818017004,-0.4595248061865568
1772045235223284200,2.9712841796875,1.0848106679379939,-0.6500374411702156,-0.4531377354979515
1772045235233270300,2.981270263671875,1.2235142052292822,-0.7880231855809688,-0.4630582410097122
1772045235243255000,2.991255126953125,1.3340952253639697,-0.8912357227742671,-0.5258545966625213
1772045235253241000,3.001240966796875,1.4170505719482898,-0.8991595015108584,-0.6823726075857878
1772045235263227100,3.01122705078125,1.467977626109123,-0.7718991492539644,-0.9167693924814462
1772045235273213200,3.021213134765625,1.4142062884330748,-0.5559539668500423,-1.1577969936937094
1772045235283199000,3.031198974609375,1.2913713514029979,-0.3575573006182909,-1.4018880741298199
1772045235293185300,3.041185302734375,1.0550585037529467,-0.21743512870073317,-1.6205144584417341
1772045235303171000,3.051171142578125,0.785467655879259,-0.19196224927008151,-1.791828471958637
1772045235313156000,3.061156005859375,0.4868424367010593,-0.3667582596838474,-1.9018699783891437
1772045235323142100,3.07114208984375,0.2171498820185661,-0.6845470290154219,-2.007408328181505
1772045235333128200,3.081128173828125,0.19187763972654936,-0.8434118953257799,-2.305356086489558
1772045235343114200,3.0911142578125,0.23016718450188636,-0.6192798993349075,-2.736103711003065
1772045235353100000,3.10110009765625,0.17630115427970885,-0.4788789104759693,-2.934883239072561
1772045235363086300,3.11108642578125,0.10483516995906829,-0.40532618300914763,-3.0217969678938386
1772045235373072100,3.121072021484375,0.03133402654901147,-0.18549334551692007,-3.160392368635535
1772045235383058200,3.13105810546875,-0.05356580516658723,0.13690028726160525,-3.323349472695589
1772045235393044200,3.141044189453125,-0.25789697601385414,0.2931576014220714,-3.3147850579679012
1772045235403029200,3.151029296875,-0.5406605361282825,0.12835165462493897,-3.111009621307254
1772045235413015000,3.16101513671875,-0.7882276221118867,-0.27606092067062854,-2.8684084871679545
1772045235423001000,3.1710009765625,-0.9075228407084941,-0.7487994286954403,-2.719727161219716
1772045235432987100,3.180987060546875,-0.8581118901990353,-1.1203683035314083,-2.657449276483059
1772045235442973200,3.19097314453125,-0.7495147373579442,-1.38085054679811,-2.587404264876246
1772045235452959000,3.200958984375,-0.6263420928061008,-1.5453221470743417,-2.5018834517180917
1772045235462945300,3.2109453125,-0.5726056803129613,-1.5693886668384074,-2.4016472999870775
1772045235472930300,3.220930419921875,-0.6624293052315712,-1.4961270312726498,-2.2426801423460243
1772045235482916000,3.230916015625,-0.8785469215929508,-1.332408879712224,-2.0608903275221584
1772045235492902100,3.240902099609375,-1.162596502929926,-1.1336404575586319,-1.8491046028852463
1772045235502888200,3.25088818359375,-1.4504197575867175,-0.9073381317913531,-1.6621873620450496
1772045235512874200,3.260874267578125,-1.7268262768246232,-0.7595213137179613,-1.481730257129669
1772045235522860000,3.270860107421875,-1.9282303081788121,-0.6857511441081762,-1.4204478131711482
1772045235532846300,3.280846435546875,-2.0759319754399357,-0.6127163030356169,-1.428299695715308
1772045235542832000,3.29083203125,-2.2219370679162442,-0.6450730967611074,-1.3653420120209454
1772045235552817200,3.300817138671875,-2.2948902220547196,-0.8175427100539207,-1.2318664385110139
1772045235562803000,3.310802978515625,-2.3475042063891887,-1.0142425092399119,-1.0691337908565997
1772045235572789200,3.320789306640625,-2.3468634242676196,-1.1800123326331375,-0.8427104690581559
1772045235582775000,3.330775146484375,-2.2688016949437557,-1.2888935631126164,-0.515454198679328
1772045235592761000,3.340760986328125,-2.103738558515161,-1.364005794981122,-0.15408055464327333
1772045235602747100,3.3507470703125,-1.9094740236520766,-1.45860247952044,0.12024784314632415
1772045235612733200,3.360733154296875,-1.6667022091209887,-1.4800515102624892,0.3953969096690416
1772045235622718200,3.37071826171875,-1.350827748978138,-1.444846341368556,0.7911608990848064
1772045235632704300,3.380704345703125,-1.0959304662369191,-1.3469944544255732,1.167238191255927
1772045235642690300,3.390690185546875,-0.8691432064969092,-1.214611352327466,1.5124913060963152
1772045235652676000,3.400676025390625,-0.7142788810648024,-1.0825655193597077,1.8195833248466253
1772045235662662100,3.410662109375,-0.6025077743627131,-0.93949677259624,2.1367665295004845
1772045235672648200,3.420648193359375,-0.508538720202446,-0.7869000267699361,2.4409599041998384
1772045235682634200,3.43063427734375,-0.47472982797250146,-0.6740998692810535,2.620003635185957
1772045235692620000,3.4406201171875,-0.4131939937748015,-0.5180763638764619,2.8007880723595617
1772045235702605300,3.450605224609375,-0.30962131803222,-0.40091128917634483,2.8836440502226353
1772045235712591000,3.460591064453125,-0.21564882980585098,-0.41793110529929395,2.694275324577093
1772045235722577200,3.4705771484375,-0.08306976674422621,-0.38658202731162306,2.4635581049770114
1772045235732563200,3.480563232421875,0.11108970030918716,-0.25576135222464796,2.3360756344020364
1772045235742549200,3.49054931640625,0.26771219452023504,-0.10783113690465689,2.1465233688831327
1772045235752535000,3.50053515625,0.39579255792312323,-0.06064414605498313,1.9016279863268135
1772045235762521000,3.51052099609375,0.5242122362829744,0.030762218010425564,1.7003098796904086
1772045235772506400,3.52050634765625,0.6246691911578178,0.22230098117142916,1.5364233858257532
1772045235782491400,3.530491455078125,0.6428311630532145,0.4330474258884787,1.3789841684043407
1772045235792477700,3.540477783203125,0.5637069190643728,0.6296826354056596,1.240804947248101
1772045235802463500,3.55046337890625,0.41229485297799107,0.8415501931071281,0.9757377142786979
1772045235812449500,3.560449462890625,0.13215689212679863,1.132480181607604,0.5695271496504545
1772045235822435600,3.570435546875,-0.1810546324171126,1.4499290514603256,0.07009118883609772
1772045235832421600,3.580421630859375,-0.47705505604967474,1.8285463835030793,-0.5471183339655399
1772045235842407400,3.590407470703125,-0.7938485307335853,2.220131041407585,-1.1828905184179543
1772045235852392400,3.600392333984375,-1.114185084851831,2.4736270790487525,-1.6940964120030402
1772045235862378500,3.61037841796875,-1.4448913495540618,2.551742876647413,-2.078752731949091
1772045235872364500,3.620364501953125,-1.7536477943852542,2.5074714809834955,-2.300983278232813
1772045235882350300,3.630350341796875,-1.973282771217823,2.2966826584294435,-2.3823615847587583
1772045235892336600,3.640336669921875,-2.077935716477781,2.0673150998726486,-2.5028093343913556
1772045235902322400,3.650322509765625,-2.003301477384567,2.027382610195875,-2.7995003706365824
1772045235912308500,3.66030859375,-1.9192472296476364,2.132928851033747,-3.0886107424944638
1772045235922293500,3.67029345703125,-1.9103649811424315,1.955943806143105,-3.0290245810598133
1772045235932279600,3.680279541015625,-1.9607285562016068,1.65599435262382,-2.8902169988721607
1772045235942265600,3.690265625,-1.984997905061394,1.4505655957981942,-2.8027392064273355
1772045235952251400,3.70025146484375,-1.9772610271990299,1.3094880228519439,-2.724402751815319
1772045235962237700,3.71023779296875,-1.8941662721440196,1.0873726273804902,-2.538653970232606
1772045235972223500,3.720223388671875,-1.7159283045828342,0.839815916660428,-2.251321129441261
1772045235982209500,3.73020947265625,-1.4500266666159032,0.6710609399765729,-1.9898329240024089
1772045235992195600,3.740195556640625,-1.2018319502532482,0.4853501523166895,-1.6893103467702864
1772045236002180600,3.7501806640625,-0.9711668992318212,0.2484907766997814,-1.3718448180437086
1772045236012166400,3.76016650390625,-0.7908639619648457,0.01858896513581276,-1.0579010337024926
1772045236022152400,3.77015234375,-0.5955670153141022,-0.17870061663687228,-0.8249778284907341
1772045236032138500,3.780138427734375,-0.39334947561994194,-0.27394319786429405,-0.7077554706454277
1772045236042124500,3.79012451171875,-0.2246798391319811,-0.2784562913745642,-0.6549906796634197
1772045236052110300,3.8001103515625,-0.09912205300927161,-0.2904021652340889,-0.5850947211384773
1772045236062096600,3.8100966796875,0.0013045067273080347,-0.31255408354848624,-0.45292087787687774
1772045236072081700,3.82008154296875,0.11619257640615105,-0.35957097852826114,-0.28588088841736314
1772045236082067500,3.8300673828125,0.24778233616948125,-0.3976148779794574,-0.10558511154353618
1772045236092053500,3.840053466796875,0.37486923155561086,-0.40336394302546974,0.09975275212824344
1772045236102039600,3.85003955078125,0.4934310213111341,-0.39889088926464317,0.3573176466435194
1772045236112025600,3.860025634765625,0.5608676039852202,-0.3554427926823497,0.6595745003223419
1772045236122011400,3.870011474609375,0.5650304227530956,-0.28214433223754165,0.9868658420145511
1772045236131997700,3.879997802734375,0.4533914179980755,-0.1468871360078454,1.3650865759551525
1772045236141982500,3.889982421875,0.26578210324048995,-0.043351065948605536,1.755151476946473
1772045236151968500,3.899968505859375,0.08413622693195938,0.05044073194861412,2.1257196503072975
1772045236161954300,3.909954345703125,-0.04792611877918243,0.17941227203756568,2.46771990083158
1772045236171940600,3.919940673828125,-0.10397241564989089,0.296474470885098,2.786950685665011
1772045236181926400,3.929926513671875,-0.10806742987856269,0.40277562174350023,3.1103555413126944
1772045236191912400,3.939912353515625,-0.09290259397253393,0.47922027125954625,3.399620226949453
1772045236201898500,3.9498984375,-0.07223645723648368,0.509461680266261,3.6413743888705965
1772045236211883500,3.959883544921875,-0.07608838342428206,0.5274228688925504,3.831111947828531
1772045236221869600,3.96986962890625,-0.07288038116320968,0.53231005641222,3.9849370664060113
1772045236231855600,3.979855712890625,-0.0461409889280796,0.5683408624753356,4.1461861975044005
1772045236241841700,3.989841552734375,0.007832593321800231,0.5610360924199224,4.294501028227806
1772045236251827500,3.999827392578125,0.05963540740385651,0.601358165936172,4.352031426176429
1772045236261813500,4.0098134765625,0.06532265926003455,0.6836950883612036,4.387017983883619
1772045236271799600,4.019799560546875,-0.01564882003068924,0.7037044416889547,4.364993199080229
1772045236281784600,4.02978466796875,-0.1072574286699295,0.7179723287552595,4.16963078597784
1772045236291770400,4.039770263671875,-0.13410802619457243,0.811285110963881,3.8957518855214115
1772045236301756700,4.049756591796875,-0.1026479621130973,0.9013006051927804,3.6204438290446994
1772045236311742500,4.059742431640625,0.015363573348522185,0.9478945985853672,3.326111338624358
1772045236321728500,4.069728515625,0.17729148049131035,1.029121513941884,3.0274796897053715
1772045236331714600,4.079714599609375,0.3048281654715538,1.1295496811136603,2.7666479023486374
1772045236341700600,4.08970068359375,0.4139478808820247,1.1868620523974298,2.485010058328509
1772045236351685600,4.099685546875,0.5005706639327109,1.121096033284068,2.155199427291751
1772045236361671400,4.10967138671875,0.6169849202655255,0.9631476972967385,1.7660557327985762
1772045236371657700,4.11965771484375,0.7342590082980692,0.8291720653101802,1.2920716086268424
1772045236381643500,4.1296435546875,0.7845522946000099,0.6010641514256596,0.7750169890135526
1772045236391629600,4.139629638671875,0.8221475735008716,0.3346525181099772,0.22643676580190658
1772045236401615600,4.14961572265625,0.8709154038012027,0.15962854415923355,-0.3905927242577076
1772045236411601700,4.1596015625,0.9388695806086063,0.07142682135403156,-1.0394891786992548
1772045236421586400,4.16958642578125,1.0108114388126879,0.05527209762781858,-1.6233523122161626
1772045236431572500,4.179572509765625,1.0347499482829123,0.14978899492919445,-2.119620748910308
1772045236441558500,4.18955859375,1.0008253937840461,0.28108780892193314,-2.5324942785590885
1772045236451544600,4.199544677734375,0.9333878612618893,0.4150748390853405,-2.86166485812664
1772045236461530400,4.2095302734375,0.8272550527077168,0.5339034630835056,-3.061688833299279
1772045236471516700,4.2195166015625,0.7679121254444122,0.5855366196870804,-3.334080125546455
1772045236481502500,4.22950244140625,0.8915092059534042,0.7903431529611349,-3.8600112945765255
1772045236491487500,4.239487548828125,0.9725695325713604,1.0754133095175027,-4.360300072827935
1772045236501473500,4.2494736328125,0.8894833992142229,0.9548790506452322,-4.568546517422795
1772045236511459600,4.25945947265625,0.7872562197964638,0.5389443798601627,-4.626834455740451
1772045236521445600,4.269445556640625,0.6523240908026695,0.040005847173929215,-4.612504317092895
1772045236531431400,4.279431396484375,0.5712264278490096,-0.3832949684649706,-4.612568614500761
1772045236541417500,4.28941748046875,0.5295066894292831,-0.7395312496125698,-4.628185870349407
1772045236551403500,4.299403564453125,0.4523392785966396,-1.0356512079715727,-4.5481478725165125
1772045236561388500,4.309388427734375,0.37387064897231753,-1.3710434385329484,-4.371855486065149
1772045236571374300,4.319374267578125,0.29881686929278073,-1.743588464924693,-4.137361086013913
1772045236581360600,4.329360595703125,0.26810499323010445,-2.067534003320336,-3.871806361788511
1772045236591346400,4.339346435546875,0.287156899702549,-2.2924551038622853,-3.6510756986737247
1772045236601332500,4.34933251953125,0.31007476088814434,-2.4324521880954504,-3.4353339298874137
1772045236611318500,4.359318603515625,0.30601584088616074,-2.5261703362345695,-3.2122084805905815
1772045236621303600,4.369303466796875,0.27866255453638733,-2.594301623174548,-2.998640548712015
1772045236631289600,4.37928955078125,0.23338790011405944,-2.580340902361274,-2.7913234939217566
1772045236641275400,4.389275390625,0.17012049288339912,-2.503908235543966,-2.5492174498230216
1772045236651261700,4.39926171875,0.09050269322395324,-2.385439677029848,-2.2909166422486305
1772045236661247500,4.40924755859375,0.048792307154461735,-2.2019594249010086,-2.037878869768977
1772045236671233500,4.419233642578125,0.010579846203327178,-2.007143539765477,-1.7894436226487158
1772045236681219600,4.429219482421875,-0.052235214149951935,-1.8734294813245533,-1.549525443983078
1772045236691204600,4.43920458984375,-0.13558927772827445,-1.8020149349302053,-1.2986965797245502
1772045236701190400,4.4491904296875,-0.2058581612188369,-1.775006516495347,-1.0254185677707195
1772045236711176700,4.4591767578125,-0.24477548250369727,-1.7882003445893524,-0.7853074968814849
1772045236721162500,4.46916259765625,-0.2517582540631294,-1.7890800500333308,-0.5823112278997897
1772045236731148500,4.4791484375,-0.26209946920499205,-1.7636200300842522,-0.40904958744645115
1772045236741134300,4.48913427734375,-0.27721403622850777,-1.762352202105522,-0.23435353027582168
1772045236751119600,4.49911962890625,-0.23203180932998657,-1.722683624061942,-0.07508768194913863
1772045236761105700,4.509105712890625,-0.18414317301698027,-1.639911232829094,0.07291676765084266
1772045236771091700,4.519091796875,-0.16160159779787062,-1.5778274093598126,0.24775603268444538
1772045236781077800,4.529077880859375,-0.16810747256055472,-1.478002176517248,0.3650777592509985
1772045236791063800,4.539063720703125,-0.1463188346005976,-1.3379226746976374,0.5021089794158935
1772045236801049600,4.549049560546875,-0.17928696515746415,-1.2994926985383033,0.5840940196633339
1772045236811036000,4.559035888671875,-0.20586875567808746,-1.1680953926071524,0.7451590263664722
1772045236821021000,4.56902099609375,-0.18964476610794662,-0.9977914329156279,0.992448026061058
1772045236831006700,4.5790068359375,-0.18449732021689413,-0.9207885649949311,1.124015135601163
1772045236840992800,4.58899267578125,-0.16396072814464568,-0.7451905905485153,1.2910925344616173
1772045236850978800,4.598978759765625,-0.18925883553028106,-0.5671086903318763,1.4777701213270424
1772045236860964900,4.60896484375,-0.23708573171868919,-0.3818248959124088,1.6317553989022968
1772045236870950700,4.61895068359375,-0.30351649835109706,-0.13067074522227048,1.728459284853935
1772045236880935700,4.628935791015625,-0.42231721142902967,0.15797463947236537,1.8085697634011506
1772045236890921700,4.638921630859375,-0.5507176736317575,0.4575906232535839,1.8966957906216382
1772045236900907800,4.64890771484375,-0.6632968818463385,0.7380044784367084,1.9915975955873726
1772045236910893600,4.6588935546875,-0.8146144015170633,0.9971630718842148,2.0341572188973425
1772045236920879900,4.6688798828125,-0.9308791663765906,1.228278058630228,1.9884873546123503
1772045236930865700,4.67886572265625,-1.0357961694002151,1.4079311536863446,1.9352444247245788
1772045236940851700,4.688851806640625,-1.1396161709673702,1.5470532086506485,1.819949235549569
1772045236950836700,4.698836669921875,-1.178112198100239,1.6590630925446748,1.6600632094979286
1772045236960822800,4.70882275390625,-1.171909251806885,1.8150959502995012,1.4351228197336197
1772045236970808800,4.718808837890625,-1.11654202324152,2.055679899397492,1.1565209824085234
1772045236980794600,4.728794677734375,-1.055757591933012,2.3655820071324705,0.8581663968652486
1772045236990781000,4.738781005859375,-1.032105498188734,2.7463509642511603,0.5713198782861233
1772045237000766700,4.7487666015625,-1.0332233963027595,3.0867165993109342,0.3122328887701034
1772045237010751700,4.758751708984375,-1.0735165359854697,3.3595477442801,0.052560208320617675
1772045237020737800,4.76873779296875,-1.1545499745965004,3.4955288708701726,-0.08788812681138515
1772045237030723800,4.778723876953125,-1.2748317200124264,3.4279619398146868,-0.06598959873616694
1772045237040709600,4.788709716796875,-1.353693221411854,3.188552002932131,-0.05226444024443626
1772045237050695700,4.79869580078125,-1.23102501925081,3.0339713898122307,-0.22633213638365268
1772045237060681700,4.808681640625,-0.9264949599429965,3.215341225658357,-0.6116530577182769
1772045237070666800,4.818666748046875,-0.6958274247035384,3.4639123741179705,-0.8336679154247045
1772045237080652800,4.82865283203125,-0.5206976522907615,3.5394179892182347,-0.7578519192010164
1772045237090638800,4.838638916015625,-0.4276581340655684,3.6403435845181344,-0.6308978564143181
1772045237100625000,4.848625,-0.4031624291040003,3.7331741361677646,-0.5053554139912129
1772045237110610700,4.858610595703125,-0.468313238928467,3.69362538511157,-0.31988661839365956
1772045237120597000,4.868596923828125,-0.6165855456843972,3.5067695190697905,-0.1544961497068405
1772045237130581800,4.878581787109375,-0.7443883342549205,3.241674813571572,-0.06622106940448284
1772045237140567800,4.88856787109375,-0.8030813462421298,2.8421339359655975,-0.003835632640123367
1772045237150553600,4.8985537109375,-0.7640645101055502,2.2243644411936403,0.1019458782583475
1772045237160540000,4.908539794921875,-0.633658991690725,1.517880013397336,0.1792582505196333
1772045237170525700,4.918525634765625,-0.45287572356089945,0.9198495305791496,0.17069383579194544
1772045237180511700,4.92851171875,-0.27528058394789695,0.47157618624716996,0.10996142693161964
1772045237190496800,4.938496826171875,-0.10354556853994727,0.11800795526504516,0.09872866977751255
1772045237200482800,4.94848291015625,0.04259513301476836,-0.169678229008615,0.11042261470258236
1772045237210468900,4.95846875,0.14689151992201804,-0.3639230362579226,0.1303103874772787
1772045237220454700,4.96845458984375,0.23292013647183774,-0.49460956357121466,0.15345277813374994
1772045237230441000,4.97844091796875,0.31048999062553045,-0.5855535708218813,0.18860475553572176
1772045237240426800,4.9884267578125,0.36975787989124653,-0.6737541245833039,0.2132768399775028
1772045237250412800,4.998412841796875,0.45746553556919095,-0.7402502115368843,0.23214637562036514
1772045237260397600,5.0083974609375,0.55342664032951,-0.7593672922000289,0.286248552685976
1772045237270383900,5.0183837890625,0.6773426505945622,-0.7086439439177513,0.36151509833335876
1772045237280369700,5.02836962890625,0.8053786633990705,-0.6556438828751444,0.5268377624809741
1772045237290355700,5.038355712890625,0.9127075498700141,-0.6120721599131822,0.7970721689552068
1772045237300341800,5.048341796875,0.9639642743766307,-0.5643643600597977,1.1221055025875568
1772045237310326800,5.058326904296875,0.9706767776273191,-0.49557490147203204,1.444605518350005
1772045237320312800,5.068312744140625,0.9226223562933504,-0.43156770872473715,1.762600623908639
1772045237330298600,5.078298583984375,0.8367066985987126,-0.3595762392252683,2.0385937400400636
1772045237340285000,5.088284912109375,0.699609427460283,-0.314665668874979,2.2917928405612704
1772045237350270700,5.098270751953125,0.5586088652729988,-0.301552797062695,2.494170100861788
1772045237360256800,5.1082568359375,0.45660979552268977,-0.2969958644106984,2.655902631562948
1772045237370242800,5.118242919921875,0.35875023672990497,-0.2645376561373472,2.757812269464135
1772045237380227800,5.128227783203125,0.28535423419475553,-0.28631489592045545,2.761799293273687
1772045237390213600,5.138213623046875,0.2201344507873058,-0.33777707987129685,2.698210325938463
1772045237400199700,5.14819970703125,0.18848259046077728,-0.39071547385454175,2.5858669723063707
1772045237410185700,5.158185791015625,0.15603088499344883,-0.4614186571091413,2.401077391144633
1772045237420171800,5.168171875,0.16223163932971654,-0.544378387607634,2.251007825708389
1772045237430157600,5.178157470703125,0.2285398755609989,-0.5765732687696814,2.110610343980789
1772045237440142800,5.188142822265625,0.34813648825697596,-0.5265443324923516,2.0086498526751995
1772045237450129000,5.19812890625,0.4691582383852452,-0.44117081885039805,1.8844155702412126
1772045237460114700,5.20811474609375,0.5800139838080853,-0.36448417727202176,1.7519301768124103
1772045237470101000,5.21810107421875,0.6749542941533029,-0.26968407911509273,1.563582026386261
1772045237480086800,5.228086669921875,0.748303754132986,-0.14068623554110526,1.3403466869741678
1772045237490071800,5.23807177734375,0.8351262975394725,-0.06723404583930968,1.1008213070183992
1772045237500057600,5.2480576171875,0.9036369391858577,-0.07172960369288921,0.8280740409404039
1772045237510044000,5.2580439453125,0.9595978227954357,-0.20716507909893989,0.5595411776870489
1772045237520029700,5.26802978515625,1.0296166039824486,-0.3544803773909807,0.28842122054994107
1772045237530015700,5.278015625,1.08409535927549,-0.47981297645568843,0.0334621246188879
1772045237540000800,5.288000732421875,1.1057482420265674,-0.5565612850934266,-0.17270108396112918
1772045237549986800,5.29798681640625,1.1238239238779992,-0.6085971772789954,-0.4444511556953191
1772045237559972900,5.307972900390625,1.1455354780137539,-0.5094774623572826,-0.8076286342829465
1772045237569958700,5.317958740234375,1.153966621750593,-0.2864309235155582,-1.1287667140424251
1772045237579945000,5.327945068359375,1.1565722742043434,-0.10422551362812518,-1.4794488681942224
1772045237589930800,5.3379306640625,1.1798362454138696,0.09103460814356804,-1.848267567539215
1772045237599915800,5.347915771484375,1.2348470617569982,0.2384001753181219,-2.152466787457466
1772045237609901600,5.357901611328125,1.2690100281216203,0.24223580795824526,-2.304136773827672
1772045237619887900,5.367887939453125,1.2904922304809092,0.011019991186261176,-2.3612474850594998
1772045237629873700,5.377873779296875,1.3491641996800898,-0.3406289621710777,-2.4186504572361707
1772045237639859700,5.387859619140625,1.44850822487697,-0.7162842295378447,-2.591504101410508
1772045237649845800,5.397845703125,1.6579295584701002,-0.8476683837264776,-2.9866636951923367
1772045237659830800,5.407830810546875,1.8003670215927063,-0.6493693326503038,-3.41335239970386
1772045237669816800,5.41781689453125,1.7741022611320019,-0.4631102634578943,-3.601981705158949
1772045237679802600,5.427802734375,1.5703369074739515,-0.48967912143170833,-3.566404195821285
1772045237689789000,5.437788818359375,1.3737889378488064,-0.5787959132552146,-3.602671440988779
1772045237699774700,5.447774658203125,1.256077919703722,-0.4948766900748014,-3.762086342397332
1772045237709759700,5.457759765625,1.1586135707736014,-0.4482084624022245,-3.871178000757098
1772045237719745800,5.467745849609375,1.0973206054210662,-0.5014584065526724,-3.9392087499320505
1772045237729731800,5.47773193359375,1.0252632310785352,-0.6200158123940229,-3.98258904197514
1772045237739717600,5.487717529296875,0.9397941481076181,-0.8058464270412922,-3.9784745923936367
1772045237749704000,5.497703857421875,0.8176374026000499,-1.0535890157222747,-3.91815310242176
1772045237759689700,5.507689697265625,0.7038882738232612,-1.3323065883815288,-3.8062621687322853
1772045237769675000,5.517675048828125,0.5787643490731715,-1.5974650067657232,-3.6242145797550678
1772045237779661000,5.5276611328125,0.43236485045179723,-1.8089596395015715,-3.344505657970905
1772045237789647000,5.537647216796875,0.26896789366975427,-1.9807944620221851,-3.0023271282702684
1772045237799633200,5.547633056640625,0.11208674852252005,-2.062652076497674,-2.5999995425552127
1772045237809619000,5.557618896484375,0.001309329032897949,-2.040531430104375,-2.2047136920452117
1772045237819605000,5.56760498046875,-0.11613514713048934,-1.9362404500246047,-1.8764818546324966
1772045237829590000,5.577590087890625,-0.21297873381376264,-1.7352134352892636,-1.5998025098025799
1772045237839576000,5.587576171875,-0.2907517093241215,-1.4838362894982098,-1.3369734111487865
1772045237849562000,5.59756201171875,-0.36665786804929373,-1.2204068868637084,-1.0960995391935109
1772045237859548200,5.607548095703125,-0.4619102400183677,-1.008397290343046,-0.9023708647727966
1772045237869534000,5.617533935546875,-0.5580792884409427,-0.8349883503735065,-0.7350035430550574
1772045237879520300,5.627520263671875,-0.6905728651762009,-0.7337836458712815,-0.6141776077598333
1772045237889505000,5.637505126953125,-0.8283867601513862,-0.7194470774829387,-0.530832969596982
1772045237899491000,5.647490966796875,-0.9547638998329638,-0.7779495353341103,-0.43053544306755065
1772045237909477000,5.65747705078125,-1.015706444312632,-0.8380249415904283,-0.34845629479587076
1772045237919463200,5.667463134765625,-1.04272509188056,-0.8955500788420439,-0.3216547971099615
1772045237929449000,5.677448974609375,-1.0696307805933059,-0.9454898755311966,-0.2721703429728746
1772045237939435000,5.68743505859375,-1.1044374516889452,-0.9942015917301177,-0.20717443144917486
1772045237949421000,5.697421142578125,-1.1582828775145113,-0.9989888260066508,-0.14158990638256072
1772045237959407000,5.707406982421875,-1.2803031371608375,-0.9166109870493412,-0.05067278713881969
1772045237969393000,5.717392822265625,-1.4421863283790648,-0.7792495120167732,0.09432195925116539
1772045237979378000,5.7273779296875,-1.5890309404194354,-0.6003764614224434,0.29855507655143737
1772045237989364200,5.7373642578125,-1.5834733062922954,-0.4338350691348314,0.5688596256524324
1772045237999350000,5.74735009765625,-1.4636670694336293,-0.23549627057015896,0.8537877433896064
1772045238009336000,5.757336181640625,-1.3634136743068694,-0.039519524961709976,1.1263999849110842
1772045238019322000,5.767322021484375,-1.3051783429592847,0.14311989242881534,1.3776719167619942
1772045238029308200,5.77730810546875,-1.2936686685599386,0.29390432813614603,1.6642787813663482
1772045238039293000,5.78729296875,-1.3504887262821197,0.429999436494708,1.885910777235031
1772045238049279000,5.797279052734375,-1.361222886264324,0.5876908751115203,2.076693461331725
1772045238059265000,5.80726513671875,-1.3542749668225644,0.7408546071708202,2.2497534417331218
1772045238069251000,5.8172509765625,-1.3797636283442378,0.9087944680795073,2.3758102634191514
1772045238079236900,5.82723681640625,-1.4259551784157751,1.0781579320505261,2.4723148274064064
1772045238089222000,5.837221923828125,-1.5024820993877945,1.2211156196549533,2.587414786270261
1772045238099208200,5.847208251953125,-1.6001836180746554,1.3356512226343153,2.681452083361149
1772045238109194000,5.857194091796875,-1.7151237102016805,1.425220434400439,2.738567470768094
1772045238119180000,5.867179931640625,-1.8190999252438544,1.4871926141887903,2.7661925597965715
1772045238129166000,5.877166015625,-1.8995099712595342,1.488327171176672,2.7146201934695244
1772045238139152100,5.887152099609375,-1.9359820913493633,1.5099343150898814,2.61203367922008
1772045238149137000,5.897136962890625,-1.9063260810151694,1.5357128994688392,2.442922728705406
1772045238159123000,5.907123046875,-1.8191700678706169,1.6060577708050607,2.245259637445211
1772045238169109000,5.91710888671875,-1.7084379488274455,1.73912710160166,1.920049778202176
1772045238179095000,5.927094970703125,-1.588440573310852,1.8832292830660937,1.5163234316051006
1772045238189080800,5.937080810546875,-1.4629346635058522,2.0222581067889926,1.0709341182768344
1772045238199066000,5.947066162109375,-1.364276428616047,2.1872569458097217,0.6264812090158463
1772045238209052200,5.95705224609375,-1.3121151564851403,2.3656267230570314,0.23323533990085124
1772045238219038000,5.967037841796875,-1.3234277008771895,2.468742229616642,-0.11450550010204315
1772045238229024300,5.977024169921875,-1.3739452974542974,2.4532687661528585,-0.399478626024723
1772045238239010000,5.987010009765625,-1.389427528746426,2.2727909107103943,-0.6807932294398545
1772045238248996000,5.99699609375,-1.2378946127593518,2.097561185054481,-1.1473042412519454
1772045238258980900,6.00698095703125,-0.9107622610211372,2.1787644272744653,-1.8413637795001268
1772045238268967200,6.01696728515625,-0.6918471228957176,2.203950306457281,-2.3119576767116783
1772045238278953000,6.026952880859375,-0.58905281111449,2.032886468309164,-2.5254502052664756
1772045238288939000,6.03693896484375,-0.5869339192643761,1.824138211672008,-2.6106793420016765
1772045238298925000,6.046925048828125,-0.6417632415607571,1.5426497129946946,-2.5658003358334303
1772045238308910000,6.05691015625,-0.7253542557001114,1.2334762117952107,-2.5163018531709906
1772045238318896000,6.066896240234375,-0.7126885431334375,0.8756336644947529,-2.4436843607276675
1772045238328882000,6.0768818359375,-0.6233873346537351,0.4355576551437378,-2.3291975653260946
1772045238338868200,6.0868681640625,-0.439805667977035,-0.07401391523778438,-2.137448082023859
1772045238348854000,6.09685400390625,-0.22765169454962014,-0.5267126747965812,-1.9517349562764166
1772045238358840000,6.106840087890625,0.0214671509206295,-0.8394552666544913,-1.8033979137212037
1772045238368824800,6.116824951171875,0.33134529325813056,-1.0942314072340726,-1.6234364833682775
1772045238378811100,6.12681103515625,0.5742891033552586,-1.254777943021059,-1.372840258821845
1772045238388797000,6.136796875,0.8115091289781033,-1.3050742980629204,-1.1125766267418862
1772045238398783000,6.146782958984375,1.0342845957934856,-1.2484206829488276,-0.9011556437641381
1772045238408769000,6.15676904296875,1.1996889468751848,-1.086662433284521,-0.714386871483922
1772045238418754000,6.166754150390625,1.295105277234316,-0.9148907391279936,-0.45163960589468477
1772045238428740000,6.176739990234375,1.3171221709921954,-0.7970873665243386,-0.13018179266154764
1772045238438726000,6.186725830078125,1.2896515418730676,-0.7119616901636123,0.20319734451174734
1772045238448712200,6.196712158203125,1.2446176374040543,-0.6697942810416221,0.49718905867040153
1772045238458698000,6.206697998046875,1.2190031575456262,-0.665243778130412,0.6771405521512032
1772045238468684000,6.21668408203125,1.1905202826440333,-0.6504816778063773,0.7641220855116844
1772045238478669000,6.2266689453125,1.1282082033768295,-0.6189256790697574,0.809765061789751
1772045238488655000,6.236655029296875,0.9807684019222855,-0.5428337885141372,0.8682540756374597
1772045238498641000,6.246640869140625,0.7486185191705822,-0.4727005141019821,0.9267337371349335
1772045238508627200,6.256627197265625,0.5040599673531949,-0.3824953425198793,0.9819079273462294
1772045238518613000,6.266613037109375,0.3035502544902265,-0.2986643821448087,1.1049410172969103
1772045238528598000,6.276597900390625,0.11793518228977917,-0.20552023450136184,1.2891793943166732
1772045238538584000,6.286583984375,-0.048321255576610565,-0.11259557482749223,1.4899936430841683
1772045238548570000,6.296570068359375,-0.20280366901904343,-0.03431991049200296,1.663952618151903
1772045238558556200,6.30655615234375,-0.332818726811558,-0.018877426688373087,1.8309288947254418
1772045238568542000,6.3165419921875,-0.42409518088698384,-0.08683481836616992,1.9435270999014376
1772045238578527000,6.32652685546875,-0.4888914781853556,-0.15705752462744713,1.9516180518984794
1772045238588513000,6.336512939453125,-0.5003378780901432,-0.27438743450045583,1.8821873727977274
1772045238598499000,6.3464990234375,-0.5583149968929588,-0.41403760499209163,1.6880775901049374
1772045238608484900,6.35648486328125,-0.5894739591360092,-0.4661699432894587,1.4763707759231328
1772045238618471200,6.36647119140625,-0.6412851026549935,-0.41578444865942,1.286827862754464
1772045238628457000,6.37645703125,-0.7148807924807071,-0.3122361036404967,1.1239385632336139
1772045238638442000,6.38644189453125,-0.7966689949817956,-0.20159137061983345,0.9434399572640657
1772045238648428000,6.396427978515625,-0.8548024733901023,-0.10002426254600286,0.7056207967042922
1772045238658414000,6.4064140625,-0.8832453085422516,-0.06613105303347111,0.46099487873911854
1772045238668400000,6.416400146484375,-0.8970962853707373,-0.08086392726302147,0.21708733817636966
1772045238678386000,6.426385986328125,-0.8979258680626749,-0.13448328924775121,-0.02748772638440132
1772045238688371000,6.436370849609375,-0.9111620739936828,-0.27130700414180753,-0.26000410436093807
1772045238698357000,6.44635693359375,-0.9458560784950851,-0.4811643910646438,-0.4682119705110788
1772045238708343000,6.456343017578125,-1.0077119384273887,-0.7227975569546222,-0.6504460219711065
1772045238718328800,6.466328857421875,-1.0635115670606494,-0.9565899462163447,-0.8129179728627205
1772045238728315100,6.476315185546875,-1.1125438935160636,-1.170130990087986,-0.9073936613708734
1772045238738300200,6.486300048828125,-1.1572969352170823,-1.3161240998655557,-0.9403647876024246
1772045238748286000,6.496285888671875,-1.161007480172813,-1.3738076425492762,-0.920755247247219
1772045238758272300,6.506272216796875,-1.0943301914334296,-1.3615911350548267,-0.8767033395528793
1772045238768257800,6.5162578125,-0.959321709267795,-1.2789397398531437,-0.8123416342794895
1772045238778244000,6.526244140625,-0.7189584171831608,-1.1827397117704153,-0.6760533414363861
1772045238788228900,6.536228759765625,-0.39506095571294425,-1.082107838720083,-0.5236877740174531
1772045238798215000,6.54621484375,-0.07820128392502665,-0.950209305268526,-0.44051673885583875
1772045238808201000,6.556200927734375,0.16645897470116613,-0.8164052304565906,-0.45963469630181786
1772045238818187000,6.56618701171875,0.36940234445184467,-0.6951116776496171,-0.44895548137724395
1772045238828172800,6.5761728515625,0.4817009821593761,-0.5581447548925876,-0.49298868437111376
1772045238838158800,6.586158935546875,0.5010089092195034,-0.392464363348484,-0.6300199045360088
1772045238848144100,6.59614404296875,0.4129315434463322,-0.3038321401715278,-0.7602519660800695
1772045238858130000,6.6061298828125,0.2916121255457401,-0.28483576327860355,-0.8985171119540929
1772045238868116000,6.616115966796875,0.17432517803162334,-0.2515454880952835,-1.13384913187325
1772045238878101800,6.626101806640625,0.0821029675386846,-0.2200777521640062,-1.3823393240511417
1772045238888088000,6.636088134765625,-0.03230784001722932,-0.15099953976273536,-1.5539128652870655
1772045238898072800,6.64607275390625,-0.1809576017834246,-0.07215981180369853,-1.7033067234188317
1772045238908059000,6.656058837890625,-0.32357378247380253,0.08915946192145346,-1.8950217199295758
1772045238918045000,6.666044921875,-0.48438686024248595,0.32449206636250016,-2.123277517852187
1772045238928031000,6.676031005859375,-0.6686950876280665,0.6335954249352216,-2.2870319097697736
1772045238938016800,6.686016845703125,-0.8588590553045272,1.0103928480744362,-2.435072599726915
1772045238948001800,6.696001708984375,-1.0777870529115199,1.3743372193813324,-2.5522581326931713
1772045238957988000,6.705988037109375,-1.339110569307953,1.6337106246232986,-2.5158272213965653
1772045238967974000,6.715973876953125,-1.5935975176826118,1.7708143255025148,-2.3752467843174934
1772045238977960000,6.7259599609375,-1.8154595229148864,1.759547081556916,-2.094859817141294
1772045238987946000,6.735946044921875,-1.9416013925358653,1.604759255427122,-1.7907997134327887
1772045238997931000,6.745930908203125,-2.0400655661582947,1.3782161066412926,-1.5520108310580252
1772045239007916800,6.755916748046875,-2.0655730785109103,1.1510656396120786,-1.3074556402415036
1772045239017902800,6.76590283203125,-2.0166519573450086,0.9499100300610065,-1.0843360361635683
1772045239027889000,6.775888916015625,-1.8923089538395403,0.8706570451259612,-0.8625041338086128
1772045239037875000,6.785875,-1.8302035030603407,0.905406286945939,-0.5358160187065601
1772045239047860700,6.79586083984375,-1.8156442318320274,1.0284995826512575,-0.10829320145845413
1772045239057845800,6.805845703125,-1.7923405131340027,1.1602701058089733,0.365170113709569
1772045239067832000,6.81583203125,-1.8183330325245857,1.2114502579480408,0.7233569444030523
1772045239077817900,6.82581787109375,-1.803872837756574,1.1004308463960886,0.9825362883776426
1772045239087804000,6.835803955078125,-1.648959923942387,0.8299421728998422,1.1861673481315373
1772045239097790000,6.8457900390625,-1.3726039658479392,0.5887900685250759,1.2912018400549887
1772045239107775000,6.85577490234375,-1.140864125201851,0.33127310480475425,1.324581547087431
1772045239117761000,6.865760986328125,-1.0472504603505135,0.03891629837155342,1.3583598980486393
1772045239127746800,6.875746826171875,-1.1154030823394656,-0.21354045934975147,1.3481909707337618
1772045239137732900,6.88573291015625,-1.3273273386642337,-0.4379512722820043,1.2745382900238036
1772045239147719000,6.895718994140625,-1.6820821490824223,-0.5217787255257368,1.1528203743249177
1772045239157704000,6.905703857421875,-2.213952937294543,-0.45307285356819627,1.054919972065091
1772045239167690000,6.91568994140625,-2.7072932115823027,-0.2900608044505119,0.9398778808683157
1772045239177676000,6.925676025390625,-3.0741599000766873,-0.08697218101024627,0.7761842792272567
1772045239187661800,6.935661865234375,-3.3794778948917985,0.13342822723686695,0.5567921712398529
1772045239197648100,6.945648193359375,-3.6777167451009154,0.3568447684347629,0.39117783066928385
1772045239207633000,6.9556328125,-3.9527658583804963,0.5376245294332503,0.32189678917229175
1772045239217619000,6.965618896484375,-4.217959348078072,0.7551140186697244,0.24271570042967794
1772045239227605000,6.97560498046875,-4.509479995948076,0.9398772963464259,0.19947101746499538
1772045239237591000,6.985591064453125,-4.831889118556678,1.0467542012661695,0.20757073729038236
1772045239247576800,6.995576904296875,-5.10752304598689,1.1620260095655917,0.21567630233466623
1772045239257561900,7.005561767578125,-5.216127213090658,1.187331715735793,0.28423078312277794
1772045239267548000,7.0155478515625,-5.164392349678278,1.1196277142971753,0.4223965602755546
1772045239277534000,7.025533935546875,-4.999387665438651,1.0521545990049839,0.506350854769349
1772045239287520000,7.03552001953125,-4.791648585844039,1.020202878949046,0.5394792173892259
1772045239297505800,7.045505859375,-4.637918159812688,0.9708078566610813,0.5221808765858411
1772045239307490800,7.05549072265625,-4.5189144715085625,0.8679314195543527,0.47727556693255896
1772045239317476900,7.065476806640625,-4.384295573182404,0.7178431494176387,0.33974341150820253
1772045239327463000,7.075462890625,-4.124990849262476,0.5740747299522161,0.1420446644127369
1772045239337449000,7.085448974609375,-3.805319042663276,0.4846896425813436,-0.06547580399513245
1772045239347435000,7.09543505859375,-3.4598668981194494,0.46702831368446346,-0.24115619602799415
1772045239357420000,7.105419921875,-3.0979160387173295,0.41335400664210314,-0.3485147469848394
1772045239367405800,7.11540576171875,-2.714601781029999,0.3619184184372425,-0.45130876650512214
1772045239377392000,7.12539208984375,-2.377109071058035,0.344502004212141,-0.5996569149762392
1772045239387378000,7.1353779296875,-2.081516351443529,0.28219021720588205,-0.7892483434617519
1772045239397364000,7.145364013671875,-1.7894868772685526,0.17269173161089418,-1.0475935746997593
1772045239407349000,7.155348876953125,-1.6049319816455243,0.03175356713533401,-1.3823562751859426
1772045239417335000,7.1653349609375,-1.52365392062366,-0.10880056645870208,-1.7432289839625357
1772045239427320800,7.17532080078125,-1.5647461017295716,-0.23857085570991038,-2.0810048947900532
1772045239437307000,7.185306884765625,-1.6491802886947988,-0.3710322837412357,-2.3303666091054676
1772045239447293000,7.19529296875,-1.7541393772944807,-0.5010720375835895,-2.4541145693272353
1772045239457279000,7.205279052734375,-1.8325462667942045,-0.6493231554210186,-2.4890771616369483
1772045239467264000,7.215263916015625,-1.8560180355355143,-0.7977338477343321,-2.472565002775192
1772045239477249800,7.225249755859375,-1.8486100973665713,-0.9236644126921891,-2.4635469990611076
1772045239487236000,7.235236083984375,-1.8295742652460931,-1.048646298623085,-2.421386019679904
1772045239497222000,7.245221923828125,-1.783068826919794,-1.145258999159932,-2.3836200603872535
1772045239507207000,7.25520703125,-1.6720082065746187,-1.1795774483472108,-2.3531033415704963
1772045239517193000,7.26519287109375,-1.5685004858270286,-1.155402792033553,-2.2980799580067397
1772045239527179000,7.275178955078125,-1.461049288150668,-1.0958090318143368,-2.1873995691508052
1772045239537164800,7.285164794921875,-1.3898013304948806,-0.9949252298295498,-2.041110691297054
1772045239547150800,7.29515087890625,-1.346835610602051,-0.8946089985996484,-1.8632219755649566
1772045239557137000,7.305136962890625,-1.3137874736115336,-0.8368997369527816,-1.7022031460911033
1772045239567122000,7.315121826171875,-1.2149191031023858,-0.7731120321750641,-1.5532091009318827
1772045239577108000,7.32510791015625,-1.0814786009058355,-0.6959048738539219,-1.3957920953422784
1772045239587093800,7.33509375,-0.9254258694067596,-0.6267740544825792,-1.2248925078451633
1772045239597080000,7.345080078125,-0.7561800404660404,-0.5744757119685411,-1.1033633927166462
1772045239607065900,7.35506591796875,-0.5522936907768249,-0.5109282456874847,-1.0135065961807965
1772045239617051000,7.36505078125,-0.35448330000042916,-0.4662462233960628,-0.9005898265749216
1772045239627037000,7.375036865234375,-0.19354133515506983,-0.4458341344863176,-0.8131535351842641
1772045239637023000,7.38502294921875,-0.03696165717244148,-0.41240474309325215,-0.6800643306434154
1772045239647008800,7.3950087890625,0.1007847255244851,-0.409152463299036,-0.5199328053981065
1772045239656994800,7.404994873046875,0.20215368067771194,-0.40538521972000596,-0.36100539524555203
1772045239666980000,7.41497998046875,0.2321016596958041,-0.39780864698588847,-0.2401601707279682
1772045239676966000,7.4249658203125,0.20257570548206566,-0.38803193385899065,-0.18409283106923102
1772045239686952000,7.434951904296875,0.12285276494771241,-0.3562970714241266,-0.1863859104424715
1772045239696938000,7.44493798828125,0.002802490200102329,-0.30606618283390996,-0.2408481529921293
1772045239706924000,7.454924072265625,-0.1432335819363594,-0.26481296594738957,-0.302897489669919
1772045239716909000,7.464908935546875,-0.2631926712691784,-0.2115782193660736,-0.3426490698218345
1772045239726894800,7.474894775390625,-0.326873993062973,-0.1302583650290966,-0.353677828836441
1772045239736881000,7.484880859375,-0.363751625213772,-0.028984102421998975,-0.354979559084773
1772045239746867000,7.494866943359375,-0.3814434953793883,0.10881517950594424,-0.3219207545697689
1772045239756853000,7.50485302734375,-0.38597660876438017,0.2538239544212818,-0.267212428304553
1772045239766837800,7.514837646484375,-0.36634675627350805,0.437569579488039,-0.2465741294234991
1772045239776824000,7.524823974609375,-0.3171897805251181,0.676821987721324,-0.3005798603773117
1772045239786809900,7.534809814453125,-0.25053923366218805,0.9748428112655877,-0.36440672812163827
1772045239796796000,7.5447958984375,-0.1995981509760022,1.279078856062889,-0.388217811819911
1772045239806782000,7.554781982421875,-0.21007599810957908,1.536138139143586,-0.31328210556209085
1772045239816767000,7.56476708984375,-0.42210079219937324,1.6396826847702264,-0.03348667453825473
1772045239826753000,7.5747529296875,-0.7450853766083717,1.5003455257505178,0.3696861298292875
1772045239836738800,7.58473876953125,-1.0202475948736072,1.2456687538921831,0.7154384263634681
1772045239846724900,7.594724853515625,-1.1630839941859246,1.0035147789984942,0.9039116644740104
1772045239856710000,7.6047099609375,-1.0934832192152737,0.8465069387316704,0.9268161547213792
1772045239866696000,7.614696044921875,-0.89663904312253,0.8720613589659333,0.8504454472243785
1772045239876681700,7.624681640625,-0.7102785593822598,1.0192919015839694,0.8016489753514527
1772045239886668000,7.63466796875,-0.6144669460952281,1.2720748225197196,0.7925251731753349
1772045239896653800,7.64465380859375,-0.5852525420486927,1.5661840255782007,0.8222171316057443
1772045239906638800,7.654638916015625,-0.5860090595044195,1.7596318372309208,0.8297562949389219
1772045239916625000,7.664625,-0.5614440886989236,1.8988412782177329,0.8762392291724681
1772045239926611000,7.67461083984375,-0.49432197880148887,1.9503879255816339,0.9121347184181213
1772045239936597000,7.684596923828125,-0.3860015970751643,1.8720330585300922,0.956783422961831
1772045239946582800,7.694582763671875,-0.2507248193621635,1.6609598660767078,0.9502104743123054
1772045239956568000,7.704568115234375,-0.10373363845795393,1.3427867736026644,0.9057353727698325
1772045239966553900,7.714553955078125,0.029063889659941194,1.008880689945817,0.8186860348701477
1772045239976540000,7.724539794921875,0.17415172116085886,0.7338081957906484,0.7502011121869087
1772045239986526000,7.73452587890625,0.2803178474627435,0.5602230224713682,0.6804314103901385
1772045239996512000,7.744511962890625,0.4440678554661572,0.4955231712847948,0.6458972726255655
1772045240006497000,7.7544970703125,0.5678809898786247,0.5460293696850538,0.6663724898993969
1772045240016482800,7.76448291015625,0.6085660514883696,0.6438865173250437,0.7626081738173961
1772045240026469000,7.77446923828125,0.5812940136812627,0.6991638756498694,0.9326935223221778
1772045240036455000,7.784454833984375,0.532157934590429,0.6767781485795974,1.0843325290322303
1772045240046441000,7.79444091796875,0.5029299404099583,0.5910127130106091,1.199303308558464
1772045240056425700,7.80442578125,0.5148315367363393,0.4516346374586224,1.2563555676013232
1772045240066412000,7.814412109375,0.5724979821547865,0.29208441923260686,1.225277123248577
1772045240076397800,7.824397705078125,0.6716916390955447,0.17379501667767763,1.1333242312163114
1772045240086383900,7.8343837890625,0.7234983987003565,0.10155424859225749,1.0492758286982775
1772045240096370000,7.844369873046875,0.7162652325764298,0.06978752971440554,0.9676350718438624
1772045240106355000,7.85435498046875,0.6795692406028508,0.06715045920908451,0.9393711003899574
1772045240116341000,7.864341064453125,0.5637868524327874,0.09876520239561795,0.9205646931111812
1772045240126326800,7.874326904296875,0.4503624255657196,0.13244009298235176,0.9187918382197618
1772045240136313000,7.88431298828125,0.36500454788431524,0.16170710399895905,0.950815454468131
1772045240146299000,7.894298828125,0.324854177673161,0.1705538427993655,0.9914373877137899
1772045240156284000,7.904283935546875,0.29097499668598176,0.15584610301107168,1.0342267281264066
1772045240166269700,7.914269775390625,0.2603366973161697,0.11418138271421194,1.0721867486864327
1772045240176256000,7.924256103515625,0.2160717313930392,0.018817513194680214,1.0826467679023741
1772045240186241800,7.93424169921875,0.180913031989336,-0.0681570059031248,1.052967084431648
1772045240196227800,7.944227783203125,0.1636138144031167,-0.13080430847406385,1.0037053331345318
1772045240206213000,7.954213134765625,0.18463702094852924,-0.20492226860821247,0.9466980822771787
1772045240216199000,7.964198974609375,0.24534458762854336,-0.2645803262352943,0.9282049787312745
1772045240226185000,7.97418505859375,0.34052111788243056,-0.35061376509070397,0.9428104271888732
1772045240236171000,7.9841708984375,0.4081992542274296,-0.43692952801883217,0.9539239418774843
1772045240246156000,7.994156005859375,0.4526278862796724,-0.53829672960639,0.9698556705027818
1772045240256141800,8.004141845703124,0.5107727628648281,-0.6390221261590718,0.9765157129138707
1772045240266128000,8.0141279296875,0.550671058011055,-0.7338152100533246,0.9081815968781709
1772045240276114000,8.024114013671875,0.5899789860486984,-0.8430857321113348,0.8024275585085153
1772045240286100000,8.034099853515626,0.6249509307086467,-0.9488163896054029,0.656496992573142
1772045240296085000,8.0440849609375,0.676949559623748,-1.0463058729767798,0.5334358455717564
1772045240306070800,8.05407080078125,0.7202735914349555,-1.1368155804634092,0.414648722627759
1772045240316057000,8.06405712890625,0.7778221095621586,-1.2493722845852375,0.3059165452301502
1772045240326043000,8.07404296875,0.86228552262187,-1.414621883496642,0.1784603781402111
1772045240336029000,8.08402880859375,0.9632287997089326,-1.5672043085366487,0.044531800165772434
1772045240346013700,8.094013671875,1.0424635183349251,-1.708031998375058,-0.12341712083220481
1772045240356000000,8.104,1.0982016260392964,-1.8314719155609607,-0.2180395243346691
1772045240365985800,8.11398583984375,1.142092351822555,-1.8824217660754918,-0.2914689176827669
1772045240375971800,8.123971923828124,1.1477394177988172,-1.841001375928521,-0.37403672625422474
1772045240385958000,8.1339580078125,1.109598195452988,-1.7647160086274145,-0.44421734693944454
1772045240395943000,8.14394287109375,1.044358538301289,-1.6288380501508712,-0.5334183099150658
1772045240405929000,8.153928955078126,0.9458042021773755,-1.4657669643223286,-0.6495253999948501
1772045240415915000,8.1639150390625,0.8432052668377756,-1.292532796397805,-0.7726034981310367
1772045240425901000,8.173901123046875,0.7429236685298383,-1.1226876863896846,-0.9294254604369402
1772045240435885800,8.1838857421875,0.6772009040363133,-0.9714818103998899,-1.0849088676154612
1772045240445871900,8.193871826171875,0.5978229775473475,-0.8495715869992971,-1.2212760709136723
1772045240455858000,8.20385791015625,0.4924643682360649,-0.7586655736714601,-1.3619400946229696
1772045240465844000,8.213843994140625,0.3718611357808113,-0.7165420036911964,-1.4461024789094925
1772045240475829800,8.223829833984375,0.267501474379003,-0.7716396215349436,-1.5003531245350836
1772045240485814800,8.233814697265625,0.18471549301221965,-0.8968336889117956,-1.583867274045944
1772045240495801000,8.243801025390624,0.11056026960760354,-1.0383908620685338,-1.673119090425968
1772045240505787000,8.253786865234375,0.10851371234133839,-1.1631097131490706,-1.7701438788950443
1772045240515773000,8.26377294921875,0.245928086604923,-1.0753221241027116,-2.0430553956240414
1772045240525759000,8.273759033203126,0.4200517507150769,-0.6089397071063518,-2.459638301184773
1772045240535744000,8.283743896484374,0.4932584412232041,-0.18199030583202838,-2.598143685555458
1772045240545729800,8.293729736328125,0.4060127039685845,0.053043607923388476,-2.569569332978129
1772045240555715800,8.3037158203125,0.2801682098589837,0.18895839127898215,-2.522189157643914
1772045240565702000,8.313701904296876,0.20002777456492185,0.2569727738410234,-2.6181302425295114
1772045240575688000,8.32368798828125,0.14913637623935938,0.3167185097515583,-2.825476523414254
1772045240585673000,8.3336728515625,0.10804098026305436,0.2562298465192318,-2.9722867947936056
1772045240595658800,8.34365869140625,0.1113598955526948,0.027535072657465933,-3.082151775613427
1772045240605645000,8.35364501953125,0.19385697697550058,-0.24989947445392607,-3.1620103252261873
1772045240615630800,8.363630859375,0.28764424482807516,-0.5903478193610906,-3.1506483887344596
1772045240625616000,8.373615966796875,0.3929400180362165,-0.9864660290420055,-3.0626971335589883
1772045240635602000,8.383601806640625,0.43564168016538024,-1.370546010404825,-2.9126830977022644
1772045240645588000,8.393587890625,0.4695218840658664,-1.7053133870661257,-2.6999884415268895
1772045240655573800,8.40357373046875,0.5284428595900535,-1.9260335287868975,-2.4513830985367298
1772045240665560000,8.41356005859375,0.589282235956192,-1.98921508436501,-2.216812710639834
1772045240675545000,8.423545166015625,0.6377683267056942,-1.8660954851746558,-1.9753420418351888
1772045240685531000,8.43353076171875,0.6125757255211473,-1.6241168668478727,-1.6996482009112834
1772045240695517000,8.443516845703124,0.534535769637674,-1.2957833226263522,-1.3942641551226376
1772045240705503000,8.4535029296875,0.42049671800360083,-0.9645663319230079,-1.1336562396496535
1772045240715489000,8.463489013671875,0.3150540836706757,-0.6459791056901216,-0.9672954646259546
1772045240725473800,8.473473876953125,0.19119974046498536,-0.33632629654109475,-0.8808475997507572
1772045240735459800,8.4834599609375,0.06887757526263594,-0.06987023956179618,-0.813138922137022
1772045240745446000,8.49344580078125,-0.045316813063621515,0.08677870426476002,-0.7875929774701594
1772045240755432000,8.503431884765625,-0.2298737545132637,0.1412812788248062,-0.7772481090664863
1772045240765417000,8.5134169921875,-0.3917769656062126,0.1455430279225111,-0.7938947079628705
1772045240775403000,8.523403076171874,-0.5489820820108056,0.05644727888703346,-0.7793839520514011
1772045240785389000,8.53338916015625,-0.6822026578463614,-0.1146557222276926,-0.7271843937367201
1772045240795375000,8.543375,-0.694483608879149,-0.3439098835378885,-0.6862614317178726
1772045240805361200,8.553361083984376,-0.6124703654505312,-0.5846826332062482,-0.6905237653374672
1772045240815346000,8.563345947265624,-0.4924234517037868,-0.9043529785007238,-0.7943588183432817
1772045240825332000,8.57333203125,-0.381938293159008,-1.1801017644822598,-1.011450248172879
1772045240835318000,8.583318115234375,-0.25980492852702736,-1.3746329874575138,-1.2888842107623815
1772045240845304000,8.593303955078126,-0.14769699108600615,-1.4384844051212071,-1.5394564699113369
1772045240855289900,8.603289794921874,-0.08025105606168507,-1.3559084132432937,-1.7633973272442818
1772045240865275000,8.61327490234375,-0.1256029404386878,-1.2093214292258023,-1.951283120855689
1772045240875261200,8.62326123046875,-0.32366759823709723,-0.9814832721933722,-2.107691826185584
1772045240885247000,8.6332470703125,-0.5830754902705549,-0.761030549237132,-2.171806863221526
1772045240895233000,8.64323291015625,-0.7351730544030666,-0.4775044072523713,-2.208933355566859
1772045240905218000,8.653218017578125,-0.7243290043056011,-0.23092940104603765,-2.1808032396256922
1772045240915204000,8.6632041015625,-0.6613312808617949,-0.203623168708384,-2.0924597702622414
1772045240925190000,8.67318994140625,-0.49400750602483745,-0.23859891276061534,-2.093653363960981
1772045240935176200,8.68317626953125,-0.2831388962328434,-0.2146978126913309,-2.237296695742011
1772045240945162000,8.693161865234375,-0.15398396240100265,-0.15329408044070006,-2.347290855899453
1772045240955147000,8.70314697265625,-0.14155030502453445,-0.0943976548358798,-2.333032613444328
1772045240965133000,8.713133056640626,-0.19097952184304595,0.000661094257235527,-2.195865784201026
1772045240975119000,8.723119140625,-0.15022110273614525,0.13468874869197606,-2.0962544863700865
1772045240985105200,8.733105224609375,-0.15791209563016892,0.28951515326648947,-2.130965734267235
1772045240995091000,8.743091064453125,-0.18019874624013899,0.432163774921745,-2.240125197166204
1772045241005076000,8.753075927734375,-0.338847339451313,0.5962174420468509,-2.404356558945775
1772045241015062000,8.76306201171875,-0.44651627153158185,0.8079414996244013,-2.494889647307992
1772045241025048000,8.773048095703125,-0.32360885378718374,1.051113857780397,-2.5877719291448593
1772045241035033900,8.783033935546875,-0.08285539334118366,1.1516378865420818,-2.6126708080798386
1772045241045019000,8.793018798828125,0.4508779738724231,1.2981906760290265,-2.6277082182139155
1772045241055005200,8.803005126953124,0.917861717762798,1.4301764493726192,-2.357227728024125
1772045241064991000,8.812990966796875,0.8931390721775591,1.523239786864817,-1.8799194278657436
1772045241074977000,8.82297705078125,0.18551424217447637,1.3789252778239547,-1.2225555893301963
1772045241084963000,8.832963134765626,0.18830080415308476,2.1420742805197834,-1.431363759461045
1772045241094948000,8.842947998046874,-0.04841214873045683,2.9206062919169664,-1.5267881269961594
1772045241104934000,8.852933837890625,-0.37667350449860093,3.1195532855078576,-1.4402186815679072
1772045241114920000,8.862919921875,-0.47538025470525025,3.1348969851121304,-1.4501777655243873
1772045241124906000,8.872906005859376,-0.22789280982911586,2.828479504622519,-1.380485220617056
1772045241134892000,8.88289208984375,0.413124874061346,2.459866264721751,-1.4455290629357098
1772045241144877000,8.892876953125,1.277236443066597,2.449193333407491,-1.7240233482331035
1772045241154863000,8.902863037109375,1.5530641395032405,2.448003100709617,-1.7338316255420445
1772045241164849200,8.91284912109375,1.6871785954385994,2.4850819545209406,-1.7657482742846011
1772045241174835000,8.9228349609375,1.8599667731612919,2.6318492635414,-1.7404823156028986
1772045241184820000,8.932820068359375,1.9652683915883302,2.7018244247823953,-1.6340210057467222
1772045241194806000,8.942805908203125,2.130038682550192,2.7176170371979476,-1.4784715475946664
1772045241204792000,8.9527919921875,2.312547459298372,2.828317299798131,-1.3317273271888495
1772045241214777900,8.96277783203125,2.2502333342045544,2.9144176664099097,-1.1463964787572622
1772045241224764200,8.97276416015625,1.8185341080546378,2.7048493255615234,-0.9902274274021386
1772045241234749200,8.982749267578125,1.3299907126545905,2.2445967896223067,-1.1189490843832492
1772045241244735000,8.99273486328125,0.9171236127465963,1.7674293592393397,-1.452757845145464
1772045241254721000,9.002720947265624,0.663645695284009,1.4460862584270535,-1.5861100845366716
1772045241264707000,9.01270703125,0.6694909141808748,1.4052028977662323,-1.6779232758373022
1772045241274692000,9.022692138671875,0.5262333668470383,1.3961167972519992,-1.3103814645603298
1772045241284678000,9.032677978515625,0.4065834895938635,1.3472571970149874,-0.8610720551788806
1772045241294664000,9.042663818359374,0.434615405857563,1.1956387947015463,-0.5572790779739618
1772045241304650000,9.05264990234375,0.7275181557357311,1.0710644666582345,-0.2847133059427142
1772045241314636000,9.062635986328125,1.171992107784748,1.0001764283560215,-0.05461889441609382
1772045241324621000,9.07262109375,1.4755027609169482,1.0155767535183577,0.002242225968837738
1772045241334607000,9.082607177734374,1.6093758093118666,0.9976103772602974,0.08753536785095929
1772045241344593200,9.09259326171875,1.6620698731452226,0.891843917800486,0.15661153442561626
1772045241354579000,9.102578857421875,1.5882956118822096,0.7406379687454551,0.11845160737931727
1772045241364564000,9.11256396484375,1.4227040676653384,0.5721237420149147,0.026559797884523867
1772045241374550000,9.122550048828124,1.2699287504017351,0.3940573316283524,-0.1241265842758119
1772045241384536000,9.1325361328125,1.3112217147767542,0.3364123673893511,-0.3564009701900184
1772045241394521900,9.14252197265625,1.5558224983006714,0.4435366711989045,-0.7158939150460064
1772045241404508200,9.152508056640626,1.8860908099770546,0.6564861789181828,-1.1134940338477493
1772045241414493200,9.1624931640625,2.199585681506991,0.8272238538518547,-1.4917228049643336
1772045241424479000,9.17247900390625,2.455353171211481,0.9295233678534627,-1.8123530813321471
1772045241434465000,9.182465087890625,2.68493700286746,1.0593600003391503,-2.160821943348646
1772045241444451000,9.192451171875,2.4574819999337194,1.1301947010189295,-2.566049049897492
1772045241454437000,9.20243701171875,2.168002210241556,1.4084111922882496,-3.1245775434106586
1772045241464422000,9.212421875,2.1957792749613523,1.8808062937028704,-3.3992163223236798
1772045241474408000,9.222407958984375,2.253253558808565,2.2253581284061075,-3.0366295031055808
1772045241484394000,9.23239404296875,2.166525123426318,2.239260981552303,-2.102270385658741
1772045241494380000,9.242380126953124,2.00995450553298,2.120825448524952,-0.7299270435083657
1772045241504365000,9.252364990234375,1.9481576823115347,1.781962619243562,0.5601322389153763
1772045241514351000,9.26235107421875,1.9347119252830742,1.1969212357275187,1.3752166325643658
1772045241524336000,9.272336181640625,1.9060662610352037,0.7091990935824811,1.7350528379000723
1772045241534322000,9.282322021484376,1.914109866759181,0.39257323055043813,1.61425598256886
1772045241544308000,9.292307861328124,1.7850731524795294,0.2141422246351838,1.1608755974214524
1772045241554294000,9.3022939453125,1.6822586746931074,0.0093033965267241,0.5565546361569315
1772045241564280000,9.312280029296875,1.6221581339955329,-0.3440428622677922,0.06420877973400056
1772045241574265000,9.32226513671875,1.673891243842244,-0.6022191666796803,-0.19246208855099975
1772045241584251000,9.3322509765625,1.8400906908243893,-0.6612985476359725,-0.3784977973163128
1772045241594237200,9.3422373046875,2.012992265793681,-0.8548629714056849,-0.49563276913911103
1772045241604223000,9.352222900390625,2.0127152024179695,-1.0854778996750711,-0.45674248199164863
1772045241614208000,9.3622080078125,1.8047639413774013,-1.099777350923419,-0.20307430265396834
1772045241624193800,9.37219384765625,1.3061071482419966,-0.7666361141592264,0.2894815432578325
1772045241634180000,9.38218017578125,0.8543447927504777,-0.49909956846684217,0.5679392228718847
1772045241644166000,9.392165771484375,0.36147242823541165,-0.4566849065855145,0.3365115899801254
1772045241654152000,9.40215185546875,-0.07575228333771228,-0.3327615897968411,-0.14141199253238737
1772045241664137200,9.41213720703125,-0.2114952172577381,-0.14770780474096537,-0.472463417410478
1772045241674123000,9.422123046875,-0.3161310652524233,-0.18187457049787042,-0.48209582669585943
1772045241684109000,9.432109130859375,-0.31525603598356244,-0.2423454058125615,-0.24566921647302806
1772045241694095000,9.44209521484375,-0.12493570870161055,-0.2575578802525997,-0.013030088899657129
1772045241704081200,9.4520810546875,0.07752864536046981,-0.3308922887936234,0.1837308658890426
1772045241714066000,9.46206591796875,0.051045712104439735,-0.4182981850460171,0.43025516482144593
1772045241724052000,9.472052001953125,-0.14634031578004358,-0.39862639310956,0.5720067645717412
1772045241734038000,9.4820380859375,-0.3422305521488189,-0.29352234308123587,0.435398299863562
1772045241744024000,9.492024169921875,-0.43851299781799313,-0.20107173065990208,0.14977620851285756
1772045241754009000,9.502009033203125,-0.4063561105787754,-0.36799072408825156,0.04747296818420291
1772045241763995000,9.511994873046875,-0.144375737708807,-0.6175251646220684,0.03082629622258246
1772045241773981200,9.521981201171876,0.24796412247717378,-0.6721990040957927,-0.10982523333132266
1772045241783967200,9.53196728515625,0.35872166822254653,-0.853844442012906,-0.18303718453645706
1772045241793953300,9.541953369140625,0.34409400793313977,-0.9870853299841285,-0.21013613079898058
1772045241803938000,9.55193798828125,0.3235194219380617,-0.8695490838840604,-0.2636844003088772
1772045241813924000,9.561924072265626,0.13848609514832497,-0.6901376886293291,-0.17929975157380104
1772045241823910100,9.57191015625,-0.12149404381513595,-0.41067981899678707,-0.043730201459303494
1772045241833896200,9.581896240234375,-0.21928221787214278,-0.0154305011048913,-0.010975713653117418
1772045241843882000,9.591882080078125,-0.22117782236039638,0.2533075293317437,0.054096916368603705
1772045241853868300,9.601868408203124,-0.2544780344158411,0.46321197026669975,0.19185308980718255
1772045241863853300,9.611853271484375,-0.4196843787074089,0.6604585896804929,0.31809608171507714
1772045241873839000,9.621839111328125,-0.5751975965023041,0.87328914719522,0.3574575665708631
1772045241883825200,9.6318251953125,-0.6427496222496032,1.0520300958424806,0.3521059764098376
1772045241893811200,9.641811279296874,-0.6060334642708302,1.1736346142947673,0.32271395077407355
1772045241903797200,9.65179736328125,-0.3226999222487211,1.1964993570536375,0.2433547289855778
1772045241913782000,9.661781982421875,0.0591033463537693,1.1840116314023732,0.19390315420478582
1772045241923768000,9.67176806640625,0.48532969405055043,1.1896528521597385,0.24217246039845047
1772045241933754000,9.681754150390624,0.9703063368797301,1.1963052957862614,0.3557557310890406
1772045241943740200,9.691740234375,1.4071645532280206,1.1750053181260824,0.5212186074249446
1772045241953726000,9.701725830078125,1.5137912827789783,1.1630907161876558,0.6432428125940263
1772045241963711200,9.711711181640625,1.2932833225041627,1.1755296342611312,0.6504368888165801
1772045241973697300,9.721697265625,1.0528700537979603,1.1995312720954419,0.555082225516811
1772045241983683000,9.73168310546875,0.9633850131839513,1.3608949694842098,0.13396722948439418
1772045241993669000,9.741669189453125,0.9389736255049705,1.3192360944062471,-0.17394918432608245
1772045242003654100,9.751654052734375,0.9706769237577915,1.1699813524842262,-0.339064635463804
1772045242013640200,9.76164013671875,0.9774684835940599,1.2225018133163452,-0.4752495775302872
1772045242023626000,9.7716259765625,0.9637363108396529,1.2707114252120255,-0.6103916594803332
1772045242033612300,9.7816123046875,0.9410165295094252,1.3745979161441326,-0.5760673650741577
