time,seconds_elapsed,z,y,x
1772045232287446800,0.03544677734375,0.8969196081161499,3.0315613746643066,-1.9333834648132324
1772045232297431800,0.045431884765625,1.08424973487854,3.529862642288208,-2.070009708404541
1772045232307417900,0.05541796875,1.250949501991272,3.852783679962158,-2.1279208660125732
1772045232317404000,0.06540380859375,1.4518465995788574,3.9829518795013428,-2.1472795009613037
1772045232327389700,0.0753896484375,1.525091528892517,3.916672706604004,-2.1222283840179443
1772045232337376000,0.0853759765625,1.520776629447937,3.5899922847747803,-2.023534059524536
1772045232347361800,0.09536181640625,1.519136667251587,3.2270498275756836,-1.8496125936508179
1772045232357346800,0.105346923828125,1.5737618207931519,2.9812369346618652,-1.6396757364273071
1772045232367332600,0.11533251953125,1.6805617809295654,2.882777452468872,-1.4123525619506836
1772045232377319000,0.12531884765625,1.809383511543274,2.8575403690338135,-1.1865121126174927
1772045232387304700,0.1353046875,1.908685326576233,2.834855079650879,-0.9699286818504333
1772045232397290800,0.145290771484375,1.8517369031906128,2.702519178390503,-0.7613515257835388
1772045232407276000,0.155276123046875,1.422392725944519,2.3759663105010986,-0.5385046005249023
1772045232417261800,0.16526171875,0.515740692615509,1.940629243850708,-0.21000663936138153
1772045232427247900,0.175247802734375,-0.4118329882621765,1.274750828742981,0.17396366596221924
1772045232437234000,0.18523388671875,-0.9680108428001404,0.09004226326942444,0.5190938115119934
1772045232447220000,0.195219970703125,-1.2759768962860107,-1.334736704826355,0.8411306738853455
1772045232457205800,0.205205810546875,-1.4694539308547974,-2.6584856510162354,1.180952787399292
1772045232467190800,0.215190673828125,-1.6377369165420532,-3.7609055042266846,1.4749202728271484
1772045232477176800,0.2251767578125,-1.8215515613555908,-4.651984214782715,1.6824852228164673
1772045232487163000,0.235162841796875,-2.0080745220184326,-5.325716495513916,1.7865769863128662
1772045232497148700,0.245148681640625,-2.195817708969116,-5.757890224456787,1.7672804594039917
1772045232507135000,0.255135009765625,-2.4000258445739746,-5.0138349533081055,1.4188439846038818
1772045232517120800,0.265120849609375,-2.6283652782440186,-5.010669231414795,1.125455617904663
1772045232527105800,0.275105712890625,-2.874814748764038,-4.348615646362305,0.7180843353271484
1772045232537091800,0.285091796875,-2.9507546424865723,-3.3660340309143066,0.2539735734462738
1772045232547078000,0.295077880859375,-2.778123140335083,-2.2194721698760986,-0.21632523834705353
1772045232557064000,0.30506396484375,-2.2422080039978027,-1.693888783454895,-0.5604156255722046
1772045232567049700,0.3150498046875,-1.5023607015609741,-1.5783650875091553,-0.8234038352966309
1772045232577034800,0.32503466796875,-0.7158069610595703,-1.7023035287857056,-1.028999924659729
1772045232587020800,0.335020751953125,-0.013974791392683983,-2.0869884490966797,-1.1565186977386475
1772045232597006800,0.3450068359375,0.4993005692958832,-2.606109619140625,-1.2094494104385376
1772045232606992600,0.35499267578125,0.8036990761756897,-3.108098030090332,-1.1953634023666382
1772045232616979000,0.36497900390625,0.9438046813011169,-3.46982479095459,-1.0777161121368408
1772045232626964700,0.37496484375,0.958885133266449,-3.6341588497161865,-0.8431480526924133
1772045232636949800,0.38494970703125,0.8628138303756714,-3.6756715774536133,-0.5073858499526978
1772045232646935800,0.394935791015625,0.7035839557647705,-3.7215137481689453,-0.1107625886797905
1772045232656921900,0.404921875,0.539835512638092,-3.4028985500335693,0.34991079568862915
1772045232666908000,0.414907958984375,0.4135524034500122,-3.474996566772461,0.7226265668869019
1772045232676893700,0.424893798828125,0.39430007338523865,-3.9709293842315674,0.8901817798614502
1772045232686880000,0.4348798828125,0.41261008381843567,-4.452488422393799,0.9228500127792358
1772045232696864800,0.44486474609375,0.45945027470588684,-4.8551483154296875,0.9105698466300964
1772045232706850800,0.454850830078125,0.5530784726142883,-5.2263641357421875,0.9199644327163696
1772045232716836900,0.4648369140625,0.7140319347381592,-5.499195098876953,1.00190269947052
1772045232726823000,0.474822998046875,0.8905369639396667,-5.734148025512695,1.1332402229309082
1772045232736808700,0.48480859375,1.0693286657333374,-5.953442573547363,1.273934245109558
1772045232746793700,0.494793701171875,1.2477335929870605,-6.154059410095215,1.3936665058135986
1772045232756780000,0.504780029296875,1.4432533979415894,-6.319113254547119,1.4778841733932495
1772045232766766300,0.514766357421875,1.6884280443191528,-6.291398525238037,1.4837268590927124
1772045232776752000,0.524752197265625,1.9837771654129028,-6.216679096221924,1.4220634698867798
1772045232786738200,0.53473828125,2.2262332439422607,-6.141529083251953,1.3443667888641357
1772045232796724200,0.54472412109375,2.360844135284424,-6.1381449699401855,1.2750420570373535
1772045232806709200,0.554709228515625,2.4729158878326416,-6.234464645385742,1.2767081260681152
1772045232816695300,0.5646953125,2.592376470565796,-6.311330318450928,1.3884711265563965
1772045232826681300,0.574681396484375,2.7210540771484375,-6.312897682189941,1.5689836740493774
1772045232836667400,0.58466748046875,2.8567261695861816,-6.094522953033447,1.729863166809082
1772045232846653200,0.594653076171875,3.0066287517547607,-5.617882251739502,1.7945548295974731
1772045232856639500,0.604639404296875,3.1134676933288574,-4.9727067947387695,1.6690012216567993
1772045232866624300,0.614624267578125,3.179332733154297,-4.271225452423096,1.3361167907714844
1772045232876610300,0.6246103515625,3.2118654251098633,-3.612722873687744,0.8509417772293091
1772045232886596000,0.63459619140625,3.245880365371704,-3.0087835788726807,0.32412511110305786
1772045232896582400,0.64458251953125,3.32696533203125,-2.4785711765289307,-0.13106516003608704
1772045232906568200,0.654568115234375,3.4777631759643555,-2.0997767448425293,-0.4792100787162781
1772045232916553200,0.66455322265625,3.635737419128418,-1.9174104928970337,-0.7094255685806274
1772045232926539300,0.674539306640625,3.7166736125946045,-1.902726650238037,-0.7841283082962036
1772045232936525300,0.684525390625,3.6922030448913574,-1.9585834741592407,-0.7091457843780518
1772045232946511400,0.694511474609375,3.5773394107818604,-2.013395309448242,-0.4953829348087311
1772045232956497200,0.7044970703125,3.386263847351074,-2.0286037921905518,-0.16582201421260834
1772045232966483500,0.7144833984375,3.1520164012908936,-1.950251579284668,0.23360368609428406
1772045232976468200,0.72446826171875,2.923600435256958,-1.7673598527908325,0.6474928259849548
1772045232986454300,0.734454345703125,2.756335973739624,-1.6101036071777344,0.9952742457389832
1772045232996440000,0.744440185546875,2.6760058403015137,-1.5357316732406616,1.2415735721588135
1772045233006426400,0.75442626953125,2.6762850284576416,-1.538674235343933,1.3915153741836548
1772045233016412200,0.764412109375,2.7365710735321045,-1.6216481924057007,1.4640477895736694
1772045233026397200,0.774397216796875,2.8236539363861084,-1.7594274282455444,1.503597378730774
1772045233036383200,0.78438330078125,2.919794797897339,-1.9259673357009888,1.5323126316070557
1772045233046369300,0.794369384765625,3.0072262287139893,-2.0865612030029297,1.569665551185608
1772045233056355300,0.804355224609375,3.092061758041382,-2.23356556892395,1.615179419517517
1772045233066341000,0.814341064453125,3.1769087314605713,-2.3391165733337402,1.6678602695465088
1772045233076327400,0.824327392578125,3.263831615447998,-2.4156763553619385,1.7363964319229126
1772045233086312200,0.834312255859375,3.310482978820801,-2.474766254425049,1.8508661985397339
1772045233096298200,0.84429833984375,3.314136505126953,-2.528395414352417,2.016211748123169
1772045233106284300,0.8542841796875,3.2310028076171875,-2.4821343421936035,2.2250053882598877
1772045233116270300,0.864270263671875,3.1053922176361084,-2.413620948791504,2.4231088161468506
1772045233126256000,0.874256103515625,2.900709390640259,-2.2999632358551025,2.591679573059082
1772045233136241200,0.8842412109375,2.585695505142212,-2.1417200565338135,2.6768252849578857
1772045233146227500,0.8942275390625,2.0867021083831787,-1.948560357093811,2.6150200366973877
1772045233156213200,0.904213134765625,1.435373306274414,-1.761973261833191,2.3872594833374023
1772045233166199300,0.91419921875,0.7263162136077881,-1.5339974164962769,1.999809741973877
1772045233176185300,0.924185302734375,0.0739888921380043,-1.1978915929794312,1.5288571119308472
1772045233186171400,0.93417138671875,-0.43598833680152893,-0.7790841460227966,1.041347622871399
1772045233196156200,0.94415625,-0.7709898352622986,-0.3098521828651428,0.5950629711151123
1772045233206142200,0.95414208984375,-0.9471792578697205,0.18015877902507782,0.21695616841316223
1772045233216128300,0.964128173828125,-0.9885530471801758,0.6236411333084106,-0.07149240374565125
1772045233226114300,0.9741142578125,-0.9393117427825928,1.004899263381958,-0.2834848165512085
1772045233236100000,0.98410009765625,-0.8516989946365356,1.305038571357727,-0.4101332128047943
1772045233246086400,0.99408642578125,-0.7654765248298645,1.5100619792938232,-0.47758948802948
1772045233256071400,1.004071533203125,-0.698790431022644,1.611266851425171,-0.48572298884391785
1772045233266057200,1.01405712890625,-0.6442094445228577,1.5924230813980103,-0.44718918204307556
1772045233276043300,1.024043212890625,-0.6046566963195801,1.4680896997451782,-0.35886064171791077
1772045233286029300,1.034029296875,-0.570382833480835,1.263378620147705,-0.23214338719844818
1772045233296015400,1.044015380859375,-0.5418299436569214,1.0179295539855957,-0.07930625975131989
1772045233306000100,1.054000244140625,-0.5071207284927368,0.7746200561523438,0.08337186276912689
1772045233315986200,1.063986083984375,-0.4695224463939667,0.5330682396888733,0.23273926973342896
1772045233325972200,1.07397216796875,-0.4326360523700714,0.29862168431282043,0.3616141676902771
1772045233335958300,1.083958251953125,-0.3875088393688202,0.07001085579395294,0.46788352727890015
1772045233345944000,1.093944091796875,-0.342993825674057,-0.13884302973747253,0.5589359402656555
1772045233355930400,1.103930419921875,-0.2991146743297577,-0.3402501344680786,0.6385655403137207
1772045233365915400,1.113915283203125,-0.2669825851917267,-0.5316062569618225,0.7121372222900391
1772045233375901200,1.123901123046875,-0.2638171911239624,-0.7143940925598145,0.767838180065155
1772045233385887500,1.133887451171875,-0.2805365025997162,-0.8790019750595093,0.8042765855789185
1772045233395873300,1.143873291015625,-0.263589084148407,-1.0260474681854248,0.8238130211830139
1772045233405859300,1.153859375,-0.2186000496149063,-1.166739583015442,0.8094772100448608
1772045233415845000,1.16384521484375,-0.16043511033058167,-1.295303463935852,0.7796053886413574
1772045233425830400,1.173830322265625,-0.0987618938088417,-1.4225263595581055,0.723823070526123
1772045233435816200,1.183816162109375,-0.040824417024850845,-1.547116756439209,0.6534665822982788
1772045233445802200,1.19380224609375,0.026320531964302063,-1.6750900745391846,0.582763135433197
1772045233455788300,1.203788330078125,0.09916862100362778,-1.7903878688812256,0.5284728407859802
1772045233465774300,1.2137744140625,0.1789875626564026,-1.8595898151397705,0.490052729845047
1772045233475759400,1.22375927734375,0.2509596347808838,-1.8891172409057617,0.45760124921798706
1772045233485745200,1.2337451171875,0.3000805675983429,-1.8965024948120117,0.42345550656318665
1772045233495731500,1.2437314453125,0.31726959347724915,-1.8773508071899414,0.3793339431285858
1772045233505717200,1.25371728515625,0.29651904106140137,-1.7997175455093384,0.3339741826057434
1772045233515703300,1.263703369140625,0.23580145835876465,-1.6544299125671387,0.27334335446357727
1772045233525689300,1.273689453125,0.14950785040855408,-1.4522682428359985,0.18790753185749054
1772045233535674400,1.28367431640625,0.039828456938266754,-1.1943403482437134,0.06886094808578491
1772045233545660200,1.29366015625,-0.07854585349559784,-0.9018577933311462,-0.08296000212430954
1772045233555646200,1.303646240234375,-0.1940149962902069,-0.5844382047653198,-0.25821685791015625
1772045233565632300,1.31363232421875,-0.2921021580696106,-0.25052303075790405,-0.43942952156066895
1772045233575618300,1.323618408203125,-0.3509579598903656,0.09706484526395798,-0.6084815859794617
1772045233585604000,1.33360400390625,-0.36331263184547424,0.4220946133136749,-0.7690651416778564
1772045233595589000,1.343589111328125,-0.33503004908561707,0.6832732558250427,-0.9201458692550659
1772045233605575400,1.353575439453125,-0.2949784994125366,0.8920645117759705,-1.0761059522628784
1772045233615561200,1.363561279296875,-0.24645911157131195,1.043383240699768,-1.2357285022735596
1772045233625547300,1.37354736328125,-0.15410920977592468,1.1309090852737427,-1.3934643268585205
1772045233635533300,1.383533203125,0.0009661903604865074,1.1761252880096436,-1.5042741298675537
1772045233645519400,1.393519287109375,0.22245649993419647,1.2086517810821533,-1.5334300994873047
1772045233655504100,1.403504150390625,0.4709376096725464,1.2275842428207397,-1.4613075256347656
1772045233665490200,1.413490234375,0.7099334001541138,1.2160652875900269,-1.3124109506607056
1772045233675476200,1.423476318359375,0.8738818168640137,1.1711747646331787,-1.1144806146621704
1772045233685462300,1.433462158203125,0.9506274461746216,1.1022590398788452,-0.8919381499290466
1772045233695448000,1.443447998046875,0.9350324869155884,1.0017688274383545,-0.6703600883483887
1772045233705433300,1.453433349609375,0.8231070637702942,0.8757449984550476,-0.4626801013946533
1772045233715419400,1.46341943359375,0.6234797239303589,0.7359169125556946,-0.2766086459159851
1772045233725405200,1.4734052734375,0.35942891240119934,0.5602303147315979,-0.1170986071228981
1772045233735391500,1.4833916015625,0.06412596255540848,0.35719865560531616,0.012969770468771458
1772045233745377300,1.493377197265625,-0.21627746522426605,0.14391061663627625,0.11056610941886902
1772045233755363300,1.50336328125,-0.45239436626434326,-0.04858345538377762,0.19546078145503998
1772045233765347600,1.51334765625,-0.630457878112793,-0.21259289979934692,0.27035635709762573
1772045233775333400,1.52333349609375,-0.7465064525604248,-0.3509584069252014,0.3427618145942688
1772045233785319700,1.533319580078125,-0.821597695350647,-0.47062116861343384,0.4024411141872406
1772045233795305500,1.543305419921875,-0.8711846470832825,-0.5596404671669006,0.433915376663208
1772045233805291500,1.55329150390625,-0.9071658253669739,-0.6163282990455627,0.4296764135360718
1772045233815277600,1.563277587890625,-0.9245935678482056,-0.6449887752532959,0.3851538896560669
1772045233825263600,1.573263671875,-0.9189205169677734,-0.6426215171813965,0.3271217346191406
1772045233835248400,1.583248291015625,-0.8818641304969788,-0.6085271835327148,0.2607380151748657
1772045233845234700,1.593234619140625,-0.8225648403167725,-0.5345397591590881,0.21319925785064697
1772045233855220500,1.603220458984375,-0.7352171540260315,-0.4365566074848175,0.17534174025058746
1772045233865206500,1.61320654296875,-0.6191749572753906,-0.32596859335899353,0.15795156359672546
1772045233875192300,1.6231923828125,-0.4898220896720886,-0.2216257005929947,0.159699484705925
1772045233885178600,1.6331787109375,-0.3522144556045532,-0.1387297511100769,0.1781565248966217
1772045233895163600,1.64316357421875,-0.21644175052642822,-0.0818769559264183,0.20154936611652374
1772045233905149400,1.6531494140625,-0.09153523296117783,-0.0673571303486824,0.22986462712287903
1772045233915135700,1.6631357421875,0.026711296290159225,-0.10649120062589645,0.26377370953559875
1772045233925121500,1.67312158203125,0.1348867565393448,-0.16602298617362976,0.324875146150589
1772045233935107600,1.683107666015625,0.22737325727939606,-0.24109038710594177,0.4133037328720093
1772045233945093600,1.69309375,0.29960376024246216,-0.342803955078125,0.5135898590087891
1772045233955078700,1.70307861328125,0.3546907901763916,-0.46410295367240906,0.6249774694442749
1772045233965064400,1.713064453125,0.3816281259059906,-0.5979864597320557,0.7323044538497925
1772045233975050500,1.723050537109375,0.3901539742946625,-0.7340773344039917,0.8468414545059204
1772045233985036500,1.73303662109375,0.38435280323028564,-0.8640881180763245,0.958939790725708
1772045233995022600,1.743022705078125,0.3672044277191162,-0.9910257458686829,1.0632253885269165
1772045234005008400,1.75300830078125,0.34968453645706177,-1.1052312850952148,1.1568248271942139
1772045234014993400,1.762993408203125,0.3250267207622528,-1.1947743892669678,1.2462576627731323
1772045234024979700,1.772979736328125,0.3127170503139496,-1.2539565563201904,1.3194568157196045
1772045234034965500,1.782965576171875,0.30158552527427673,-1.2990630865097046,1.37489914894104
1772045234044951600,1.79295166015625,0.3022798001766205,-1.3394297361373901,1.407767653465271
1772045234054937600,1.8029375,0.30302754044532776,-1.367964267730713,1.4262235164642334
1772045234064923600,1.812923583984375,0.30122455954551697,-1.387805700302124,1.4354244470596313
1772045234074908400,1.822908447265625,0.2967202365398407,-1.3908214569091797,1.4327245950698853
1772045234084894500,1.83289453125,0.2930152416229248,-1.3752305507659912,1.4175426959991455
1772045234094880500,1.842880615234375,0.27208665013313293,-1.3523210287094116,1.380037546157837
1772045234104866600,1.852866455078125,0.22613297402858734,-1.317191481590271,1.3150417804718018
1772045234114852400,1.862852294921875,0.1732928603887558,-1.2791277170181274,1.2280182838439941
1772045234124838700,1.872838623046875,0.11945705860853195,-1.2264453172683716,1.1355648040771484
1772045234134824400,1.882824462890625,0.07936100661754608,-1.1673136949539185,1.0483235120773315
1772045234144809500,1.8928095703125,0.07853756099939346,-1.101133108139038,0.9803426265716553
1772045234154795500,1.90279541015625,0.10323334485292435,-1.0251095294952393,0.936046838760376
1772045234164781600,1.912781494140625,0.15523077547550201,-0.959534227848053,0.9075973629951477
1772045234174767600,1.922767578125,0.1989711970090866,-0.9163063764572144,0.8811127543449402
1772045234184753400,1.93275341796875,0.1870974898338318,-0.9081411361694336,0.8210307955741882
1772045234194739500,1.942739501953125,0.1214098334312439,-0.9271538853645325,0.7125546932220459
1772045234204724500,1.952724365234375,0.03576098382472992,-0.9755805134773254,0.5623084902763367
1772045234214710500,1.96271044921875,-0.04013742879033089,-1.0345224142074585,0.39092618227005005
1772045234224696600,1.972696533203125,-0.07754924893379211,-1.0761370658874512,0.25376594066619873
1772045234234682600,1.9826826171875,-0.05673253908753395,-1.06122887134552,0.19451163709163666
1772045234244668400,1.99266845703125,0.010607617907226086,-0.9703161120414734,0.22289825975894928
1772045234254654500,2.002654541015625,0.0834023579955101,-0.8400551676750183,0.3032083511352539
1772045234264640500,2.012640625,0.08981391787528992,-0.6799442768096924,0.39395982027053833
1772045234274625500,2.02262548828125,0.014113198034465313,-0.49639007449150085,0.45383787155151367
1772045234284611600,2.032611572265625,-0.14423462748527527,-0.3054520785808563,0.48313477635383606
1772045234294597600,2.04259765625,-0.3543504774570465,-0.12764741480350494,0.4956909418106079
1772045234304583400,2.05258349609375,-0.5827605128288269,0.010301128029823303,0.5212261080741882
1772045234314569500,2.062569580078125,-0.7701695561408997,0.08704650402069092,0.5864408016204834
1772045234324555500,2.072555419921875,-0.8863883018493652,0.09320506453514099,0.6890590786933899
1772045234334541600,2.08254150390625,-0.9193748831748962,0.0011907555162906647,0.837826132774353
1772045234344526600,2.092526611328125,-0.9116823077201843,-0.18480387330055237,1.0328190326690674
1772045234354512400,2.102512451171875,-0.8896902203559875,-0.44425180554389954,1.2816137075424194
1772045234364498700,2.112498779296875,-0.8757776021957397,-0.7668144106864929,1.55398690700531
1772045234374484500,2.122484375,-0.9023658037185669,-1.1390408277511597,1.840671420097351
1772045234384470500,2.132470458984375,-0.97841876745224,-1.5315455198287964,2.105539083480835
1772045234394456600,2.14245654296875,-1.0906039476394653,-1.9181019067764282,2.349273681640625
1772045234404442600,2.152442626953125,-1.2265501022338867,-2.2753450870513916,2.569035053253174
1772045234414427400,2.162427490234375,-1.3732223510742188,-2.5758888721466064,2.7602105140686035
1772045234424413400,2.172413330078125,-1.5134066343307495,-2.812626838684082,2.8995115756988525
1772045234434399500,2.1823994140625,-1.6395601034164429,-2.9614717960357666,2.9807610511779785
1772045234444385500,2.192385498046875,-1.759473443031311,-3.036261796951294,2.9850504398345947
1772045234454371300,2.202371337890625,-1.8640859127044678,-3.0550718307495117,2.9358839988708496
1772045234464357600,2.212357666015625,-1.9328505992889404,-3.0070641040802,2.8529670238494873
1772045234474343400,2.222343505859375,-1.9580060243606567,-2.917663097381592,2.7361881732940674
1772045234484328400,2.232328369140625,-1.9427449703216553,-2.825922727584839,2.6071360111236572
1772045234494314500,2.242314453125,-1.894942045211792,-2.756990432739258,2.479807138442993
1772045234504300500,2.252300537109375,-1.81041419506073,-2.634883403778076,2.333932399749756
1772045234514286600,2.26228662109375,-1.7095497846603394,-2.4674501419067383,2.161161422729492
1772045234524272400,2.2722724609375,-1.6095776557922363,-2.322375535964966,1.9749603271484375
1772045234534258700,2.2822587890625,-1.4874705076217651,-2.197235107421875,1.801342248916626
1772045234544244500,2.292244384765625,-1.3430116176605225,-2.0852231979370117,1.6489282846450806
1772045234554229500,2.3022294921875,-1.1804760694503784,-1.9763888120651245,1.5142276287078857
1772045234564215300,2.31221533203125,-1.0230880975723267,-1.8838043212890625,1.3926713466644287
1772045234574201600,2.32220166015625,-0.8868687152862549,-1.8128618001937866,1.2724814414978027
1772045234584187400,2.3321875,-0.7713003158569336,-1.7728533744812012,1.1593146324157715
1772045234594173400,2.34217333984375,-0.6834321618080139,-1.7488921880722046,1.0359233617782593
1772045234604159500,2.352159423828125,-0.6347769498825073,-1.7335004806518555,0.8999783992767334
1772045234614145500,2.3621455078125,-0.6036780476570129,-1.7023694515228271,0.7435108423233032
1772045234624130600,2.372130615234375,-0.5924597382545471,-1.661798119544983,0.5692964792251587
1772045234634116400,2.382116455078125,-0.6009902954101562,-1.5920497179031372,0.3698920011520386
1772045234644102700,2.3921025390625,-0.6156877279281616,-1.4848408699035645,0.15297700464725494
1772045234654088400,2.40208837890625,-0.617372453212738,-1.3445223569869995,-0.07496476173400879
1772045234664074500,2.412074462890625,-0.6071307063102722,-1.1731932163238525,-0.3212754726409912
1772045234674060500,2.422060546875,-0.5831421613693237,-0.9632468223571777,-0.5754539370536804
1772045234684046600,2.432046630859375,-0.5504276156425476,-0.7165917158126831,-0.8357667326927185
1772045234694032400,2.442032470703125,-0.5073568224906921,-0.42506206035614014,-1.0693961381912231
1772045234704017400,2.452017333984375,-0.46472465991973877,-0.06398589164018631,-1.254387617111206
1772045234714003500,2.46200341796875,-0.42450815439224243,0.37523970007896423,-1.3714407682418823
1772045234723989500,2.471989501953125,-0.383261114358902,0.8800040483474731,-1.4369693994522095
1772045234733975300,2.481975341796875,-0.3723376393318176,1.3553669452667236,-1.5133111476898193
1772045234743961600,2.491961669921875,-0.42152008414268494,1.7832690477371216,-1.6343029737472534
1772045234753947400,2.501947509765625,-0.4772702753543854,2.146069049835205,-1.772897720336914
1772045234763934200,2.511934326171875,-0.48649680614471436,2.4596896171569824,-1.8831896781921387
1772045234773920000,2.521919921875,-0.4484681189060211,2.6931252479553223,-1.9302237033843994
1772045234783905000,2.531905029296875,-0.37928506731987,2.850187301635742,-1.9116809368133545
1772045234793891000,2.54189111328125,-0.30673012137413025,2.949416160583496,-1.8149551153182983
1772045234803877000,2.551877197265625,-0.24546411633491516,2.9731369018554688,-1.6236141920089722
1772045234813863000,2.56186279296875,-0.17971715331077576,2.927424192428589,-1.3415526151657104
1772045234823849200,2.57184912109375,-0.1103905513882637,2.8162310123443604,-0.9835022687911987
1772045234833835000,2.5818349609375,-0.06011909991502762,2.6504623889923096,-0.5819600224494934
1772045234843821000,2.591821044921875,-0.03238441050052643,2.4101369380950928,-0.18432825803756714
1772045234853806300,2.601806396484375,-0.03128955513238907,2.1165120601654053,0.18356502056121826
1772045234863792000,2.611792236328125,-0.038964517414569855,1.7790411710739136,0.5068733096122742
1772045234873778200,2.621778076171875,-0.02844150736927986,1.4291695356369019,0.7983661890029907
1772045234883764000,2.631763916015625,0.016785889863967896,1.0632795095443726,1.0732765197753906
1772045234893750300,2.641750244140625,0.08546529710292816,0.700430691242218,1.3402915000915527
1772045234903736000,2.651736083984375,0.15388377010822296,0.3475171625614166,1.5846500396728516
1772045234913722000,2.66172216796875,0.20354239642620087,0.006482433993369341,1.7872010469436646
1772045234923708200,2.671708251953125,0.2276432067155838,-0.3282308280467987,1.9270700216293335
1772045234933693200,2.681693115234375,0.21833594143390656,-0.628756046295166,1.9811986684799194
1772045234943679000,2.691678955078125,0.17309895157814026,-0.8772745132446289,1.9642622470855713
1772045234953665300,2.701665283203125,0.10558926314115524,-1.0437605381011963,1.8834927082061768
1772045234963651000,2.711651123046875,0.028434298932552338,-1.116625189781189,1.7545762062072754
1772045234973637000,2.72163720703125,-0.015570561401546001,-1.0960561037063599,1.603599190711975
1772045234983623000,2.731622802734375,-0.030236322432756424,-0.9978528618812561,1.44499933719635
1772045234993609200,2.741609130859375,-0.010966749861836433,-0.8396828174591064,1.2950959205627441
1772045235003595000,2.751594970703125,0.022849801927804947,-0.6349595189094543,1.152331829071045
1772045235013580000,2.761580078125,0.07601363211870193,-0.4214082956314087,1.022268533706665
1772045235023566300,2.77156640625,0.13071337342262268,-0.22341319918632507,0.9108623266220093
1772045235033552100,2.78155224609375,0.1786745935678482,-0.05220111832022667,0.8244693875312805
1772045235043538200,2.7915380859375,0.22527353465557098,0.08478043973445892,0.7701060175895691
1772045235053524200,2.801524169921875,0.25161197781562805,0.17774821817874908,0.723666787147522
1772045235063510300,2.81151025390625,0.26227182149887085,0.2230118364095688,0.6807044148445129
1772045235073496000,2.82149609375,0.2560848295688629,0.2288610339164734,0.6360152959823608
1772045235083481000,2.831481201171875,0.24795256555080414,0.2214217633008957,0.5984447598457336
1772045235093467100,2.841467041015625,0.2465064972639084,0.19877246022224426,0.5659705996513367
1772045235103453200,2.851453125,0.24698613584041595,0.1728774756193161,0.5378281474113464
1772045235113439000,2.86143896484375,0.24433770775794983,0.13223057985305786,0.5131454467773438
1772045235123425300,2.87142529296875,0.24548286199569702,0.07980092614889145,0.48890477418899536
1772045235133411000,2.8814111328125,0.24302621185779572,0.050296686589717865,0.47219717502593994
1772045235143397000,2.891397216796875,0.2512010335922241,0.06987544894218445,0.4606451690196991
1772045235153383200,2.901383056640625,0.2516023516654968,0.1534171998500824,0.453246533870697
1772045235163368200,2.9113681640625,0.2543981373310089,0.30942755937576294,0.42734649777412415
1772045235173354200,2.921354248046875,0.25226280093193054,0.5215461850166321,0.3844059407711029
1772045235183340000,2.931340087890625,0.2606504261493683,0.7393797039985657,0.3104366362094879
1772045235193326300,2.941326416015625,0.2754186689853668,0.9350311756134033,0.21560534834861755
1772045235203312000,2.95131201171875,0.3008260130882263,1.0845290422439575,0.10656115412712097
1772045235213298200,2.961298095703125,0.3313964605331421,1.1694504022598267,0.007551988121122122
1772045235223284200,2.9712841796875,0.3635152578353882,1.1942987442016602,-0.08112461864948273
1772045235233270300,2.981270263671875,0.3867548406124115,1.144587516784668,-0.150510773062706
1772045235243255000,2.991255126953125,0.39573103189468384,1.0229535102844238,-0.19327953457832336
1772045235253241000,3.001240966796875,0.3902994394302368,0.8435023427009583,-0.22146013379096985
1772045235263227100,3.01122705078125,0.38627487421035767,0.6143189668655396,-0.226327583193779
1772045235273213200,3.021213134765625,0.38943779468536377,0.3725718557834625,-0.21267984807491302
1772045235283199000,3.031198974609375,0.40190112590789795,0.14532619714736938,-0.1711380034685135
1772045235293185300,3.041185302734375,0.42420387268066406,-0.04938617721199989,-0.11464151740074158
1772045235303171000,3.051171142578125,0.4402014911174774,-0.18957816064357758,-0.05852578580379486
1772045235313156000,3.061156005859375,0.4450630843639374,-0.2844580113887787,-0.0023179289419203997
1772045235323142100,3.07114208984375,0.41747912764549255,-0.33745303750038147,0.01730983518064022
1772045235333128200,3.081128173828125,0.3593079149723053,-0.37294861674308777,-0.0022223505657166243
1772045235343114200,3.0911142578125,0.307739794254303,-0.37886562943458557,-0.048092372715473175
1772045235353100000,3.10110009765625,0.2758970856666565,-0.35296064615249634,-0.10315375030040741
1772045235363086300,3.11108642578125,0.25986379384994507,-0.3138899505138397,-0.1573040783405304
1772045235373072100,3.121072021484375,0.25131529569625854,-0.2923288345336914,-0.20519568026065826
1772045235383058200,3.13105810546875,0.27147674560546875,-0.26383697986602783,-0.21652103960514069
1772045235393044200,3.141044189453125,0.3226357400417328,-0.20953544974327087,-0.1839495301246643
1772045235403029200,3.151029296875,0.3801296651363373,-0.14926518499851227,-0.11233021318912506
1772045235413015000,3.16101513671875,0.4124358594417572,-0.09705473482608795,-0.037367887794971466
1772045235423001000,3.1710009765625,0.3990800976753235,-0.03812697157263756,0.009067254140973091
1772045235432987100,3.180987060546875,0.351506769657135,0.014173801988363266,0.0098112178966403
1772045235442973200,3.19097314453125,0.2854907512664795,0.06393975764513016,-0.028690103441476822
1772045235452959000,3.200958984375,0.19247712194919586,0.09573221206665039,-0.09104620665311813
1772045235462945300,3.2109453125,0.10054825991392136,0.10316163301467896,-0.15075801312923431
1772045235472930300,3.220930419921875,0.019990701228380203,0.08075524866580963,-0.18070493638515472
1772045235482916000,3.230916015625,-0.04429001733660698,0.034194402396678925,-0.15852665901184082
1772045235492902100,3.240902099609375,-0.07855336368083954,-0.02578829601407051,-0.08005391061306
1772045235502888200,3.25088818359375,-0.09311605989933014,-0.1208634078502655,0.03906182944774628
1772045235512874200,3.260874267578125,-0.10883872956037521,-0.23148716986179352,0.19736222922801971
1772045235522860000,3.270860107421875,-0.14637678861618042,-0.3535076379776001,0.37216758728027344
1772045235532846300,3.280846435546875,-0.20375873148441315,-0.4755842983722687,0.5513843894004822
1772045235542832000,3.29083203125,-0.2842850089073181,-0.5699499845504761,0.7289301753044128
1772045235552817200,3.300817138671875,-0.37850573658943176,-0.6306920647621155,0.8990737199783325
1772045235562803000,3.310802978515625,-0.48082199692726135,-0.6449138522148132,1.0401637554168701
1772045235572789200,3.320789306640625,-0.5733712911605835,-0.6311265230178833,1.1594784259796143
1772045235582775000,3.330775146484375,-0.6620657444000244,-0.6032480001449585,1.2549638748168945
1772045235592761000,3.340760986328125,-0.7420192956924438,-0.5559771060943604,1.3290047645568848
1772045235602747100,3.3507470703125,-0.8153220415115356,-0.4867258369922638,1.364279866218567
1772045235612733200,3.360733154296875,-0.8686464428901672,-0.44682997465133667,1.3692597150802612
1772045235622718200,3.37071826171875,-0.9065448045730591,-0.428119421005249,1.3589897155761719
1772045235632704300,3.380704345703125,-0.921047568321228,-0.4237123131752014,1.334591031074524
1772045235642690300,3.390690185546875,-0.9171074628829956,-0.4309854209423065,1.3074371814727783
1772045235652676000,3.400676025390625,-0.8931992650032043,-0.4567089080810547,1.286164402961731
1772045235662662100,3.410662109375,-0.8505542874336243,-0.5042274594306946,1.2711683511734009
1772045235672648200,3.420648193359375,-0.794998824596405,-0.5526492595672607,1.271927833557129
1772045235682634200,3.43063427734375,-0.7266435027122498,-0.6245216131210327,1.286442518234253
1772045235692620000,3.4406201171875,-0.6547431945800781,-0.6981111168861389,1.301220417022705
1772045235702605300,3.450605224609375,-0.602002739906311,-0.7663154602050781,1.315578579902649
1772045235712591000,3.460591064453125,-0.5565677881240845,-0.8040416836738586,1.311845064163208
1772045235722577200,3.4705771484375,-0.5154408812522888,-0.8493542671203613,1.2834805250167847
1772045235732563200,3.480563232421875,-0.47484341263771057,-0.9038226008415222,1.2480640411376953
1772045235742549200,3.49054931640625,-0.4441573917865753,-0.947838306427002,1.1863969564437866
1772045235752535000,3.50053515625,-0.41221973299980164,-1.003757357597351,1.092303991317749
1772045235762521000,3.51052099609375,-0.3607323169708252,-1.0668213367462158,0.967969536781311
1772045235772506400,3.52050634765625,-0.2790594696998596,-1.1073309183120728,0.8115655183792114
1772045235782491400,3.530491455078125,-0.17672617733478546,-1.1080113649368286,0.6350655555725098
1772045235792477700,3.540477783203125,-0.05861017853021622,-1.0919835567474365,0.4427461624145508
1772045235802463500,3.55046337890625,0.06511975079774857,-1.0556937456130981,0.2615947425365448
1772045235812449500,3.560449462890625,0.17050263285636902,-0.9927964210510254,0.09863004088401794
1772045235822435600,3.570435546875,0.2590487599372864,-0.9298243522644043,-0.0216902494430542
1772045235832421600,3.580421630859375,0.3248080611228943,-0.8711840510368347,-0.10595264285802841
1772045235842407400,3.590407470703125,0.3714733123779297,-0.8132014274597168,-0.13238425552845
1772045235852392400,3.600392333984375,0.4089525640010834,-0.7711881399154663,-0.10900305211544037
1772045235862378500,3.61037841796875,0.43736183643341064,-0.7424190640449524,-0.04696284979581833
1772045235872364500,3.620364501953125,0.46098047494888306,-0.7107744216918945,0.03560567647218704
1772045235882350300,3.630350341796875,0.4624185860157013,-0.6774654984474182,0.11748136579990387
1772045235892336600,3.640336669921875,0.4459531307220459,-0.6501070261001587,0.18052545189857483
1772045235902322400,3.650322509765625,0.3998948335647583,-0.6141977906227112,0.21790345013141632
1772045235912308500,3.66030859375,0.36565035581588745,-0.5494682788848877,0.22609472274780273
1772045235922293500,3.67029345703125,0.32338571548461914,-0.4536735415458679,0.2345513254404068
1772045235932279600,3.680279541015625,0.2748580574989319,-0.3426936864852905,0.24209775030612946
1772045235942265600,3.690265625,0.21834498643875122,-0.21619778871536255,0.2606309652328491
1772045235952251400,3.70025146484375,0.16837488114833832,-0.06989603489637375,0.2903570532798767
1772045235962237700,3.71023779296875,0.1161782518029213,0.0879971981048584,0.3091171681880951
1772045235972223500,3.720223388671875,0.07257026433944702,0.22471606731414795,0.31689783930778503
1772045235982209500,3.73020947265625,0.026320740580558777,0.35411959886550903,0.3005356192588806
1772045235992195600,3.740195556640625,-0.012675758451223373,0.4656737148761749,0.27809596061706543
1772045236002180600,3.7501806640625,-0.05444025248289108,0.5593717098236084,0.2532169818878174
1772045236012166400,3.76016650390625,-0.10403768718242645,0.6170709133148193,0.2169000506401062
1772045236022152400,3.77015234375,-0.1691913902759552,0.6409006118774414,0.18326298892498016
1772045236032138500,3.780138427734375,-0.24868127703666687,0.6404139995574951,0.15530037879943848
1772045236042124500,3.79012451171875,-0.3356771469116211,0.6226813197135925,0.1359458565711975
1772045236052110300,3.8001103515625,-0.4215323328971863,0.5944308042526245,0.13262856006622314
1772045236062096600,3.8100966796875,-0.5056485533714294,0.5600646138191223,0.1347026228904724
1772045236072081700,3.82008154296875,-0.5928723812103271,0.5097156763076782,0.12955507636070251
1772045236082067500,3.8300673828125,-0.6839578151702881,0.4556064009666443,0.10657653212547302
1772045236092053500,3.840053466796875,-0.7685511708259583,0.39821210503578186,0.06001203879714012
1772045236102039600,3.85003955078125,-0.8475043177604675,0.3477366864681244,-0.0029919615481048822
1772045236112025600,3.860025634765625,-0.9054902195930481,0.3116806149482727,-0.0787428617477417
1772045236122011400,3.870011474609375,-0.9409382343292236,0.2969392240047455,-0.15539449453353882
1772045236131997700,3.879997802734375,-0.9589582085609436,0.31522077322006226,-0.2183200716972351
1772045236141982500,3.889982421875,-0.9534398913383484,0.36154595017433167,-0.2559390664100647
1772045236151968500,3.899968505859375,-0.9279789924621582,0.41642799973487854,-0.28379252552986145
1772045236161954300,3.909954345703125,-0.8868044018745422,0.4627286493778229,-0.2947509288787842
1772045236171940600,3.919940673828125,-0.8327580690383911,0.5022358894348145,-0.29985344409942627
1772045236181926400,3.929926513671875,-0.7655790448188782,0.5333701372146606,-0.30008700489997864
1772045236191912400,3.939912353515625,-0.6844072341918945,0.5423485040664673,-0.2960868179798126
1772045236201898500,3.9498984375,-0.5996710062026978,0.5392957329750061,-0.2812010645866394
1772045236211883500,3.959883544921875,-0.5173414349555969,0.5243136286735535,-0.26078906655311584
1772045236221869600,3.96986962890625,-0.4238136112689972,0.4973466992378235,-0.23622086644172668
1772045236231855600,3.979855712890625,-0.3186911344528198,0.45629367232322693,-0.21433675289154053
1772045236241841700,3.989841552734375,-0.20972390472888947,0.40176862478256226,-0.19617000222206116
1772045236251827500,3.999827392578125,-0.0870409682393074,0.34485897421836853,-0.1728939265012741
1772045236261813500,4.0098134765625,0.03927675634622574,0.27589428424835205,-0.1394968181848526
1772045236271799600,4.019799560546875,0.15730395913124084,0.21096640825271606,-0.07787170261144638
1772045236281784600,4.02978466796875,0.26735004782676697,0.14643748104572296,0.0007283063605427742
1772045236291770400,4.039770263671875,0.3690017759799957,0.07901392877101898,0.08096921443939209
1772045236301756700,4.049756591796875,0.46440497040748596,0.01661500707268715,0.15729859471321106
1772045236311742500,4.059742431640625,0.556647002696991,-0.04234933853149414,0.2223031222820282
1772045236321728500,4.069728515625,0.6495295763015747,-0.09817345440387726,0.2710813283920288
1772045236331714600,4.079714599609375,0.7584111094474792,-0.1524975746870041,0.30928662419319153
1772045236341700600,4.08970068359375,0.8748818039894104,-0.18053346872329712,0.3343528211116791
1772045236351685600,4.099685546875,0.9943414926528931,-0.18050676584243774,0.3333202004432678
1772045236361671400,4.10967138671875,1.100283145904541,-0.1555050164461136,0.2992466688156128
1772045236371657700,4.11965771484375,1.1934071779251099,-0.10747377574443817,0.24554944038391113
1772045236381643500,4.1296435546875,1.2588037252426147,-0.02972012385725975,0.1840815544128418
1772045236391629600,4.139629638671875,1.2902534008026123,0.058273326605558395,0.09652844816446304
1772045236401615600,4.14961572265625,1.2778747081756592,0.14170482754707336,-0.00596996583044529
1772045236411601700,4.1596015625,1.2338628768920898,0.22484655678272247,-0.1240672916173935
1772045236421586400,4.16958642578125,1.1723055839538574,0.2968067526817322,-0.2405289113521576
1772045236431572500,4.179572509765625,1.1101171970367432,0.3476390242576599,-0.33373594284057617
1772045236441558500,4.18955859375,1.0675500631332397,0.3792472779750824,-0.3882090449333191
1772045236451544600,4.199544677734375,1.0620896816253662,0.3904864192008972,-0.39203140139579773
1772045236461530400,4.2095302734375,1.0694117546081543,0.3731417953968048,-0.36827200651168823
1772045236471516700,4.2195166015625,1.066154956817627,0.32116326689720154,-0.3383652865886688
1772045236481502500,4.22950244140625,1.0518838167190552,0.23667579889297485,-0.31084659695625305
1772045236491487500,4.239487548828125,1.0353367328643799,0.170021653175354,-0.27507099509239197
1772045236501473500,4.2494736328125,1.0084640979766846,0.127938911318779,-0.23134559392929077
1772045236511459600,4.25945947265625,0.9662707448005676,0.09510066360235214,-0.19982334971427917
1772045236521445600,4.269445556640625,0.8885466456413269,0.07053620368242264,-0.1745384931564331
1772045236531431400,4.279431396484375,0.798159122467041,0.06899018585681915,-0.1608240306377411
1772045236541417500,4.28941748046875,0.7065309286117554,0.07973124831914902,-0.14215128123760223
1772045236551403500,4.299403564453125,0.6096784472465515,0.09358040988445282,-0.11695664376020432
1772045236561388500,4.309388427734375,0.5096253156661987,0.11786071211099625,-0.08813991397619247
1772045236571374300,4.319374267578125,0.3973256051540375,0.14008235931396484,-0.05788686126470566
1772045236581360600,4.329360595703125,0.28677883744239807,0.13808472454547882,-0.02992180362343788
1772045236591346400,4.339346435546875,0.16628605127334595,0.1124248281121254,-0.0025974081363528967
1772045236601332500,4.34933251953125,0.05063082277774811,0.06755270063877106,0.02996612712740898
1772045236611318500,4.359318603515625,-0.06785698235034943,0.011148889549076557,0.06927620619535446
1772045236621303600,4.369303466796875,-0.18082213401794434,-0.05319548025727272,0.11396937817335129
1772045236631289600,4.37928955078125,-0.2935704290866852,-0.1398332267999649,0.17015959322452545
1772045236641275400,4.389275390625,-0.3910290598869324,-0.23115035891532898,0.2429424524307251
1772045236651261700,4.39926171875,-0.475769579410553,-0.3232073485851288,0.3176940977573395
1772045236661247500,4.40924755859375,-0.5429073572158813,-0.4249291718006134,0.3963593542575836
1772045236671233500,4.419233642578125,-0.6038906574249268,-0.5208815336227417,0.4695630967617035
1772045236681219600,4.429219482421875,-0.6552419662475586,-0.6086382865905762,0.5466363430023193
1772045236691204600,4.43920458984375,-0.6986382007598877,-0.6879332065582275,0.6223235726356506
1772045236701190400,4.4491904296875,-0.7349437475204468,-0.7512626647949219,0.6869544982910156
1772045236711176700,4.4591767578125,-0.7736523747444153,-0.8088833093643188,0.7385505437850952
1772045236721162500,4.46916259765625,-0.8167351484298706,-0.867455780506134,0.7773985862731934
1772045236731148500,4.4791484375,-0.8586620092391968,-0.9130792617797852,0.8040809035301208
1772045236741134300,4.48913427734375,-0.9033482670783997,-0.9365124702453613,0.8102146983146667
1772045236751119600,4.49911962890625,-0.9430543184280396,-0.9511615037918091,0.7956357002258301
1772045236761105700,4.509105712890625,-0.9799572229385376,-0.950566291809082,0.7635382413864136
1772045236771091700,4.519091796875,-1.004961609840393,-0.9242406487464905,0.7254273295402527
1772045236781077800,4.529077880859375,-1.0304808616638184,-0.8911333084106445,0.6726056933403015
1772045236791063800,4.539063720703125,-1.0595372915267944,-0.8459616303443909,0.61281418800354
1772045236801049600,4.549049560546875,-1.0849400758743286,-0.7839294672012329,0.5441008806228638
1772045236811036000,4.559035888671875,-1.0857410430908203,-0.7242770791053772,0.4718698561191559
1772045236821021000,4.56902099609375,-1.0888994932174683,-0.6422761678695679,0.3811846971511841
1772045236831006700,4.5790068359375,-1.080927848815918,-0.5644746422767639,0.2797345519065857
1772045236840992800,4.58899267578125,-1.07038152217865,-0.48907172679901123,0.17257776856422424
1772045236850978800,4.598978759765625,-1.0507978200912476,-0.4269808232784271,0.06461900472640991
1772045236860964900,4.60896484375,-1.0261784791946411,-0.3765874207019806,-0.032483577728271484
1772045236870950700,4.61895068359375,-0.9960031509399414,-0.33261197805404663,-0.12055501341819763
1772045236880935700,4.628935791015625,-0.9497376680374146,-0.3003816306591034,-0.18775933980941772
1772045236890921700,4.638921630859375,-0.8865311145782471,-0.2815626263618469,-0.23712880909442902
1772045236900907800,4.64890771484375,-0.8101271390914917,-0.27780383825302124,-0.2682534456253052
1772045236910893600,4.6588935546875,-0.7291873097419739,-0.2835107147693634,-0.280792772769928
1772045236920879900,4.6688798828125,-0.6391026973724365,-0.2937338054180145,-0.27939459681510925
1772045236930865700,4.67886572265625,-0.5607092380523682,-0.3145637810230255,-0.2603967487812042
1772045236940851700,4.688851806640625,-0.483407586812973,-0.33855167031288147,-0.2393101006746292
1772045236950836700,4.698836669921875,-0.42083317041397095,-0.3592681288719177,-0.2284385859966278
1772045236960822800,4.70882275390625,-0.37300172448158264,-0.37939736247062683,-0.2372291535139084
1772045236970808800,4.718808837890625,-0.3251383304595947,-0.39040032029151917,-0.2598353922367096
1772045236980794600,4.728794677734375,-0.27699610590934753,-0.3901728689670563,-0.29289719462394714
1772045236990781000,4.738781005859375,-0.21326981484889984,-0.37462133169174194,-0.3157571852207184
1772045237000766700,4.7487666015625,-0.14302414655685425,-0.3498978912830353,-0.3296687602996826
1772045237010751700,4.758751708984375,-0.06424038112163544,-0.29582515358924866,-0.32951027154922485
1772045237020737800,4.76873779296875,0.027484741061925888,-0.21178218722343445,-0.31566181778907776
1772045237030723800,4.778723876953125,0.11436332762241364,-0.1158878281712532,-0.2999931275844574
1772045237040709600,4.788709716796875,0.16964921355247498,-0.018704555928707123,-0.3029540181159973
1772045237050695700,4.79869580078125,0.17289240658283234,0.06098431721329689,-0.3373141288757324
1772045237060681700,4.808681640625,0.17147773504257202,0.1478145569562912,-0.4072237014770508
1772045237070666800,4.818666748046875,0.20036283135414124,0.2520630955696106,-0.48242005705833435
1772045237080652800,4.82865283203125,0.2606523036956787,0.3492277264595032,-0.5648601055145264
1772045237090638800,4.838638916015625,0.342020720243454,0.45043328404426575,-0.6513956189155579
1772045237100625000,4.848625,0.4498145580291748,0.552968442440033,-0.7160526514053345
1772045237110610700,4.858610595703125,0.5755675435066223,0.6453676819801331,-0.7458569407463074
1772045237120597000,4.868596923828125,0.6999512910842896,0.7371047735214233,-0.7316585779190063
1772045237130581800,4.878581787109375,0.8110119104385376,0.8249645233154297,-0.6775517463684082
1772045237140567800,4.88856787109375,0.8960389494895935,0.8978065252304077,-0.603598415851593
1772045237150553600,4.8985537109375,0.9376327991485596,0.9337618947029114,-0.5307446122169495
1772045237160540000,4.908539794921875,0.9276795387268066,0.934760570526123,-0.46203750371932983
1772045237170525700,4.918525634765625,0.8781981468200684,0.905411422252655,-0.39374589920043945
1772045237180511700,4.92851171875,0.8092880845069885,0.850493848323822,-0.3315104842185974
1772045237190496800,4.938496826171875,0.7291245460510254,0.7694676518440247,-0.2653879225254059
1772045237200482800,4.94848291015625,0.6443449258804321,0.67439866065979,-0.19123990833759308
1772045237210468900,4.95846875,0.5539407134056091,0.5659013986587524,-0.10917533934116364
1772045237220454700,4.96845458984375,0.46194133162498474,0.44689032435417175,-0.020671838894486427
1772045237230441000,4.97844091796875,0.37224000692367554,0.3281683921813965,0.06996838003396988
1772045237240426800,4.9884267578125,0.27656567096710205,0.22217723727226257,0.1504877209663391
1772045237250412800,4.998412841796875,0.17265507578849792,0.1307402104139328,0.21883824467658997
1772045237260397600,5.0083974609375,0.06889113038778305,0.0555538535118103,0.2569957375526428
1772045237270383900,5.0183837890625,-0.02524343878030777,0.013000508770346642,0.2603950798511505
1772045237280369700,5.02836962890625,-0.09898077696561813,0.002279422013089061,0.2266930639743805
1772045237290355700,5.038355712890625,-0.146766796708107,0.019132839515805244,0.16221262514591217
1772045237300341800,5.048341796875,-0.15710625052452087,0.0702306479215622,0.07433336973190308
1772045237310326800,5.058326904296875,-0.13979806005954742,0.14148283004760742,-0.026599785313010216
1772045237320312800,5.068312744140625,-0.09616401791572571,0.23040790855884552,-0.12832987308502197
1772045237330298600,5.078298583984375,-0.032010629773139954,0.32662302255630493,-0.2215709388256073
1772045237340285000,5.088284912109375,0.0428050234913826,0.4179694652557373,-0.29362621903419495
1772045237350270700,5.098270751953125,0.13122908771038055,0.48533329367637634,-0.3482036292552948
1772045237360256800,5.1082568359375,0.21846571564674377,0.5302850604057312,-0.38263216614723206
1772045237370242800,5.118242919921875,0.30289730429649353,0.5496640801429749,-0.39760828018188477
1772045237380227800,5.128227783203125,0.3715006113052368,0.5571022629737854,-0.3995153605937958
1772045237390213600,5.138213623046875,0.41306453943252563,0.5336401462554932,-0.3834720253944397
1772045237400199700,5.14819970703125,0.43481963872909546,0.49841952323913574,-0.3455291986465454
1772045237410185700,5.158185791015625,0.4500771462917328,0.45815396308898926,-0.29262685775756836
1772045237420171800,5.168171875,0.4580136239528656,0.4250865578651428,-0.23383942246437073
1772045237430157600,5.178157470703125,0.46941420435905457,0.36972951889038086,-0.18549136817455292
1772045237440142800,5.188142822265625,0.4894028306007385,0.29668620228767395,-0.1469506323337555
1772045237450129000,5.19812890625,0.5190327763557434,0.22835901379585266,-0.11294073611497879
1772045237460114700,5.20811474609375,0.5656599402427673,0.173228919506073,-0.07932418584823608
1772045237470101000,5.21810107421875,0.6277939677238464,0.12912586331367493,-0.04369192197918892
1772045237480086800,5.228086669921875,0.6964574456214905,0.09086049348115921,-0.009794939309358597
1772045237490071800,5.23807177734375,0.7571961879730225,0.05441158637404442,0.022816281765699387
1772045237500057600,5.2480576171875,0.803851306438446,0.007795348763465881,0.051389869302511215
1772045237510044000,5.2580439453125,0.8286274075508118,-0.0401170589029789,0.0702470913529396
1772045237520029700,5.26802978515625,0.8332261443138123,-0.07569556683301926,0.07275792211294174
1772045237530015700,5.278015625,0.8352678418159485,-0.10190334171056747,0.05700952187180519
1772045237540000800,5.288000732421875,0.838671088218689,-0.11485163122415543,0.029060713946819305
1772045237549986800,5.29798681640625,0.8286433815956116,-0.12128224968910217,-0.006807871628552675
1772045237559972900,5.307972900390625,0.8125749230384827,-0.12905120849609375,-0.03312736004590988
1772045237569958700,5.317958740234375,0.8046931624412537,-0.12889696657657623,-0.0510573610663414
1772045237579945000,5.327945068359375,0.7976477742195129,-0.11788587272167206,-0.05177561566233635
1772045237589930800,5.3379306640625,0.7948131561279297,-0.09702494740486145,-0.04027193784713745
1772045237599915800,5.347915771484375,0.8096863627433777,-0.07793328166007996,-0.02828371897339821
1772045237609901600,5.357901611328125,0.8352869749069214,-0.046014703810214996,-0.024449750781059265
1772045237619887900,5.367887939453125,0.8511384129524231,-0.016888776794075966,-0.03855464980006218
1772045237629873700,5.377873779296875,0.8310447335243225,-0.011501697823405266,-0.07453454285860062
1772045237639859700,5.387859619140625,0.7617180943489075,-0.02982664294540882,-0.15336677432060242
1772045237649845800,5.397845703125,0.66832035779953,-0.04908604547381401,-0.26104259490966797
1772045237659830800,5.407830810546875,0.5899829864501953,-0.04631129652261734,-0.3742453157901764
1772045237669816800,5.41781689453125,0.5394818782806396,-0.025215718895196915,-0.4665363132953644
1772045237679802600,5.427802734375,0.5083990693092346,0.018235085532069206,-0.5223564505577087
1772045237689789000,5.437788818359375,0.4738151431083679,0.05470412224531174,-0.5560272336006165
1772045237699774700,5.447774658203125,0.4412841200828552,0.07419686764478683,-0.5722482800483704
1772045237709759700,5.457759765625,0.410931259393692,0.0917486920952797,-0.5820848941802979
1772045237719745800,5.467745849609375,0.37697890400886536,0.1070549488067627,-0.5784898996353149
1772045237729731800,5.47773193359375,0.3361038267612457,0.11028018593788147,-0.573815107345581
1772045237739717600,5.487717529296875,0.27460506558418274,0.11293669044971466,-0.5641248822212219
1772045237749704000,5.497703857421875,0.1862809956073761,0.1103249117732048,-0.5545387864112854
1772045237759689700,5.507689697265625,0.0783180445432663,0.1109480932354927,-0.5359289050102234
1772045237769675000,5.517675048828125,-0.04718092828989029,0.12257308512926102,-0.5196146368980408
1772045237779661000,5.5276611328125,-0.17309704422950745,0.11923854053020477,-0.4945029020309448
1772045237789647000,5.537647216796875,-0.2968793511390686,0.11677009612321854,-0.4596211314201355
1772045237799633200,5.547633056640625,-0.4148919880390167,0.0998704731464386,-0.4113287031650543
1772045237809619000,5.557618896484375,-0.5230439305305481,0.04827895760536194,-0.3531258702278137
1772045237819605000,5.56760498046875,-0.6140276193618774,-0.02980865351855755,-0.2777922451496124
1772045237829590000,5.577590087890625,-0.6892139911651611,-0.12228807806968689,-0.1875760555267334
1772045237839576000,5.587576171875,-0.7435283660888672,-0.25228387117385864,-0.08712828159332275
1772045237849562000,5.59756201171875,-0.7766187191009521,-0.3962194323539734,0.026891041547060013
1772045237859548200,5.607548095703125,-0.7970848083496094,-0.5527294278144836,0.14755061268806458
1772045237869534000,5.617533935546875,-0.8096877932548523,-0.7265727519989014,0.274484246969223
1772045237879520300,5.627520263671875,-0.8211689591407776,-0.8959823250770569,0.4071197807788849
1772045237889505000,5.637505126953125,-0.8375043869018555,-1.035207986831665,0.5311279892921448
1772045237899491000,5.647490966796875,-0.853009045124054,-1.1458956003189087,0.6259950995445251
1772045237909477000,5.65747705078125,-0.8873371481895447,-1.218400001525879,0.6938477754592896
1772045237919463200,5.667463134765625,-0.9263647198677063,-1.2581948041915894,0.7279111742973328
1772045237929449000,5.677448974609375,-0.9838812947273254,-1.2508050203323364,0.7368205189704895
1772045237939435000,5.68743505859375,-1.0519119501113892,-1.2104045152664185,0.7227142453193665
1772045237949421000,5.697421142578125,-1.1243222951889038,-1.126975417137146,0.6979968547821045
1772045237959407000,5.707406982421875,-1.1837354898452759,-1.0125361680984497,0.6832418441772461
1772045237969393000,5.717392822265625,-1.2231947183609009,-0.8876906633377075,0.6808887720108032
1772045237979378000,5.7273779296875,-1.2471208572387695,-0.7594842314720154,0.6684800386428833
1772045237989364200,5.7373642578125,-1.257582426071167,-0.6496374011039734,0.643971860408783
1772045237999350000,5.74735009765625,-1.2602434158325195,-0.5598238706588745,0.5959132313728333
1772045238009336000,5.757336181640625,-1.249274492263794,-0.48853880167007446,0.5421873927116394
1772045238019322000,5.767322021484375,-1.218141794204712,-0.4296134114265442,0.4966484010219574
1772045238029308200,5.77730810546875,-1.168975591659546,-0.38700148463249207,0.46326929330825806
1772045238039293000,5.78729296875,-1.109193205833435,-0.3657670319080353,0.43940871953964233
1772045238049279000,5.797279052734375,-1.0405222177505493,-0.3568498194217682,0.4171924889087677
1772045238059265000,5.80726513671875,-0.9639388918876648,-0.3689805269241333,0.39559316635131836
1772045238069251000,5.8172509765625,-0.8862104415893555,-0.38917216658592224,0.37365856766700745
1772045238079236900,5.82723681640625,-0.7976126670837402,-0.41545969247817993,0.3595699369907379
1772045238089222000,5.837221923828125,-0.6969895362854004,-0.45251062512397766,0.359393835067749
1772045238099208200,5.847208251953125,-0.5833463072776794,-0.48309704661369324,0.37931427359580994
1772045238109194000,5.857194091796875,-0.4645240306854248,-0.5145857930183411,0.4076121747493744
1772045238119180000,5.867179931640625,-0.35104432702064514,-0.546788215637207,0.4536515772342682
1772045238129166000,5.877166015625,-0.24264073371887207,-0.5848227739334106,0.4990116357803345
1772045238139152100,5.887152099609375,-0.14162756502628326,-0.6214106678962708,0.5479775667190552
1772045238149137000,5.897136962890625,-0.03687306493520737,-0.6512866020202637,0.5876598954200745
1772045238159123000,5.907123046875,0.057607632130384445,-0.6848253607749939,0.6079087257385254
1772045238169109000,5.91710888671875,0.13782379031181335,-0.7113356590270996,0.6138700842857361
1772045238179095000,5.927094970703125,0.20369893312454224,-0.7318004369735718,0.6130407452583313
1772045238189080800,5.937080810546875,0.26210588216781616,-0.7520089149475098,0.6090058088302612
1772045238199066000,5.947066162109375,0.3252622187137604,-0.771207869052887,0.6092327237129211
1772045238209052200,5.95705224609375,0.40607595443725586,-0.7825396060943604,0.6232849955558777
1772045238219038000,5.967037841796875,0.4925416111946106,-0.7708951830863953,0.6558210849761963
1772045238229024300,5.977024169921875,0.5793861150741577,-0.7476588487625122,0.7030013799667358
1772045238239010000,5.987010009765625,0.6330378651618958,-0.7215175032615662,0.7446295619010925
1772045238248996000,5.99699609375,0.6345951557159424,-0.6962537169456482,0.7462543249130249
1772045238258980900,6.00698095703125,0.6119470596313477,-0.6598563194274902,0.7115767598152161
1772045238268967200,6.01696728515625,0.5828639268875122,-0.5900848507881165,0.652713418006897
1772045238278953000,6.026952880859375,0.5587316751480103,-0.47950848937034607,0.5824467539787292
1772045238288939000,6.03693896484375,0.5460785627365112,-0.3272821605205536,0.5075767040252686
1772045238298925000,6.046925048828125,0.5422271490097046,-0.15377774834632874,0.4493352174758911
1772045238308910000,6.05691015625,0.5389189720153809,0.05270059406757355,0.40881505608558655
1772045238318896000,6.066896240234375,0.5299286842346191,0.26188284158706665,0.38506844639778137
1772045238328882000,6.0768818359375,0.500108003616333,0.4626710116863251,0.3742004930973053
1772045238338868200,6.0868681640625,0.4351159632205963,0.6251635551452637,0.37437891960144043
1772045238348854000,6.09685400390625,0.34942126274108887,0.7601193189620972,0.3684594929218292
1772045238358840000,6.106840087890625,0.24645839631557465,0.8689888119697571,0.36758944392204285
1772045238368824800,6.116824951171875,0.13135230541229248,0.926301896572113,0.3649452030658722
1772045238378811100,6.12681103515625,0.011236556805670261,0.9351662397384644,0.36290520429611206
1772045238388797000,6.136796875,-0.11059027910232544,0.8957064747810364,0.3629014790058136
1772045238398783000,6.146782958984375,-0.22785121202468872,0.8106423020362854,0.36229920387268066
1772045238408769000,6.15676904296875,-0.33190029859542847,0.6890347003936768,0.36833715438842773
1772045238418754000,6.166754150390625,-0.4031955301761627,0.5370108485221863,0.38566234707832336
1772045238428740000,6.176739990234375,-0.44278591871261597,0.37516385316848755,0.4103613793849945
1772045238438726000,6.186725830078125,-0.4517732858657837,0.20482859015464783,0.43687793612480164
1772045238448712200,6.196712158203125,-0.4570196568965912,0.04368455335497856,0.452507883310318
1772045238458698000,6.206697998046875,-0.467790812253952,-0.10750683397054672,0.45706668496131897
1772045238468684000,6.21668408203125,-0.479546457529068,-0.23670083284378052,0.4361075162887573
1772045238478669000,6.2266689453125,-0.4882164001464844,-0.32527652382850647,0.40936776995658875
1772045238488655000,6.236655029296875,-0.5002350211143494,-0.3746921718120575,0.37300196290016174
1772045238498641000,6.246640869140625,-0.5141521692276001,-0.3890487551689148,0.34022003412246704
1772045238508627200,6.256627197265625,-0.509478747844696,-0.38123199343681335,0.3116445243358612
1772045238518613000,6.266613037109375,-0.4867238998413086,-0.35475483536720276,0.28443342447280884
1772045238528598000,6.276597900390625,-0.44297462701797485,-0.3091862201690674,0.2639085054397583
1772045238538584000,6.286583984375,-0.369817316532135,-0.25906285643577576,0.25281137228012085
1772045238548570000,6.296570068359375,-0.28474631905555725,-0.2021939754486084,0.2495175004005432
1772045238558556200,6.30655615234375,-0.19313064217567444,-0.17182329297065735,0.2573346793651581
1772045238568542000,6.3165419921875,-0.1064656674861908,-0.16914525628089905,0.27088212966918945
1772045238578527000,6.32652685546875,-0.036780595779418945,-0.19194963574409485,0.291873961687088
1772045238588513000,6.336512939453125,0.006197953596711159,-0.24368494749069214,0.3243457078933716
1772045238598499000,6.3464990234375,0.026620138436555862,-0.3138832151889801,0.3620621860027313
1772045238608484900,6.35648486328125,0.048974648118019104,-0.3959297239780426,0.40621328353881836
1772045238618471200,6.36647119140625,0.07475191354751587,-0.4758911430835724,0.46814537048339844
1772045238628457000,6.37645703125,0.11504019051790237,-0.5633053183555603,0.5458164811134338
1772045238638442000,6.38644189453125,0.16130807995796204,-0.6466801166534424,0.6376938819885254
1772045238648428000,6.396427978515625,0.20604577660560608,-0.728378176689148,0.7353981733322144
1772045238658414000,6.4064140625,0.2542279362678528,-0.8061757683753967,0.8323553204536438
1772045238668400000,6.416400146484375,0.2965448200702667,-0.8726131319999695,0.9217725396156311
1772045238678386000,6.426385986328125,0.3259658217430115,-0.9182730317115784,0.9980571866035461
1772045238688371000,6.436370849609375,0.33386269211769104,-0.9485315680503845,1.0715287923812866
1772045238698357000,6.44635693359375,0.31743472814559937,-0.9547812342643738,1.1400777101516724
1772045238708343000,6.456343017578125,0.2769610285758972,-0.9375681281089783,1.2033283710479736
1772045238718328800,6.466328857421875,0.20476430654525757,-0.9007094502449036,1.2721526622772217
1772045238728315100,6.476315185546875,0.11344918608665466,-0.8581845164299011,1.3405712842941284
1772045238738300200,6.486300048828125,0.008821838535368443,-0.8174416422843933,1.4200056791305542
1772045238748286000,6.496285888671875,-0.08393720537424088,-0.7908859252929688,1.5016520023345947
1772045238758272300,6.506272216796875,-0.1734924018383026,-0.7754958271980286,1.5904889106750488
1772045238768257800,6.5162578125,-0.24549591541290283,-0.7895902395248413,1.6678211688995361
1772045238778244000,6.526244140625,-0.29446372389793396,-0.8312202095985413,1.7272751331329346
1772045238788228900,6.536228759765625,-0.3241955041885376,-0.8790832161903381,1.7672619819641113
1772045238798215000,6.54621484375,-0.3503354787826538,-0.9487983584403992,1.7846466302871704
1772045238808201000,6.556200927734375,-0.37064146995544434,-1.032273769378662,1.771917700767517
1772045238818187000,6.56618701171875,-0.3775491714477539,-1.1229798793792725,1.7425265312194824
1772045238828172800,6.5761728515625,-0.37748098373413086,-1.2004839181900024,1.7112795114517212
1772045238838158800,6.586158935546875,-0.3664062023162842,-1.248331069946289,1.6811634302139282
1772045238848144100,6.59614404296875,-0.3542192876338959,-1.2811490297317505,1.651157259941101
1772045238858130000,6.6061298828125,-0.355369508266449,-1.2982574701309204,1.6138883829116821
1772045238868116000,6.616115966796875,-0.3719882071018219,-1.2940162420272827,1.5615108013153076
1772045238878101800,6.626101806640625,-0.39750367403030396,-1.2886600494384766,1.4939842224121094
1772045238888088000,6.636088134765625,-0.4281056523323059,-1.2732949256896973,1.4200931787490845
1772045238898072800,6.64607275390625,-0.46467217803001404,-1.2462372779846191,1.353058934211731
1772045238908059000,6.656058837890625,-0.5072907209396362,-1.2225841283798218,1.3069871664047241
1772045238918045000,6.666044921875,-0.5561301708221436,-1.207768201828003,1.2922353744506836
1772045238928031000,6.676031005859375,-0.6052341461181641,-1.1919538974761963,1.3046367168426514
1772045238938016800,6.686016845703125,-0.6422787308692932,-1.1822082996368408,1.3576005697250366
1772045238948001800,6.696001708984375,-0.664904773235321,-1.17528235912323,1.4490901231765747
1772045238957988000,6.705988037109375,-0.6739632487297058,-1.1718112230300903,1.5791547298431396
1772045238967974000,6.715973876953125,-0.6708625555038452,-1.1805092096328735,1.7392122745513916
1772045238977960000,6.7259599609375,-0.6696271300315857,-1.2029250860214233,1.9126371145248413
1772045238987946000,6.735946044921875,-0.6918983459472656,-1.2489094734191895,2.0845553874969482
1772045238997931000,6.745930908203125,-0.7427881956100464,-1.3223105669021606,2.250755548477173
1772045239007916800,6.755916748046875,-0.8154616951942444,-1.4106351137161255,2.390477418899536
1772045239017902800,6.76590283203125,-0.9128244519233704,-1.5069254636764526,2.501790761947632
1772045239027889000,6.775888916015625,-1.0089046955108643,-1.6136585474014282,2.591127634048462
1772045239037875000,6.785875,-1.0648932456970215,-1.7404180765151978,2.6752002239227295
1772045239047860700,6.79586083984375,-1.0715935230255127,-1.8784304857254028,2.7565157413482666
1772045239057845800,6.805845703125,-1.0388171672821045,-1.9967355728149414,2.8452091217041016
1772045239067832000,6.81583203125,-0.9758825898170471,-2.0925509929656982,2.9392411708831787
1772045239077817900,6.82581787109375,-0.9042065143585205,-2.1723451614379883,2.994377613067627
1772045239087804000,6.835803955078125,-0.8489407300949097,-2.251655340194702,2.9741125106811523
1772045239097790000,6.8457900390625,-0.8084865212440491,-2.3366873264312744,2.8720476627349854
1772045239107775000,6.85577490234375,-0.7753587365150452,-2.398343801498413,2.706688642501831
1772045239117761000,6.865760986328125,-0.7577701807022095,-2.432858467102051,2.499685764312744
1772045239127746800,6.875746826171875,-0.748080849647522,-2.414788007736206,2.274106979370117
1772045239137732900,6.88573291015625,-0.7438336610794067,-2.3362722396850586,2.0444602966308594
1772045239147719000,6.895718994140625,-0.7208264470100403,-2.201286554336548,1.830719232559204
1772045239157704000,6.905703857421875,-0.6688185930252075,-2.015218734741211,1.6411205530166626
1772045239167690000,6.91568994140625,-0.6078504323959351,-1.7899492979049683,1.4540762901306152
1772045239177676000,6.925676025390625,-0.5534529685974121,-1.5564595460891724,1.272294044494629
1772045239187661800,6.935661865234375,-0.5049439668655396,-1.3223825693130493,1.0974986553192139
1772045239197648100,6.945648193359375,-0.45704007148742676,-1.0811446905136108,0.9357786774635315
1772045239207633000,6.9556328125,-0.4073999524116516,-0.8560577034950256,0.8093852400779724
1772045239217619000,6.965618896484375,-0.34266701340675354,-0.6532223224639893,0.7316209077835083
1772045239227605000,6.97560498046875,-0.2763310670852661,-0.48115748167037964,0.7284497022628784
1772045239237591000,6.985591064453125,-0.21402189135551453,-0.3457264304161072,0.7995928525924683
1772045239247576800,6.995576904296875,-0.1431005895137787,-0.25259363651275635,0.9221062064170837
1772045239257561900,7.005561767578125,-0.07158619910478592,-0.20953483879566193,1.0744056701660156
1772045239267548000,7.0155478515625,-0.01198307704180479,-0.21221105754375458,1.219516396522522
1772045239277534000,7.025533935546875,0.03716849163174629,-0.2722077965736389,1.3615965843200684
1772045239287520000,7.03552001953125,0.07540000975131989,-0.39176350831985474,1.5207654237747192
1772045239297505800,7.045505859375,0.10308223962783813,-0.5675595998764038,1.7124927043914795
1772045239307490800,7.05549072265625,0.10799337178468704,-0.7771177291870117,1.9316877126693726
1772045239317476900,7.065476806640625,0.08819357305765152,-0.9849241375923157,2.1575212478637695
1772045239327463000,7.075462890625,0.04988100379705429,-1.2065558433532715,2.3685247898101807
1772045239337449000,7.085448974609375,0.008958334103226662,-1.4313870668411255,2.552475690841675
1772045239347435000,7.09543505859375,-0.0181087926030159,-1.6368060111999512,2.7093722820281982
1772045239357420000,7.105419921875,-0.03014228492975235,-1.8176581859588623,2.810828685760498
1772045239367405800,7.11540576171875,-0.02617313340306282,-1.9819285869598389,2.861956834793091
1772045239377392000,7.12539208984375,-0.015887204557657242,-2.118135452270508,2.86309552192688
1772045239387378000,7.1353779296875,-0.008433103561401367,-2.2120110988616943,2.807562828063965
1772045239397364000,7.145364013671875,-0.016072381287813187,-2.2562754154205322,2.7113540172576904
1772045239407349000,7.155348876953125,-0.04303507134318352,-2.242837905883789,2.577519655227661
1772045239417335000,7.1653349609375,-0.07790037989616394,-2.173645496368408,2.42923903465271
1772045239427320800,7.17532080078125,-0.11659590154886246,-2.0517635345458984,2.2871615886688232
1772045239437307000,7.185306884765625,-0.14923134446144104,-1.884158968925476,2.1560842990875244
1772045239447293000,7.19529296875,-0.17517007887363434,-1.7068089246749878,2.037411689758301
1772045239457279000,7.205279052734375,-0.1955333948135376,-1.5292072296142578,1.925089955329895
1772045239467264000,7.215263916015625,-0.23077598214149475,-1.3588554859161377,1.8260533809661865
1772045239477249800,7.225249755859375,-0.27027520537376404,-1.2046185731887817,1.7442644834518433
1772045239487236000,7.235236083984375,-0.32353347539901733,-1.071623682975769,1.673454999923706
1772045239497222000,7.245221923828125,-0.3850700557231903,-0.9557315707206726,1.6138206720352173
1772045239507207000,7.25520703125,-0.45795345306396484,-0.8718516826629639,1.552307367324829
1772045239517193000,7.26519287109375,-0.5304569602012634,-0.8105838298797607,1.496457576751709
1772045239527179000,7.275178955078125,-0.5971164107322693,-0.7683645486831665,1.452391266822815
1772045239537164800,7.285164794921875,-0.6518886089324951,-0.742184579372406,1.4214046001434326
1772045239547150800,7.29515087890625,-0.6993893980979919,-0.7267698049545288,1.4061970710754395
1772045239557137000,7.305136962890625,-0.7457848787307739,-0.7179203629493713,1.399266004562378
1772045239567122000,7.315121826171875,-0.7806015610694885,-0.7193400859832764,1.390059471130371
1772045239577108000,7.32510791015625,-0.8069157004356384,-0.7202346324920654,1.3700799942016602
1772045239587093800,7.33509375,-0.8279728293418884,-0.7173784375190735,1.3373876810073853
1772045239597080000,7.345080078125,-0.849452793598175,-0.6959799528121948,1.291735291481018
1772045239607065900,7.35506591796875,-0.8644249439239502,-0.6656930446624756,1.2243229150772095
1772045239617051000,7.36505078125,-0.8715038895606995,-0.6257081031799316,1.1421587467193604
1772045239627037000,7.375036865234375,-0.8698551654815674,-0.582396924495697,1.0473636388778687
1772045239637023000,7.38502294921875,-0.8586365580558777,-0.5381325483322144,0.9359966516494751
1772045239647008800,7.3950087890625,-0.8332154154777527,-0.5033329129219055,0.8078265190124512
1772045239656994800,7.404994873046875,-0.7990074157714844,-0.4795764684677124,0.6780093908309937
1772045239666980000,7.41497998046875,-0.7714649438858032,-0.4551509916782379,0.5503867864608765
1772045239676966000,7.4249658203125,-0.7472357749938965,-0.43273597955703735,0.43432942032814026
1772045239686952000,7.434951904296875,-0.7387056350708008,-0.4137493968009949,0.3325533866882324
1772045239696938000,7.44493798828125,-0.7483601570129395,-0.39974862337112427,0.2582850158214569
1772045239706924000,7.454924072265625,-0.7682085037231445,-0.3919237554073334,0.20219364762306213
1772045239716909000,7.464908935546875,-0.7932084202766418,-0.39016473293304443,0.15315526723861694
1772045239726894800,7.474894775390625,-0.8217391967773438,-0.3908972144126892,0.11024148762226105
1772045239736881000,7.484880859375,-0.8469524383544922,-0.3890484571456909,0.06933905929327011
1772045239746867000,7.494866943359375,-0.8575484752655029,-0.37365010380744934,0.02765105850994587
1772045239756853000,7.50485302734375,-0.8595439791679382,-0.36092445254325867,-0.019364653155207634
1772045239766837800,7.514837646484375,-0.8698796629905701,-0.3359840512275696,-0.07426430284976959
1772045239776824000,7.524823974609375,-0.8793368339538574,-0.3086850345134735,-0.13656894862651825
1772045239786809900,7.534809814453125,-0.8842213749885559,-0.2835942804813385,-0.21667872369289398
1772045239796796000,7.5447958984375,-0.8752833008766174,-0.24136905372142792,-0.2967804968357086
1772045239806782000,7.554781982421875,-0.8379849195480347,-0.1702849417924881,-0.36639949679374695
1772045239816767000,7.56476708984375,-0.7661208510398865,-0.07499010860919952,-0.4011782705783844
1772045239826753000,7.5747529296875,-0.6775000691413879,0.04331933706998825,-0.40253743529319763
1772045239836738800,7.58473876953125,-0.5953423976898193,0.1788766235113144,-0.38122281432151794
1772045239846724900,7.594724853515625,-0.5462939143180847,0.29432037472724915,-0.36444830894470215
1772045239856710000,7.6047099609375,-0.5273961424827576,0.3777335286140442,-0.36612769961357117
1772045239866696000,7.614696044921875,-0.5302366018295288,0.43108874559402466,-0.3742735683917999
1772045239876681700,7.624681640625,-0.526705801486969,0.4639313817024231,-0.3688686788082123
1772045239886668000,7.63466796875,-0.49507829546928406,0.4835413992404938,-0.33224156498908997
1772045239896653800,7.64465380859375,-0.44438180327415466,0.49828094244003296,-0.2503637373447418
1772045239906638800,7.654638916015625,-0.3721734583377838,0.4877025783061981,-0.12205906212329865
1772045239916625000,7.664625,-0.28390008211135864,0.44076433777809143,0.03597237914800644
1772045239926611000,7.67461083984375,-0.18393342196941376,0.35365504026412964,0.22065898776054382
1772045239936597000,7.684596923828125,-0.09432737529277802,0.2311062216758728,0.40583789348602295
1772045239946582800,7.694582763671875,-0.041057687252759933,0.07792548835277557,0.5835123062133789
1772045239956568000,7.704568115234375,-0.029436182230710983,-0.10183442384004593,0.7419096827507019
1772045239966553900,7.714553955078125,-0.05725216865539551,-0.29240500926971436,0.873584508895874
1772045239976540000,7.724539794921875,-0.10893028229475021,-0.45761793851852417,0.9810864925384521
1772045239986526000,7.73452587890625,-0.17200197279453278,-0.5945917367935181,1.0473474264144897
1772045239996512000,7.744511962890625,-0.23104797303676605,-0.7136339545249939,1.0774118900299072
1772045240006497000,7.7544970703125,-0.26599210500717163,-0.8001410961151123,1.083835244178772
1772045240016482800,7.76448291015625,-0.2609848082065582,-0.8403798937797546,1.0862525701522827
1772045240026469000,7.77446923828125,-0.22048741579055786,-0.8474439382553101,1.0830007791519165
1772045240036455000,7.784454833984375,-0.1666060835123062,-0.8288339972496033,1.0741337537765503
1772045240046441000,7.79444091796875,-0.10437152534723282,-0.8032580018043518,1.0506374835968018
1772045240056425700,7.80442578125,-0.05568281561136246,-0.766936182975769,1.0090993642807007
1772045240066412000,7.814412109375,-0.026883233338594437,-0.7190446853637695,0.941967785358429
1772045240076397800,7.824397705078125,-0.016887858510017395,-0.6698446273803711,0.8524482846260071
1772045240086383900,7.8343837890625,-0.017032671719789505,-0.6158185005187988,0.7477498054504395
1772045240096370000,7.844369873046875,-0.014351935125887394,-0.5487987399101257,0.6501957774162292
1772045240106355000,7.85435498046875,-0.0028149662539362907,-0.46818116307258606,0.5613600015640259
1772045240116341000,7.864341064453125,0.021503154188394547,-0.37683340907096863,0.49311405420303345
1772045240126326800,7.874326904296875,0.05814947187900543,-0.2820233106613159,0.44142162799835205
1772045240136313000,7.88431298828125,0.09920716285705566,-0.19456137716770172,0.39788320660591125
1772045240146299000,7.894298828125,0.14464059472084045,-0.12757927179336548,0.3640570342540741
1772045240156284000,7.904283935546875,0.1927974671125412,-0.07909829169511795,0.344448983669281
1772045240166269700,7.914269775390625,0.2295948565006256,-0.05899081751704216,0.338731050491333
1772045240176256000,7.924256103515625,0.26462259888648987,-0.05411190539598465,0.35419178009033203
1772045240186241800,7.93424169921875,0.28258293867111206,-0.05963743105530739,0.38553372025489807
1772045240196227800,7.944227783203125,0.3010397255420685,-0.0746677815914154,0.42673414945602417
1772045240206213000,7.954213134765625,0.3241732716560364,-0.09577032178640366,0.4735240340232849
1772045240216199000,7.964198974609375,0.3395865857601166,-0.11535920202732086,0.5167233943939209
1772045240226185000,7.97418505859375,0.36215341091156006,-0.15158022940158844,0.5572245121002197
1772045240236171000,7.9841708984375,0.39214271306991577,-0.18757204711437225,0.5926315188407898
1772045240246156000,7.994156005859375,0.4220150113105774,-0.2260352522134781,0.6219746470451355
1772045240256141800,8.004141845703124,0.4518109858036041,-0.264918714761734,0.6532340049743652
1772045240266128000,8.0141279296875,0.4827767610549927,-0.3132838010787964,0.6835313439369202
1772045240276114000,8.024114013671875,0.49702706933021545,-0.35841214656829834,0.710452139377594
1772045240286100000,8.034099853515626,0.5055953860282898,-0.39558079838752747,0.7401996850967407
1772045240296085000,8.0440849609375,0.5192235708236694,-0.43273162841796875,0.7681589126586914
1772045240306070800,8.05407080078125,0.5245667695999146,-0.4638647437095642,0.7855982780456543
1772045240316057000,8.06405712890625,0.5193280577659607,-0.4818088412284851,0.7873940467834473
1772045240326043000,8.07404296875,0.5076382160186768,-0.49074816703796387,0.7788361310958862
1772045240336029000,8.08402880859375,0.479001522064209,-0.4972931444644928,0.7460171580314636
1772045240346013700,8.094013671875,0.43549320101737976,-0.4868620038032532,0.6995216608047485
1772045240356000000,8.104,0.39701876044273376,-0.46714848279953003,0.6311846971511841
1772045240365985800,8.11398583984375,0.36400672793388367,-0.43407341837882996,0.55031418800354
1772045240375971800,8.123971923828124,0.33897116780281067,-0.388155460357666,0.46237125992774963
1772045240385958000,8.1339580078125,0.32539787888526917,-0.33201467990875244,0.376032292842865
1772045240395943000,8.14394287109375,0.3172438144683838,-0.27290821075439453,0.30024245381355286
1772045240405929000,8.153928955078126,0.3137015402317047,-0.21548815071582794,0.22571256756782532
1772045240415915000,8.1639150390625,0.32006701827049255,-0.1675424724817276,0.17384164035320282
1772045240425901000,8.173901123046875,0.31487181782722473,-0.13453532755374908,0.13015934824943542
1772045240435885800,8.1838857421875,0.31245365738868713,-0.11161056905984879,0.1004568487405777
1772045240445871900,8.193871826171875,0.3142026662826538,-0.10101834684610367,0.08390382677316666
1772045240455858000,8.20385791015625,0.317624568939209,-0.09361795336008072,0.08846582472324371
1772045240465844000,8.213843994140625,0.32564014196395874,-0.08285433799028397,0.10247752070426941
1772045240475829800,8.223829833984375,0.32139745354652405,-0.06502660363912582,0.12433221936225891
1772045240485814800,8.233814697265625,0.3058749735355377,-0.03589215502142906,0.14714965224266052
1772045240495801000,8.243801025390624,0.2785232365131378,-0.00588525366038084,0.1679936796426773
1772045240505787000,8.253786865234375,0.22240091860294342,0.009027937427163124,0.17009146511554718
1772045240515773000,8.26377294921875,0.14061523973941803,0.0016816072165966034,0.15787288546562195
1772045240525759000,8.273759033203126,0.08438818156719208,-0.01643569953739643,0.14439374208450317
1772045240535744000,8.283743896484374,0.0735272765159607,-0.04000414162874222,0.15563228726387024
1772045240545729800,8.293729736328125,0.09304976463317871,-0.0745297521352768,0.20171009004116058
1772045240555715800,8.3037158203125,0.11941398680210114,-0.11397808790206909,0.26932376623153687
1772045240565702000,8.313701904296876,0.13406816124916077,-0.1600300520658493,0.34549039602279663
1772045240575688000,8.32368798828125,0.13809433579444885,-0.20632058382034302,0.43834230303764343
1772045240585673000,8.3336728515625,0.12869824469089508,-0.24935553967952728,0.5396496057510376
1772045240595658800,8.34365869140625,0.09647612273693085,-0.29103320837020874,0.6240898966789246
1772045240605645000,8.35364501953125,0.042644668370485306,-0.3336937427520752,0.6887721419334412
1772045240615630800,8.363630859375,-0.03874339908361435,-0.37540870904922485,0.7240521311759949
1772045240625616000,8.373615966796875,-0.1432848572731018,-0.3992360532283783,0.7401379942893982
1772045240635602000,8.383601806640625,-0.25918322801589966,-0.40815046429634094,0.7379401326179504
1772045240645588000,8.393587890625,-0.3891872763633728,-0.4060678482055664,0.710923969745636
1772045240655573800,8.40357373046875,-0.5276069045066833,-0.40117135643959045,0.663938581943512
1772045240665560000,8.41356005859375,-0.6608215570449829,-0.4113611578941345,0.6036545634269714
1772045240675545000,8.423545166015625,-0.7746575474739075,-0.43214714527130127,0.5454514026641846
1772045240685531000,8.43353076171875,-0.8509508371353149,-0.4612758755683899,0.5032785534858704
1772045240695517000,8.443516845703124,-0.8914628624916077,-0.4820333421230316,0.4747382402420044
1772045240705503000,8.4535029296875,-0.9074229598045349,-0.5164731740951538,0.4641610383987427
1772045240715489000,8.463489013671875,-0.9118914604187012,-0.5459690093994141,0.4567188322544098
1772045240725473800,8.473473876953125,-0.9047706723213196,-0.5937851667404175,0.462204247713089
1772045240735459800,8.4834599609375,-0.9008968472480774,-0.6449122428894043,0.4764881134033203
1772045240745446000,8.49344580078125,-0.9067646265029907,-0.7062332630157471,0.502570390701294
1772045240755432000,8.503431884765625,-0.921990692615509,-0.7570554614067078,0.5447556376457214
1772045240765417000,8.5134169921875,-0.9401151537895203,-0.8058172464370728,0.6071056127548218
1772045240775403000,8.523403076171874,-0.9498053193092346,-0.8502664566040039,0.6834149956703186
1772045240785389000,8.53338916015625,-0.9634259939193726,-0.8638637661933899,0.7525417804718018
1772045240795375000,8.543375,-0.9836939573287964,-0.8757121562957764,0.7946029305458069
1772045240805361200,8.553361083984376,-1.0283862352371216,-0.8905218839645386,0.8038172125816345
1772045240815346000,8.563345947265624,-1.1110901832580566,-0.8833313584327698,0.7802178859710693
1772045240825332000,8.57333203125,-1.2301983833312988,-0.850339949131012,0.7106727361679077
1772045240835318000,8.583318115234375,-1.3670611381530762,-0.7759043574333191,0.5933511257171631
1772045240845304000,8.593303955078126,-1.505659580230713,-0.6702952980995178,0.4236145615577698
1772045240855289900,8.603289794921874,-1.6397802829742432,-0.5113964676856995,0.2311772108078003
1772045240865275000,8.61327490234375,-1.7617483139038086,-0.29330381751060486,0.0445534810423851
1772045240875261200,8.62326123046875,-1.8564167022705078,-0.013261248357594013,-0.11717842519283295
1772045240885247000,8.6332470703125,-1.9025529623031616,0.31096529960632324,-0.25682732462882996
1772045240895233000,8.64323291015625,-1.9107393026351929,0.6417442560195923,-0.38853901624679565
1772045240905218000,8.653218017578125,-1.899782419204712,0.9500536918640137,-0.5213721394538879
1772045240915204000,8.6632041015625,-1.889408826828003,1.2496401071548462,-0.671696662902832
1772045240925190000,8.67318994140625,-1.902751088142395,1.5466185808181763,-0.8412402868270874
1772045240935176200,8.68317626953125,-1.940041184425354,1.813165307044983,-1.0128861665725708
1772045240945162000,8.693161865234375,-1.9881287813186646,2.055684804916382,-1.1603795289993286
1772045240955147000,8.70314697265625,-2.007721185684204,2.2866132259368896,-1.2786471843719482
1772045240965133000,8.713133056640626,-1.996484398841858,2.5121500492095947,-1.372976303100586
1772045240975119000,8.723119140625,-1.9889777898788452,2.723578929901123,-1.4431418180465698
1772045240985105200,8.733105224609375,-2.0061192512512207,2.9080893993377686,-1.4821547269821167
1772045240995091000,8.743091064453125,-2.0506913661956787,3.077763080596924,-1.4745159149169922
1772045241005076000,8.753075927734375,-2.1013801097869873,3.2460556030273438,-1.4214342832565308
1772045241015062000,8.76306201171875,-2.132012128829956,3.364485025405884,-1.3650383949279785
1772045241025048000,8.773048095703125,-2.1837730407714844,3.4422924518585205,-1.3415703773498535
1772045241035033900,8.783033935546875,-2.288010597229004,3.4737672805786133,-1.4043961763381958
1772045241045019000,8.793018798828125,-2.4054970741271973,3.496044635772705,-1.5466185808181763
1772045241055005200,8.803005126953124,-2.474350929260254,3.5655412673950195,-1.6751803159713745
1772045241064991000,8.812990966796875,-2.4183058738708496,3.6975748538970947,-1.6565145254135132
1772045241074977000,8.82297705078125,-2.315173625946045,3.901965379714966,-1.5925523042678833
1772045241084963000,8.832963134765626,-2.1798765659332275,4.197840213775635,-1.4976608753204346
1772045241094948000,8.842947998046874,-2.025665760040283,4.5224223136901855,-1.3526616096496582
1772045241104934000,8.852933837890625,-1.865533709526062,4.811809062957764,-1.1582589149475098
1772045241114920000,8.862919921875,-1.7522209882736206,5.138580322265625,-0.9625245332717896
1772045241124906000,8.872906005859376,-1.692762017250061,5.331246376037598,-0.8219903707504272
1772045241134892000,8.88289208984375,-1.6870417594909668,5.320137977600098,-0.7706893682479858
1772045241144877000,8.892876953125,-1.7406848669052124,5.208482265472412,-0.7884054183959961
1772045241154863000,8.902863037109375,-1.803457260131836,5.095376968383789,-0.808668315410614
1772045241164849200,8.91284912109375,-1.8090912103652954,5.0180158615112305,-0.8032493591308594
1772045241174835000,8.9228349609375,-1.7551555633544922,4.987680435180664,-0.7894030809402466
1772045241184820000,8.932820068359375,-1.6472132205963135,4.905888080596924,-0.8121721148490906
1772045241194806000,8.942805908203125,-1.4848823547363281,4.70714807510376,-0.8942601084709167
1772045241204792000,8.9527919921875,-1.3019349575042725,4.4152069091796875,-1.0002732276916504
1772045241214777900,8.96277783203125,-1.1152832508087158,4.118022441864014,-1.054916262626648
1772045241224764200,8.97276416015625,-0.9639456868171692,3.8961122035980225,-1.029835820198059
1772045241234749200,8.982749267578125,-0.8923109173774719,3.7946524620056152,-0.9555698037147522
1772045241244735000,8.99273486328125,-0.8848294019699097,3.753073215484619,-0.8504956364631653
1772045241254721000,9.002720947265624,-0.9241999983787537,3.63509202003479,-0.7265997529029846
1772045241264707000,9.01270703125,-0.9582405686378479,3.463193655014038,-0.5639525055885315
1772045241274692000,9.022692138671875,-0.9793676733970642,3.305074691772461,-0.3435319662094116
1772045241284678000,9.032677978515625,-0.9617632627487183,3.19472074508667,-0.09896235913038254
1772045241294664000,9.042663818359374,-0.9221615195274353,3.1101977825164795,0.11538269370794296
1772045241304650000,9.05264990234375,-0.8537294268608093,2.9621362686157227,0.27722376585006714
1772045241314636000,9.062635986328125,-0.7885251641273499,2.737107515335083,0.39830997586250305
1772045241324621000,9.07262109375,-0.7169148921966553,2.542044162750244,0.4886762797832489
1772045241334607000,9.082607177734374,-0.63362717628479,2.384432554244995,0.5438372492790222
1772045241344593200,9.09259326171875,-0.5350239276885986,2.27003812789917,0.5629849433898926
1772045241354579000,9.102578857421875,-0.44291529059410095,2.230698823928833,0.5645530223846436
1772045241364564000,9.11256396484375,-0.3706321716308594,2.2697153091430664,0.5875294804573059
1772045241374550000,9.122550048828124,-0.3283230662345886,2.3837602138519287,0.6427093744277954
1772045241384536000,9.1325361328125,-0.3007158041000366,2.5093188285827637,0.6825520992279053
1772045241394521900,9.14252197265625,-0.28027310967445374,2.598944902420044,0.6677872538566589
1772045241404508200,9.152508056640626,-0.2859632968902588,2.6332151889801025,0.6044871211051941
1772045241414493200,9.1624931640625,-0.33255794644355774,2.563591718673706,0.5473753809928894
1772045241424479000,9.17247900390625,-0.43740805983543396,2.4055564403533936,0.5134029984474182
1772045241434465000,9.182465087890625,-0.5942956805229187,2.210798740386963,0.5300980806350708
1772045241444451000,9.192451171875,-0.792579710483551,1.9647678136825562,0.5866946578025818
1772045241454437000,9.20243701171875,-0.9967193007469177,1.607263207435608,0.6262454986572266
1772045241464422000,9.212421875,-1.1635422706604004,1.2396504878997803,0.6359723806381226
1772045241474408000,9.222407958984375,-1.2574716806411743,0.920909583568573,0.6232944130897522
1772045241484394000,9.23239404296875,-1.225742220878601,0.6813933253288269,0.5867047309875488
1772045241494380000,9.242380126953124,-1.0454422235488892,0.6446638107299805,0.5583229064941406
1772045241504365000,9.252364990234375,-0.750288188457489,0.7607463002204895,0.5727978944778442
1772045241514351000,9.26235107421875,-0.380092591047287,0.8955855965614319,0.6047806143760681
1772045241524336000,9.272336181640625,0.01273298729211092,0.9269110560417175,0.6066094040870667
1772045241534322000,9.282322021484376,0.37493595480918884,0.8552536368370056,0.5971799492835999
1772045241544308000,9.292307861328124,0.619299054145813,0.7727428674697876,0.60727459192276
1772045241554294000,9.3022939453125,0.7046787142753601,0.7109338045120239,0.6411417722702026
1772045241564280000,9.312280029296875,0.7290579676628113,0.5845303535461426,0.6725423336029053
1772045241574265000,9.32226513671875,0.6673141717910767,0.3876948058605194,0.6633445620536804
1772045241584251000,9.3322509765625,0.5362606644630432,0.19516871869564056,0.5608373284339905
1772045241594237200,9.3422373046875,0.42715200781822205,0.08182591199874878,0.3934962749481201
1772045241604223000,9.352222900390625,0.4098411202430725,0.0690462663769722,0.20124156773090363
1772045241614208000,9.3622080078125,0.4904611110687256,0.222163125872612,0.029815755784511566
1772045241624193800,9.37219384765625,0.6056007742881775,0.3533082902431488,-0.06738366186618805
1772045241634180000,9.38218017578125,0.6747097969055176,0.4571838080883026,-0.07292543351650238
1772045241644166000,9.392165771484375,0.6803170442581177,0.5957227349281311,-0.013411259278655052
1772045241654152000,9.40215185546875,0.6669527888298035,0.7455628514289856,0.0954691469669342
1772045241664137200,9.41213720703125,0.6548197865486145,0.875457227230072,0.24421632289886475
1772045241674123000,9.422123046875,0.6412427425384521,0.9226148724555969,0.4077341556549072
1772045241684109000,9.432109130859375,0.6109652519226074,0.8547046780586243,0.5397941470146179
1772045241694095000,9.44209521484375,0.5987038016319275,0.6824937462806702,0.6397899985313416
1772045241704081200,9.4520810546875,0.6353428959846497,0.46505820751190186,0.7220030426979065
1772045241714066000,9.46206591796875,0.6930016279220581,0.2572445571422577,0.8020898699760437
1772045241724052000,9.472052001953125,0.7345085144042969,0.1427699625492096,0.8699882626533508
1772045241734038000,9.4820380859375,0.7387974858283997,0.15078075230121613,0.9285746216773987
1772045241744024000,9.492024169921875,0.7441250085830688,0.2683834731578827,0.9615999460220337
1772045241754009000,9.502009033203125,0.7624390721321106,0.38479024171829224,0.949916660785675
1772045241763995000,9.511994873046875,0.7362026572227478,0.3953836262226105,0.8826201558113098
1772045241773981200,9.521981201171876,0.6824933886528015,0.3218255043029785,0.8037967681884766
1772045241783967200,9.53196728515625,0.6058518290519714,0.20258904993534088,0.7299243211746216
1772045241793953300,9.541953369140625,0.49680179357528687,-0.01876651681959629,0.6480406522750854
1772045241803938000,9.55193798828125,0.4086892902851105,-0.20600536465644836,0.5646889209747314
1772045241813924000,9.561924072265626,0.37071046233177185,-0.24165897071361542,0.4740477204322815
1772045241823910100,9.57191015625,0.38769763708114624,-0.15930171310901642,0.3838813006877899
1772045241833896200,9.581896240234375,0.4224119484424591,-0.047312866896390915,0.2908054292201996
1772045241843882000,9.591882080078125,0.4851539134979248,0.018770825117826462,0.20369042456150055
1772045241853868300,9.601868408203124,0.565463662147522,0.05288325250148773,0.15711866319179535
1772045241863853300,9.611853271484375,0.6287603974342346,0.06513123959302902,0.15648865699768066
1772045241873839000,9.621839111328125,0.6781332492828369,0.08887732028961182,0.19618360698223114
1772045241883825200,9.6318251953125,0.7226168513298035,0.14732545614242554,0.2654518187046051
1772045241893811200,9.641811279296874,0.7323266863822937,0.2034587562084198,0.32722169160842896
1772045241903797200,9.65179736328125,0.7409710884094238,0.2495245337486267,0.36331915855407715
1772045241913782000,9.661781982421875,0.7490460872650146,0.2785532474517822,0.36903777718544006
1772045241923768000,9.67176806640625,0.7543007731437683,0.27233174443244934,0.3462449610233307
1772045241933754000,9.681754150390624,0.7541162371635437,0.1803230196237564,0.29316097497940063
1772045241943740200,9.691740234375,0.7278526425361633,0.0572148934006691,0.27972906827926636
1772045241953726000,9.701725830078125,0.6940094232559204,-0.23772487044334412,0.22825738787651062
1772045241963711200,9.711711181640625,0.7200035452842712,-0.36195695400238037,0.17532379925251007
1772045241973697300,9.721697265625,0.7104137539863586,-0.35134586691856384,0.12523134052753448
1772045241983683000,9.73168310546875,0.6684916019439697,-0.3169374465942383,0.06770774722099304
1772045241993669000,9.741669189453125,0.6043387055397034,-0.28813645243644714,-0.005289227701723576
1772045242003654100,9.751654052734375,0.539178729057312,-0.19209465384483337,-0.055659063160419464
1772045242013640200,9.76164013671875,0.4711322784423828,-0.028941689059138298,-0.0812256783246994
1772045242023626000,9.7716259765625,0.3781002163887024,0.06363454461097717,-0.09646778553724289
1772045242033612300,9.7816123046875,0.3296474814414978,0.1437048763036728,-0.0867411270737648
