time,seconds_elapsed,z,y,x
1772045969323666700,0.075666748046875,-1.0575719478785992,0.17900960952080786,-0.1122953954376746
1772045969333652700,0.08565283203125,-1.588468630361557,0.5662209477119148,-0.4093016259787604
1772045969343638000,0.095637939453125,-1.8044126437216996,0.9766727301064878,-0.6765789727456867
1772045969353623800,0.105623779296875,-1.399198104393482,1.2160494223065674,-0.6301529563311488
1772045969363608800,0.11560888671875,-1.010644777008891,1.0707755667142569,-0.4993475884111598
1772045969373595000,0.125594970703125,-0.7134820315986872,0.9586199176739901,-0.6337219739243388
1772045969383581000,0.135580810546875,-0.41039632588028907,0.4610037926979363,-0.6696041652970015
1772045969393566000,0.14556591796875,-0.13945698600709439,0.014175057683698832,-0.5454172656686976
1772045969403551700,0.1555517578125,0.08638122937977313,0.025945465378463265,-0.5359241552561521
1772045969413536800,0.165536865234375,0.18289806832671165,0.16347773040067404,-0.1625334900868125
1772045969423523000,0.175523193359375,0.2965910830020904,0.5502082262722775,0.242792656389717
1772045969433508900,0.1855087890625,0.05732230815589428,0.8810563471306115,0.3946204819364473
1772045969443494000,0.195493896484375,-0.5909025306344032,0.9241507349044084,0.34123839930631217
1772045969453479700,0.205479736328125,-1.3672259260714053,1.007755704503879,0.23177407170925288
1772045969463464700,0.215464599609375,-1.866790481701493,1.4046483326233923,0.1420102506864816
1772045969473451000,0.225450927734375,-1.900579354056716,1.8557029782369732,0.14295547738103195
1772045969483436800,0.235436767578125,-1.3134499122202397,2.0586422563344238,-0.11277246576435863
1772045969493421800,0.245421875,0.13813830462396143,1.268642948374897,-0.18389071435956283
1772045969503407900,0.255407958984375,1.0833119538128375,0.7376097800306975,0.8353612022738903
1772045969513393000,0.265392822265625,1.1351917786538601,0.24617840810418126,0.8112623146101832
1772045969523379200,0.275379150390625,1.4174112219542263,-0.43749139968529344,-0.03193239430096
1772045969533365000,0.285364990234375,1.170295240738988,-0.8128126127921045,-0.11873753904807381
1772045969543350000,0.29535009765625,0.5621645119279622,-1.0555195453934372,0.6726258512057364
1772045969553335800,0.305335693359375,-0.2928717702180147,-1.2187306242145597,1.396990072955191
1772045969563320800,0.31532080078125,-1.3754390431433916,-0.6543715248517692,1.3795071693651377
1772045969573307100,0.32530712890625,-2.15704710098505,0.3243393600188196,0.7922408763412385
1772045969583293000,0.33529296875,-2.6672172217816112,0.8988103958122432,0.2852540252232924
1772045969593278000,0.34527783203125,-2.9341391427069903,1.0064277438357472,0.15839308408014474
1772045969603263700,0.355263671875,-3.1993086670070885,0.8800233508210629,0.3976121015004813
1772045969613249000,0.3652490234375,-3.69010071811676,0.6157392310533673,0.5634554285213351
1772045969623235000,0.375235107421875,-3.684054423689842,0.13965798847191035,0.7202119243755937
1772045969633220900,0.385220947265625,-3.235065624564886,0.1242616088323295,0.9851347804382443
1772045969643206000,0.395205810546875,-2.3833722231060266,0.2519356564566493,1.251019759531319
1772045969653192000,0.40519189453125,-1.016792193722725,0.2325173278246075,1.5347417163491248
1772045969663178000,0.415177978515625,-0.0295756385743618,0.04301167792640626,1.5133426622286439
1772045969673163000,0.4251630859375,-0.057821489849686616,0.1124658109679818,1.1560597946375608
1772045969683148800,0.435148681640625,-0.49856502319872376,0.0901763108137995,0.4354783062972128
1772045969693134000,0.445134033203125,-0.49986441535949705,0.09838277894929051,0.21787852508667854
1772045969703120000,0.455119873046875,-0.25470190629959105,0.5033827256787567,0.28907347391359506
1772045969713106000,0.46510595703125,-0.26455752988159653,0.5376986175827682,0.9459132885750383
1772045969723091000,0.475091064453125,-0.2363257071316242,0.6474908984925598,1.236348990752548
1772045969733077000,0.485076904296875,-0.253946704018116,0.795646081674844,0.7155407176941633
1772045969743062000,0.49506201171875,-0.3781786483645439,0.8624480197072029,-0.051803727397508915
1772045969753048000,0.505048095703125,-0.2578863815546036,0.7227886429958045,-0.6503076364137232
1772045969763033900,0.515033935546875,0.055770987060666084,0.49337892579771575,-0.8011755856860429
1772045969773019100,0.52501904296875,0.3258154239207506,0.2248524922851473,-0.28559847301309926
1772045969783005000,0.5350048828125,0.5876759698033333,0.03819470609873533,0.4912270815260708
1772045969792991000,0.544990966796875,0.6730220109164714,-0.14321597321443258,1.1013519798289984
1772045969802976000,0.55497607421875,0.8934948998779058,-0.15703363229520617,1.0661515601754188
1772045969812962000,0.564962158203125,1.250555356889963,-0.058293637406080956,0.2850144808463752
1772045969822947000,0.574947021484375,1.4406822074264287,-0.2764170406319201,-0.2261399382798001
1772045969832932900,0.584932861328125,1.3368424782454966,-0.6277215644657611,-0.3525441486313939
1772045969842919000,0.5949189453125,1.1430781479895114,-0.8995283348232507,-0.41899570232350375
1772045969852904200,0.604904296875,0.775831228005886,-0.9919223947517574,-0.7025904890976846
1772045969862890000,0.614889892578125,0.3363070073187351,-1.1949771889876573,-0.8391303455490619
1772045969872875000,0.624875,0.32396190500855443,-1.3360031048119068,-1.0490890739545224
1772045969882860800,0.63486083984375,0.5355646742939949,-1.2209889245353638,-0.9460779045522213
1772045969892847000,0.64484716796875,0.6845534587562084,-0.9830418998122215,-0.643111002907902
1772045969902832000,0.65483203125,0.7980424752920866,-0.697444066119939,-0.41215347174592315
1772045969912818000,0.66481787109375,0.9854495454758405,-0.7833734600789845,-0.25443671602476386
1772045969922804000,0.674803955078125,1.1099503698915243,-0.7391155084185301,0.0006157572781667113
1772045969932789000,0.6847890625,1.0195336013853549,-0.539277192011103,0.3308245207870379
1772045969942775000,0.694775146484375,0.7090484330654144,-0.48512397887799885,0.4699077050456777
1772045969952760000,0.704760009765625,0.16331366241276263,-0.5153219140691683,0.4639001717265695
1772045969962745900,0.714745849609375,-0.49041854162216186,-0.3167687421014532,0.30713808638174084
1772045969972732200,0.724732177734375,-0.8503244511932134,0.10669362077470868,0.22193499740324912
1772045969982717000,0.734717041015625,-1.0272855306863784,0.40682774667851623,0.2343239023225382
1772045969992703000,0.744702880859375,-0.8688806831032038,0.5311749879676848,0.15326083575822413
1772045970002688800,0.754688720703125,-0.5167892466753721,0.7575390538595617,0.07461367122922093
1772045970012673800,0.764673828125,-0.2595160285830498,1.0382298262879253,0.16643921055477112
1772045970022660000,0.77466015625,0.21300620634257791,1.1705026729445904,0.27162147691845895
1772045970032644900,0.784644775390625,0.8420604807168245,0.9573153378814458,-0.00009874766673892736
1772045970042631000,0.794630859375,1.4201970532804726,0.7607087699368595,-0.3599824819386005
1772045970052617000,0.804616943359375,1.7902327271997927,0.8045503958813846,-0.39649376499503847
1772045970062602000,0.81460205078125,1.8483260197281837,0.8561806298755109,-0.20526198542397467
1772045970072588000,0.824588134765625,1.5188263543367384,0.8144879986584186,-0.13669420676287264
1772045970082573000,0.834572998046875,0.872410610795021,0.7853060355767607,-0.2814796943163499
1772045970092558800,0.844558837890625,0.20217910737991332,0.7787272417083382,-0.43010983806662256
1772045970102545000,0.854544921875,-0.32964462682008744,0.7568414269842207,-0.4379177718712017
1772045970112530000,0.864530029296875,-0.6391185722708702,0.7406976630434393,-0.2795936248414218
1772045970122516000,0.874515869140625,-0.7208990298569202,0.6096151586825028,-0.028571101174317298
1772045970132502000,0.884501953125,-0.6677145521581173,0.5026006353903562,0.24602153704203664
1772045970142487000,0.894487060546875,-0.5478256054520607,0.46118930533267555,0.44910036974065004
1772045970152473000,0.90447314453125,-0.4179612081766128,0.4353295454762876,0.6043102572074159
1772045970162459000,0.914458984375,-0.3696849607855081,0.43583775072675196,0.6979463896188884
1772045970172444000,0.92444384765625,-0.36261750661730763,0.443801971071586,0.7195190467406064
1772045970182430000,0.934429931640625,-0.3292103270560503,0.4343875884510576,0.6911470848675817
1772045970192415000,0.9444150390625,-0.24556115298867223,0.35176074316874145,0.6372530706599354
1772045970202401000,0.954401123046875,-0.11245908896625041,0.2683461267759092,0.6094870387908071
1772045970212387000,0.964386962890625,0.0024988310784101486,0.20910523511497303,0.5581174650268629
1772045970222372000,0.9743720703125,0.0635609102845192,0.10455701060481369,0.4440781211318448
1772045970232358000,0.98435791015625,0.06746200937628746,-0.02301747193543706,0.31823190998919304
1772045970242344000,0.994343994140625,0.03674830668270588,-0.11114912061253562,0.2857145919397473
1772045970252329000,1.004328857421875,-0.08569324711561202,-0.166616612948291,0.3672475410381332
1772045970262315000,1.01431494140625,-0.22248598234951494,-0.22086448209490625,0.4723017605753615
1772045970272300000,1.024300048828125,-0.3153863843649626,-0.30610611298549917,0.4404817771403119
1772045970282285800,1.034285888671875,-0.39635844817757604,-0.3697507194980979,0.296970072382316
1772045970292272000,1.044272216796875,-0.5181441684156656,-0.3688558164849877,0.1738562453456223
1772045970302257200,1.054257080078125,-0.5689361980199813,-0.3346569020241499,0.06594177753906696
1772045970312243000,1.064242919921875,-0.5086678995400666,-0.35689131099022925,-0.011183876511082052
1772045970322229000,1.07422900390625,-0.5886100357830524,-0.38301863574162126,-0.031438034912757575
1772045970332213800,1.0842138671875,-0.6961439433068036,-0.33529534605816,-0.10258194767218083
1772045970342200000,1.094199951171875,-0.6300485461086034,-0.2553107223803177,-0.24061105630062518
1772045970352185000,1.10418505859375,-0.5350064558893441,-0.1912445659874007,-0.3244383268812671
1772045970362171000,1.1141708984375,-0.4758820667475462,-0.111322540950682,-0.3718591630194336
1772045970372157000,1.124156982421875,-0.3799117557674646,0.016286496879719198,-0.39451227232161906
1772045970382142000,1.134141845703125,-0.3383592636734247,0.139587517051585,-0.3252938111994415
1772045970392128000,1.1441279296875,-0.2801286085009575,0.2593870501748286,-0.19698785887975245
1772045970402113800,1.15411376953125,-0.03335048093795776,0.3909509265782311,-0.16257950291931628
1772045970412098800,1.164098876953125,0.15676409463882446,0.4996861361831426,-0.10248962974622845
1772045970422085000,1.174085205078125,0.14001754249930382,0.5676764437498525,0.028860622172802684
1772045970432070100,1.184070068359375,0.3027957828611135,0.6523132771477103,0.1672108159817755
1772045970442056000,1.194055908203125,0.47085868562757965,0.637432445814833,0.2757048372419551
1772045970452042000,1.2040419921875,0.4316869511902332,0.5447323886770755,0.3467600853372365
1772045970462027000,1.214027099609375,0.3054150254487991,0.4850379080297425,0.33439616872873157
1772045970472013000,1.224012939453125,0.16706863103210925,0.45084743260368704,0.321180165335536
1772045970481998800,1.233998779296875,0.08129121276438235,0.4299938104715198,0.37109603315982964
1772045970491984000,1.24398388671875,0.03667290335893631,0.3165364311829209,0.3999039022320881
1772045970501969700,1.2539697265625,0.00744096365571022,0.17514011114370076,0.43639059883654113
1772045970511954400,1.263954345703125,-0.013396657189726829,0.08863879904821514,0.49219957982003687
1772045970521940700,1.273940673828125,0.011821370697021483,0.058804801798611875,0.49534602461960164
1772045970531926500,1.283926513671875,0.06139584120512008,0.04681441294392571,0.4392307176332921
1772045970541911600,1.29391162109375,0.11848375608325004,0.023451041047112084,0.3584412803785875
1772045970551897600,1.303897705078125,0.12237258021533488,-0.004455636835144832,0.2873258265286684
1772045970561883600,1.313883544921875,0.12630056731402872,-0.01986926900362596,0.23234175206199287
1772045970571868700,1.32386865234375,0.1590530823588371,-0.03536971637245733,0.18544976210352032
1772045970581854500,1.3338544921875,0.2080839475095272,-0.03241287129428237,0.08871453116554766
1772045970591840500,1.343840576171875,0.24726561881899833,-0.03627585773221217,-0.01138206596430391
1772045970601825800,1.35382568359375,0.21809388487040995,-0.053345746374852024,-0.07503324834816158
1772045970611811600,1.3638115234375,0.1264461132645607,-0.044295009434944944,-0.10262385058514774
1772045970621796600,1.373796630859375,0.06137070676386356,-0.04158965489980764,-0.11430727411620319
1772045970631782700,1.38378271484375,0.028562077617645263,-0.04027525696614757,-0.1329798258822411
1772045970641768700,1.393768798828125,-0.003545125260949135,-0.05836367500156629,-0.15218896874301135
1772045970651753700,1.403753662109375,-0.03687865506410599,-0.06216405366521794,-0.15121716456878928
1772045970661739500,1.413739501953125,-0.15563947452306748,-0.04385614309364464,-0.1309470414130017
1772045970671725600,1.4237255859375,-0.2544955700725317,-0.011362635178049094,-0.14498053520154208
1772045970681710600,1.433710693359375,-0.3167413061052561,0.03120757345801685,-0.17908325927890836
1772045970691696600,1.443696533203125,-0.3365250339835882,0.06632326940363273,-0.1878172218872234
1772045970701681700,1.453681640625,-0.3387619992554188,0.0873819765206892,-0.13787764439377934
1772045970711667500,1.46366748046875,-0.31853812639415263,0.0895924099786207,-0.11189217579849063
1772045970721653800,1.47365380859375,-0.2665811446636915,0.0659577331600245,-0.11796174150314181
1772045970731638800,1.483638671875,-0.21750117967426777,0.09286722126505337,-0.17486165952850133
1772045970741624600,1.49362451171875,-0.1546013636469841,0.12543306376449764,-0.25802473057936876
1772045970751610600,1.503610595703125,-0.10483341639339923,0.1343441365053877,-0.3014784897174686
1772045970761595400,1.513595458984375,-0.10605156001150608,0.12086240398124791,-0.29278244796674696
1772045970771581700,1.523581787109375,-0.10812369011044502,0.06411406435498501,-0.2650682193500921
1772045970781567500,1.5335673828125,-0.1583516560912132,0.003610573446284979,-0.19522724241539835
1772045970791552500,1.543552490234375,-0.16623393377363682,0.003735204472951591,-0.18980028546322136
1772045970801538800,1.553538818359375,-0.07441139012277126,0.0440140279359417,-0.19690898495726286
1772045970811523600,1.563523681640625,-0.023569676157832144,0.07807056108429096,-0.17892050646524876
1772045970821509600,1.573509521484375,-0.012943652725219726,0.05970883796624839,-0.14449300741292537
1772045970831495400,1.583495361328125,0.025001754787564275,0.03773408001677599,-0.09470368857774883
1772045970841480400,1.59348046875,0.12212708102166651,0.02365808509364724,-0.01813369564898312
1772045970851466800,1.603466796875,0.2623971369773149,0.02394985284814611,-0.004929346160963177
1772045970861452500,1.61345263671875,0.37348727567791934,0.04774538278426044,0.027163097539916633
1772045970871437600,1.6234375,0.35499534117579457,0.08688212810661643,0.10153035626001655
1772045970881423600,1.633423583984375,0.17371406039595602,0.19984270032159984,0.1690630927849561
1772045970891408600,1.64340869140625,-0.07667699696719646,0.17275493304021655,0.20808365524858236
1772045970901394700,1.653394775390625,0.022538579544425008,0.07704762037787587,0.2008104859078303
1772045970911380500,1.66338037109375,0.08035013252198696,0.17891648787725717,0.20391075347810983
1772045970921365500,1.673365478515625,0.17916472701728342,0.0903747925279662,0.12413593662604688
1772045970931351600,1.6833515625,0.3656687108814716,0.060396025645965704,0.08868658371269703
1772045970941337600,1.693337646484375,0.3232411895185709,0.15413701580455527,0.15034640961624682
1772045970951322600,1.703322509765625,0.272708687633276,0.10980126793384551,0.13733013004623354
1772045970961308400,1.713308349609375,0.2389186462342739,0.015073431295529007,0.058648442193120716
1772045970971293700,1.723293701171875,0.13480419176518915,0.009928487888816744,0.02319645893126726
1772045970981279500,1.733279541015625,0.00826397047638893,0.02436084480183199,-0.019435206701606512
1772045970991265500,1.743265625,-0.017571312525868413,0.03207845170814544,-0.049321628258191044
1772045971001250600,1.75325048828125,-0.030696167036890983,-0.003751301657804288,-0.07414305804278701
1772045971011236600,1.763236572265625,-0.055959203109145164,-0.02107058021794073,-0.0969555591577664
1772045971021222700,1.77322265625,-0.05597381615638732,-0.0018353416514000854,-0.11812222929447888
1772045971031207700,1.783207763671875,-0.05396715250909328,0.01740960089182481,-0.14000380623489617
1772045971041193500,1.793193359375,-0.07761515460014343,0.010970610503025818,-0.12699695208035408
1772045971051178800,1.8031787109375,-0.08796820631027222,0.0013000543144764379,-0.08991769641023128
1772045971061164500,1.81316455078125,-0.061355509194731706,-0.01908595144758583,-0.05753858125507831
1772045971071150600,1.823150634765625,-0.005111059403419494,-0.029310578446986618,-0.060895709663257
1772045971081135600,1.833135498046875,0.02750117038786411,-0.0318437319201068,-0.04654219014011323
1772045971091121700,1.84312158203125,0.062189621931314464,-0.019450742197455836,-0.008597513279691339
1772045971101107700,1.853107666015625,0.10836159051954745,-0.04276481332613621,0.022721571428515015
1772045971111092500,1.863092529296875,0.16437573868632316,-0.05272347715750802,0.025384141701273618
1772045971121078500,1.87307861328125,0.2154389864474535,-0.03681080942570697,0.04756466505564749
1772045971131063800,1.883063720703125,0.23211130430698393,-0.04421683419877663,0.09699972709305583
1772045971141049600,1.893049560546875,0.24790800837576388,-0.030014963856677058,0.12076225894186646
1772045971151035600,1.90303564453125,0.2115034005641937,0.00018676501855370589,0.1361756627814844
1772045971161020400,1.9130205078125,0.10105214428901672,0.014166259030957007,0.15169113875608892
1772045971171006700,1.9230068359375,0.009633505263924598,0.0352306344120414,0.1699960993187502
1772045971180992500,1.932992431640625,-0.0492740262567997,0.04661551110465079,0.15742496970035136
1772045971190977500,1.9429775390625,-0.0476835421949625,0.044203997550089844,0.15565017858017235
1772045971200963600,1.952963623046875,-0.04635317037403583,0.04522435814035125,0.14734383026678113
1772045971210948600,1.962948486328125,-0.028373277047276494,0.048892086867662145,0.1336069448046386
1772045971220934700,1.9729345703125,-0.0018394903868436813,0.04504848098363727,0.11031177473925054
1772045971230920400,1.98292041015625,0.044909985828399654,0.07319015036527998,0.09217259919755161
1772045971240905500,1.992905517578125,0.08302432016730309,0.0777909586916212,0.07110179065074772
1772045971250891800,2.002891845703125,0.03679799104332924,0.06770773689881898,0.07255947864577174
1772045971260877600,2.012877685546875,-0.04006605292856693,0.060866401370381934,0.06907693375963718
1772045971270862600,2.022862548828125,-0.1023778399348259,0.06298795553504023,0.05392176073109731
1772045971280848400,2.032848388671875,-0.10123276155292987,0.05919900244770106,0.03302970628468319
1772045971290833700,2.042833740234375,-0.06345277373492718,0.03993283217006829,-0.0015127243841998278
1772045971300819700,2.05281982421875,0.009770283386111259,0.023806804815377107,-0.016749419950041918
1772045971310805500,2.062805419921875,0.05829027640521526,0.016668954575376118,-0.001397792767640203
1772045971320790500,2.07279052734375,0.04617722928524017,0.010182617913512512,0.02842042239094153
1772045971330776600,2.082776611328125,0.04106441631615162,0.016106305449135834,0.03340710649602115
1772045971340762600,2.0927626953125,0.07540449281334877,0.012327381707110906,-0.0014520254392176865
1772045971350747600,2.10274755859375,0.115078331553936,-0.014003683172166347,-0.020899287904798985
1772045971360733400,2.1127333984375,0.15755612179934977,-0.04764016884411685,-0.05635757304327562
1772045971370718500,2.122718505859375,0.18354513405859468,-0.0716570453467546,-0.07830779477311298
1772045971380704800,2.132704833984375,0.15683365274369715,-0.06577084598552901,-0.054640887052193284
1772045971390690600,2.142690673828125,0.07022796695828437,-0.04202403229565825,-0.04191750774784014
1772045971400675600,2.152675537109375,0.015150222858786581,-0.027682653018168638,-0.0482054106445983
1772045971410661600,2.16266162109375,-0.02363923426270485,-0.04256813540998846,-0.033010581459105015
1772045971420646700,2.172646728515625,-0.03622925124466419,-0.042362118843337515,0.01338944199765101
1772045971430632700,2.1826328125,-0.029641105026006698,-0.04444111707448028,0.03337329555796459
1772045971440618500,2.192618408203125,-0.0703057083696127,-0.03287014779181918,0.0352774304125458
1772045971450603500,2.202603515625,-0.11258885282576084,-0.02017106267850613,0.031348767460417
1772045971460589600,2.212589599609375,-0.09263619812130927,-0.017304471433360596,-0.0026277729540131983
1772045971470575600,2.22257568359375,-0.056713820868730544,-0.00856291232376825,-0.0309690291615203
1772045971480560600,2.232560546875,-0.029198037433624265,-0.008873999554201146,-0.003201115862559527
1772045971490546700,2.242546630859375,0.01610533162653446,-0.021136667724093422,0.03445400346675887
1772045971500531700,2.25253173828125,0.0453916318655014,-0.0010780204780749044,0.08124417701857164
1772045971510517800,2.262517822265625,0.061063248249888416,0.01015841962059494,0.12592367855934425
1772045971520503800,2.27250390625,0.05759411083459854,0.015298739367828237,0.16282927642930298
1772045971530488800,2.28248876953125,0.005967968493700027,0.03332187361469259,0.20753013128535822
1772045971540474600,2.292474609375,-0.08242927688360213,0.0487050444295397,0.22806243077497929
1772045971550461000,2.3024609375,-0.13578560401797293,0.04071946620284579,0.23902990632271393
1772045971560445700,2.31244580078125,-0.12748773127198218,0.03437486924936529,0.235227006908413
1772045971570431700,2.322431640625,-0.07459609903991223,0.03460843597664497,0.21976799209509043
1772045971580416800,2.332416748046875,-0.012425766330957412,0.019013633988401852,0.23101331646982579
1772045971590402600,2.342402587890625,0.02594575763940811,0.026645133513840846,0.22319413061887025
1772045971600388900,2.352388916015625,0.043213703304529186,0.03729840571298264,0.19680051961410788
1772045971610373600,2.36237353515625,0.027252748584747313,0.05288171819283161,0.19918204445578155
1772045971620359700,2.372359619140625,-0.009216156634688376,0.08317613146184012,0.2153263198532164
1772045971630345700,2.382345703125,-0.022193711629509925,0.07909246061109006,0.22377494444781912
1772045971640330800,2.392330810546875,-0.015271218889951706,0.08120804625926539,0.22522465006578712
1772045971650316800,2.40231689453125,0.014089315629005431,0.12562982844561338,0.2304374893432483
1772045971660301600,2.412301513671875,0.07787059066593646,0.1270061765664257,0.22619155886918305
1772045971670287600,2.42228759765625,0.1478033740699291,0.10897050706497392,0.2453845543127507
1772045971680273700,2.432273681640625,0.21117080760896204,0.10442866238425486,0.2665758839666843
1772045971690258700,2.4422587890625,0.2540624393522739,0.1307680681169033,0.26125019543189554
1772045971700244700,2.45224462890625,0.2998153057456016,0.13923876754599623,0.2508026703713462
1772045971710229800,2.462229736328125,0.312806304743886,0.13749233487062154,0.22007862894684074
1772045971720215800,2.4722158203125,0.30485096182525157,0.10258894366854801,0.19556263011591507
1772045971730201600,2.48220166015625,0.2225187155753374,0.08354896509591489,0.1660694821932353
1772045971740186600,2.4921865234375,0.1470540170073509,0.08490821595145388,0.14542066191816702
1772045971750172700,2.502172607421875,0.07186755085885524,0.08585128722153604,0.11577941989484243
1772045971760158700,2.51215869140625,0.012669511958956717,0.057958934692153706,0.08465265202149748
1772045971770143700,2.522143798828125,-0.01721767678260803,0.02986999557816889,0.0689235150299035
1772045971780129800,2.5321298828125,-0.03020867578089237,0.01657007447789656,0.05215817599152214
1772045971790114600,2.542114501953125,-0.0400672219723463,0.0015592726478877012,0.030243500499101354
1772045971800100900,2.552100830078125,-0.07402443663179874,-0.011409063569083808,0.0006552125057205558
1772045971810086700,2.562086669921875,-0.06818038677871227,-0.010254998163133858,-0.01906440976099111
1772045971820071700,2.57207177734375,-0.06937222691178321,-0.019056769877229818,-0.03710473260467406
1772045971830057700,2.5820576171875,-0.02388005728125572,-0.026970139100949746,-0.04712032795478589
1772045971840043800,2.592043701171875,0.018464461973309514,-0.021972333096945657,-0.05804422922227531
1772045971850028800,2.60202880859375,0.008133037573099135,-0.01458157667495543,-0.05309163461646531
1772045971860014600,2.6120146484375,0.008424713996052742,-0.0149319153494318,-0.03780832342992071
1772045971869999600,2.62199951171875,0.03355740168690681,-0.015059437019506003,-0.01864226165905129
1772045971879986000,2.63198583984375,0.0325035087198019,-0.010969906108482972,0.005078559073037467
1772045971889971700,2.6419716796875,0.042674774122238156,-0.003487761059013428,0.0037598091912455856
1772045971899956700,2.651956787109375,0.06826105079948902,0.01078120486116968,0.0014282838040264323
1772045971909942500,2.661942626953125,0.03339373555779457,0.01381862034528749,0.0203971470689401
1772045971919927800,2.671927734375,-0.025415011763572692,0.022874072276218793,0.04497442023358308
1772045971929913900,2.681913818359375,-0.06716916390955448,0.016413615549349923,0.0562708537410479
1772045971939899600,2.691899658203125,-0.0549117398828268,0.01359713107322459,0.058897096891677936
1772045971949884700,2.701884765625,-0.04879530282914638,-0.009301616703235777,0.08453682535579428
1772045971959870700,2.71187060546875,-0.04044073145985603,-0.015547851865756092,0.1035753517568577
1772045971969855700,2.721855712890625,-0.008744447469711304,-0.031038701430824583,0.07430914445784874
1772045971979841800,2.731841796875,0.004544657692313194,-0.03777754013258964,0.08858997320411727
1772045971989827600,2.74182763671875,-0.019727613776922226,-0.00940386122651398,0.09205618800995871
1772045971999812600,2.7518125,-0.04130407029092312,0.011379070289619266,0.11241508542774245
1772045972009798700,2.761798583984375,-0.017233458873629568,-0.005863615353370551,0.09468522133929655
1772045972019784700,2.77178466796875,0.010888473761081695,-0.04329220276768319,0.0841242442332208
1772045972029769700,2.781769775390625,0.027050504010915754,-0.038502872432186266,0.09265519508272409
1772045972039755800,2.791755859375,0.07913023533821105,-0.010135422337497584,0.056546515177539544
1772045972049740800,2.80174072265625,0.07764379617273807,-0.0035143533800612204,0.04283187351324595
1772045972059726600,2.8117265625,0.08244681254029274,-0.0017325548470718784,0.025601168285706077
1772045972069712600,2.821712646484375,0.08141513140499591,0.005778231774992309,-0.0021625026629772037
1772045972079697700,2.83169775390625,0.11973638649284839,0.0054767417775001374,-0.027587401066324672
1772045972089683700,2.84168359375,0.14263912317454813,0.028948117793165147,-0.06353481229546014
1772045972099669800,2.851669677734375,0.17526421244740484,0.033290179285197515,-0.0756385618641274
1772045972109654800,2.86165478515625,0.17750819198191164,0.04517128537939861,-0.07363559257783926
1772045972119640800,2.871640869140625,0.11001578746736049,0.06131093483406584,-0.061752545688301325
1772045972129625900,2.8816259765625,0.03653612523674965,0.05555575514109805,-0.031994805712415836
1772045972139611600,2.891611572265625,0.0004646949023008346,0.02863497845707461,-0.01746618535069283
1772045972149597700,2.90159765625,-0.049525370669364924,0.032003244747198185,0.016716293998574838
1772045972159582700,2.911582763671875,-0.10310381612181663,0.037270946883899155,0.046723652220820075
1772045972169568800,2.92156884765625,-0.13199088791012764,0.003771138869435526,0.06681026290270965
1772045972179553800,2.9315537109375,-0.1037193176716566,-0.025175709415250457,0.048406910866335966
1772045972189539600,2.94153955078125,-0.06467968518137931,-0.04050823003838304,0.021169752576365133
1772045972199526000,2.95152587890625,-0.0593166968435049,-0.0419263166753808,0.003621035474794917
1772045972209511000,2.961510986328125,-0.04632511332333088,-0.04376293011854868,0.004595561329065822
1772045972219496700,2.97149658203125,-0.06191431212127208,-0.044393989997124295,0.03884756681716535
1772045972229481700,2.981481689453125,-0.07855857293009758,-0.035154301789798774,0.06693380708398762
1772045972239467500,2.991467529296875,-0.0518184500426054,-0.025339494275371542,0.08293381060594693
1772045972249453800,3.001453857421875,-0.0053320086777210235,-0.011715690965997054,0.08998858795566483
1772045972259438800,3.01143896484375,0.02005026986002922,-0.0023798534743953493,0.10010723725487478
1772045972269424600,3.021424560546875,0.04109481145441532,0.007893219201546162,0.10032691702069714
1772045972279411000,3.031410888671875,0.07156710660755634,0.012035397040192037,0.10282088012774475
1772045972289395700,3.041395751953125,0.0848357535034418,0.018412055932637304,0.10334663016805425
1772045972299381800,3.0513818359375,0.07326338913142681,0.029122643243009224,0.10037296638581901
1772045972309366800,3.06136669921875,0.061840077841281885,0.04712919624783098,0.0835331282059662
1772045972319352600,3.0713525390625,0.0801911425679922,0.03870831817667931,0.0721253524116706
1772045972329339000,3.0813388671875,0.09270984787940978,0.029147311893384903,0.07678065827107057
1772045972339323600,3.09132373046875,0.11735621335804462,0.01326843683333136,0.07772480725338682
1772045972349309700,3.101309814453125,0.12914894248247147,0.008146161916153504,0.0739137975978665
1772045972359294700,3.111294677734375,0.08844049999713897,0.003638511765981093,0.0801610579569824
1772045972369280800,3.12128076171875,0.05671966608762741,0.010632708901725709,0.0833366923184134
1772045972379266800,3.131266845703125,0.019013912549614907,0.015524545197049155,0.07122978267828002
1772045972389251600,3.14125146484375,0.029192776736617087,-0.002969910055724904,0.04479891753620468
1772045972399237600,3.151237548828125,0.029344167906045913,-0.014734499931056052,0.0552990313005168
1772045972409222700,3.16122265625,0.01378477972447872,-0.005841930961236357,0.07805010281815193
1772045972419208700,3.171208740234375,0.016479425635933874,-0.006186862808233127,0.07306661531715654
1772045972429194800,3.18119482421875,0.0178290866792202,-0.01463906759941019,0.05126285285330377
1772045972439179800,3.1911796875,0.0034632921963930127,-0.005859192623291164,0.05443088843016885
1772045972449165800,3.201165771484375,0.006150339323282242,0.00046796457162126895,0.05484658852501306
1772045972459150800,3.21115087890625,0.03202653885781765,-0.0032390823859255757,0.05089270436665974
1772045972469136600,3.22113671875,0.049371641412377355,-0.009174573382129892,0.05310915200684685
1772045972479122700,3.231122802734375,0.06627192280888557,-0.00423604840086773,0.06868489310159348
1772045972489107700,3.241107666015625,0.061925418037176126,0.005040021727513521,0.0791828605745919
1772045972499094300,3.25109423828125,0.060274143698811525,0.01352229286339134,0.07903174339979886
1772045972509079300,3.261079345703125,0.0439537080168724,0.011797551430016755,0.09255631041866727
1772045972519065300,3.2710654296875,0.003239420312643051,0.009676887747924775,0.11125119274752214
1772045972529051400,3.281051513671875,-0.015029226827621459,0.008328660609899088,0.13480953466058707
1772045972539036200,3.2910361328125,-0.03120119394958019,0.010857037443201989,0.15289728140914813
1772045972549022200,3.301022216796875,-0.02223229007422924,0.0032820173453539606,0.13205627216338178
1772045972559008300,3.31100830078125,0.005443652358651161,0.0035259091038256883,0.0991634627318941
1772045972568993300,3.3209931640625,0.012317629781365394,0.014731458590598776,0.053471514479257166
1772045972578979300,3.330979248046875,0.03220890968739986,0.0060977688858285545,0.03078787304149009
1772045972588964000,3.340964111328125,0.06227788473665714,0.014914194746362044,0.028619068501889704
1772045972598950100,3.3509501953125,0.04745791674554348,0.026892345173982903,0.06231428949059918
1772045972608936200,3.360936279296875,0.020070143604278563,0.01943510623690672,0.07960988121447153
1772045972618921200,3.370921142578125,0.001359013393521309,0.02773035776754841,0.08538013517898507
1772045972628907300,3.3809072265625,-0.004780804535746574,0.02219707263037562,0.08796035179737954
1772045972638892300,3.390892333984375,0.005541852036118507,0.00755573087548837,0.08114305473165587
1772045972648878300,3.40087841796875,-0.0022387188374996185,-0.0013377148771658539,0.08579851585468277
1772045972658864400,3.410864501953125,0.0012064531803131103,-0.003041386123048141,0.084703779420536
1772045972668849200,3.42084912109375,-0.0014864391654729843,0.005642992589343339,0.06178983635823242
1772045972678835200,3.430835205078125,0.017359131079912184,-0.0015327168594580142,0.03447486359169707
1772045972688820500,3.440820556640625,0.05206278019249439,-0.009384416740527375,0.03318734453180805
1772045972698806300,3.45080615234375,0.03917874870002269,-0.005247928857151418,0.0457690138105303
1772045972708792300,3.460792236328125,0.03437573233246803,0.005638919202424586,0.05706970336800441
1772045972718777000,3.470777099609375,0.024480361261963842,0.006017059199279174,0.056137591883353884
1772045972728763400,3.480763427734375,0.023860183537006377,0.0024624993897043165,0.06246390882804989
1772045972738748400,3.49074853515625,0.01965162593126297,-0.001952668437734246,0.05101987441028468
1772045972748734200,3.500734130859375,0.004826981765031814,0.009671526586217805,0.05426646424923092
1772045972758720300,3.51072021484375,-0.02600070269703865,0.005267875666636973,0.0584253831601236
1772045972768705300,3.520705322265625,-0.060871525070071215,-0.006846048236172646,0.07346386187328026
1772045972778691300,3.53069140625,-0.08812661174237728,0.016568702221428974,0.07005580699546263
1772045972788676400,3.54067626953125,-0.10238777680695056,0.025796439696056765,0.05796732806116342
1772045972798662100,3.550662109375,-0.07745382655858993,0.029746410297695546,0.05721619003345258
1772045972808648400,3.5606484375,-0.02019756937623024,0.01300058881053701,0.048513846406107765
1772045972818633200,3.57063330078125,0.044997664111852645,0.03476283195391297,0.06086856592800468
1772045972828619300,3.580619384765625,0.06875789440572261,0.04652085509113967,0.06623143553487025
1772045972838604300,3.590604248046875,0.08205869000554085,0.06060007858439348,0.04698659117305651
1772045972848590300,3.60059033203125,0.11886194174587726,0.06803817442958243,0.026403237349633128
1772045972858576400,3.610576416015625,0.13921382490098475,0.06883903335053473,0.014056947729364036
1772045972868561200,3.62056103515625,0.15792846224308013,0.06582138429610059,0.00926583186215721
1772045972878547200,3.630547119140625,0.13669921173155308,0.06750003069858067,-0.003058172861067578
1772045972888532200,3.6405322265625,0.12101064421236514,0.060850738010369235,0.012793284469097851
1772045972898518300,3.650518310546875,0.09470423656702041,0.06358559720120392,0.014080118542397393
1772045972908504300,3.66050439453125,0.07079553771317004,0.07054054003879427,0.018599769657617435
1772045972918489300,3.6704892578125,0.04794365443587303,0.048335822958080095,0.02010790919824503
1772045972928475400,3.680475341796875,0.005341945549845695,0.02614354523383081,0.03527676369226537
1772045972938460400,3.69046044921875,-0.027692309045791626,0.02749643941381946,0.042214280471019446
1772045972948446200,3.7004462890625,-0.048905777466297144,-0.006641739569418132,0.030094721411867066
1772045972958432300,3.710432373046875,-0.06817337251603603,-0.04090686940057203,0.035295778919989244
1772045972968417300,3.720417236328125,-0.09178221164047717,-0.052739072018861764,0.05413688305281102
1772045972978403300,3.7304033203125,-0.13515315133333206,-0.024349483157601205,0.045427315100235864
1772045972988389400,3.740389404296875,-0.11733809317946434,-0.024565911520412192,0.02008715867116116
1772045972998374100,3.7503740234375,-0.055847559428215024,-0.01541835400937125,0.0033727735018823294
1772045973008360200,3.760360107421875,-0.010981997263431548,-0.0016986206114292144,-0.0008572104843799025
1772045973018345500,3.770345458984375,0.01935702689886093,0.00971574018727988,0.013521498278947545
1772045973028331300,3.780331298828125,0.04550327554643154,0.0359210164125543,0.043119366951426485
1772045973038317300,3.7903173828125,0.09259995776414871,0.05263353841830976,0.08360790134207345
1772045973048302000,3.800302001953125,0.14509236154556274,0.06740915581104345,0.11344261097772977
1772045973058288400,3.810288330078125,0.16482231341004372,0.09639749601674266,0.14005172789669595
1772045973068273400,3.8202734375,0.16960311794579028,0.10616202551550231,0.15992129829442128
1772045973078259200,3.83025927734375,0.1980366007477045,0.10500355792907066,0.14878904237272217
1772045973088245200,3.840245361328125,0.2279822416782379,0.10072135969838127,0.145262621812243
1772045973098230300,3.850230224609375,0.22367665343880652,0.09536692912629804,0.144368467717804
1772045973108216300,3.86021630859375,0.224766786763072,0.08161517488858662,0.12169409643188119
1772045973118201300,3.870201416015625,0.19757716654241084,0.06108963393331505,0.09267558028362691
1772045973128187100,3.880187255859375,0.14629823020398616,0.04573117515132762,0.0870858705177903
1772045973138173400,3.89017333984375,0.10190437720417976,0.039072794974362474,0.09241157731888815
1772045973148158200,3.900158203125,0.06305062267482281,0.014511769691621884,0.09175262021981179
1772045973158144300,3.910144287109375,0.04155658374726772,-0.009316803997568785,0.0578572826822754
1772045973168129300,3.92012939453125,0.01826397096514702,-0.01782067504390143,0.021045875034946947
1772045973178115300,3.930115234375,-0.02927811693251133,-0.015789397545158863,-0.00468052249904722
1772045973188101400,3.940101318359375,-0.05318856935203075,-0.018770833641896023,-0.017367816709866746
1772045973198086100,3.950086181640625,-0.08174889340400696,-0.038640888096811245,-0.01777296344465576
1772045973208072200,3.960072265625,-0.060933484390378,-0.04896660884201992,-0.0015397859210614115
1772045973218057200,3.97005712890625,-0.03816811035275459,-0.07397060581902042,0.020481436952063812
1772045973228043300,3.980043212890625,-0.009704232412576674,-0.08502477326951921,0.03115887091150507
1772045973238028300,3.9900283203125,0.034925767430663106,-0.08629216285683214,0.023949971579154954
1772045973248014300,4.000014404296875,0.06085574297904968,-0.08619877635180018,0.02285911673568189
1772045973258000400,4.01000048828125,0.048779520738124846,-0.09103144807210191,0.02456120794583112
1772045973267985400,4.0199853515625,0.03415419853627682,-0.08984440284515731,0.01966749935382977
1772045973277971200,4.02997119140625,0.03193535344302654,-0.08599173687184229,0.003531078469287604
1772045973287957200,4.039957275390625,0.05842822357118129,-0.08380838321708142,-0.007924746850971132
1772045973297942300,4.0499423828125,0.06261866099834441,-0.08359883211962878,0.0037563659919891503
1772045973307928300,4.05992822265625,0.0516962849676609,-0.08872550008413381,0.03980149284140207
1772045973317913300,4.069913330078125,0.035841128709912295,-0.06387299474126193,0.06979881829340011
1772045973327899100,4.079899169921875,0.027616905722022054,-0.05845605229302309,0.07565339867365546
1772045973337884200,4.08988427734375,0.014754501539468765,-0.04760252654773649,0.08120903263995423
1772045973347870500,4.099870361328125,-0.024589082333445547,-0.04210281488660257,0.08991695662471465
1772045973357856300,4.109856201171875,-0.0563017329365015,-0.031667423221841455,0.08631401849561371
1772045973367841300,4.11984130859375,-0.08562310448884963,-0.03689409922841005,0.07850596596002578
1772045973377827000,4.1298271484375,-0.10477204159498214,-0.042205814036773516,0.061294965513376515
1772045973387812400,4.139812255859375,-0.09025953211784363,-0.04734978019595146,0.03699865558142774
1772045973397798400,4.14979833984375,-0.05256079284250736,-0.04866065273196436,0.0008012333802878856
1772045973407784200,4.1597841796875,-0.05078209273219108,-0.05786964897350408,-0.02119517471198924
1772045973417769200,4.169769287109375,-0.053799979248642917,-0.05081036441202741,-0.03571671687895432
1772045973427755300,4.17975537109375,-0.0692465547055006,-0.045144653100799764,-0.044089737220387906
1772045973437740300,4.189740234375,-0.05761690718829632,-0.026385656027169895,-0.0539055037160404
1772045973447726300,4.199726318359375,-0.02683715352118015,-0.05798686387869529,-0.06534834169056267
1772045973457712000,4.209712158203125,0.0009480945050716399,-0.07906727137090638,-0.05994491174444556
1772045973467697400,4.219697509765625,0.023646833047270773,-0.06736391929667443,-0.07244668418737128
1772045973477683200,4.22968310546875,0.03601999240815639,-0.07189228344131261,-0.100630293014599
1772045973487668200,4.239668212890625,0.01681727928817272,-0.08799160545216873,-0.09059804335720836
1772045973497654300,4.249654296875,-0.0041799160331487655,-0.0860004042354878,-0.06587776325899176
1772045973507640000,4.25964013671875,-0.020095862567424773,-0.06146344481492415,-0.06249982952480204
1772045973517625300,4.269625244140625,0.004237199178338051,-0.04766130296369083,-0.05282190973041579
1772045973527611100,4.279611083984375,0.018240005567669866,-0.055011428264481944,-0.016352730516344307
1772045973537596200,4.28959619140625,0.016678747600317,-0.03209387760614045,0.005380907587055116
1772045973547582200,4.299582275390625,0.00838555102944374,-0.017436662428686394,0.01927531256531365
1772045973557568300,4.309568359375,0.013564999493956564,-0.013575968412542714,0.03766727555799298
1772045973567553300,4.31955322265625,0.04045125285387039,0.0033175909822341053,0.051640116067323834
1772045973577539300,4.329539306640625,0.07064180845618248,-0.009040708736237139,0.07363689861893653
1772045973587524000,4.339524169921875,0.08827683386802673,-0.0038608949455432593,0.09800665737958625
1772045973597510400,4.349510498046875,0.09050795392096042,0.020094867053581402,0.10643837650516069
1772045973607496200,4.35949609375,0.09723463182747363,0.044591156537039205,0.11052054038541391
1772045973617481200,4.369481201171875,0.06251695418953895,0.05717094438592903,0.12538888669605366
1772045973627467300,4.37946728515625,0.024940964511036872,0.07007196354581974,0.13486080819009802
1772045973637452000,4.3894521484375,0.03448036175072193,0.09110684226271695,0.1253937455342617
1772045973647438300,4.399438232421875,0.0678045392036438,0.07652568799615837,0.1209529592083767
1772045973657424100,4.409424072265625,0.10247662413418292,0.061520901490049434,0.11936000006166286
1772045973667409200,4.4194091796875,0.13597031293511389,0.07169496163777075,0.11837961985534057
1772045973677395200,4.429395263671875,0.15213292770683765,0.06533874274515547,0.12317379532931372
1772045973687380200,4.439380126953125,0.12192600549161434,0.06274605023767799,0.13777055815695785
1772045973697366300,4.4493662109375,0.08155658570230007,0.06529665716909804,0.139503291100543
1772045973707352000,4.45935205078125,0.06753156748116015,0.06606749541112221,0.1280235277822707
1772045973717337000,4.469337158203125,0.05216974769830703,0.053148684866214164,0.1125448949530255
1772045973727323400,4.479323486328125,0.05117430692017078,0.04702944393409416,0.0877427909234073
1772045973737308200,4.48930810546875,0.054366965481638906,0.04274077029684558,0.0624545199451968
1772045973747294200,4.499294189453125,0.06100128892958164,0.03327576260077767,0.04526878180396743
1772045973757280000,4.509280029296875,0.04833002340495586,0.024068565590679644,0.03673773048976436
1772045973767265300,4.519265380859375,0.015748773273825643,0.02024381967075169,0.04580171050373465
1772045973777251300,4.529251220703125,-0.008015548673272132,0.01949259944465011,0.0317565080110915
1772045973787236000,4.539236083984375,-0.031500469157099725,0.014616673104511573,-0.0019730627717915923
1772045973797222100,4.54922216796875,-0.024328970092535016,-0.001319055842468515,-0.029931502807326614
1772045973807207200,4.559207275390625,-0.004445288971066475,-0.01340338832461275,-0.01607991405748762
1772045973817193200,4.569193115234375,0.001973345899581909,-0.012298888548277319,0.015991112396027893
1772045973827179300,4.57917919921875,0.005408581045269966,-0.013010507416352629,0.04614352794503793
1772045973837164300,4.589164306640625,0.010049684849381447,-0.025502068992517887,0.0526935432435479
1772045973847150300,4.599150390625,0.02083060658276081,-0.02503245131992735,0.07277111210245639
1772045973857135400,4.60913525390625,0.0229354699075222,-0.03599705905714072,0.0864461295758374
1772045973867121200,4.61912109375,0.027579496321082114,-0.022510869553592053,0.07826433922387659
1772045973877107200,4.629107177734375,0.024596681118011474,-0.008565748168248682,0.0850107721436303
1772045973887092200,4.63909228515625,0.030285832670331,-0.004285751027800142,0.08065952726472168
1772045973897078300,4.649078369140625,0.0428512997329235,-0.0045054947257041926,0.08761219594683498
1772045973907063300,4.659063232421875,0.0497270307213068,0.0008780888756271451,0.09656971991164609
1772045973917049000,4.669049072265625,0.039541736793518065,-0.0024155001765117047,0.11084914215211755
1772045973927035400,4.679035400390625,0.022768881168961523,0.013340196028444915,0.1172389619202353
1772045973937020400,4.6890205078125,0.015270049846172333,0.02027677209228277,0.12066822398286312
1772045973947006200,4.699006103515625,0.037998014482855794,0.02743318318556994,0.11270902687301859
1772045973956991200,4.7089912109375,0.0384334832906723,0.029457227225927633,0.12045184128582477
1772045973966977000,4.71897705078125,0.0472562566936016,0.03744519377253018,0.12503463903144002
1772045973976963300,4.72896337890625,0.01447802268564701,0.026855776023259385,0.12146392267150803
1772045973986948400,4.7389482421875,-0.003045359045267105,0.027955453494004905,0.11658558517857454
1772045973996934100,4.74893408203125,-0.008755553385615348,0.04071684498749673,0.09276824526945128
1772045974006919200,4.758919189453125,-0.0006949965268373489,0.029651041898131367,0.07348262137267739
1772045974016905200,4.7689052734375,0.012016601008176803,0.007723369926819578,0.05295687035485171
1772045974026891300,4.778891357421875,0.029675591817498206,0.013757416793517767,0.050082383497618135
1772045974036876300,4.788876220703125,0.04763736496567726,0.010564054979151114,0.06048594155227765
1772045974046862000,4.798862060546875,0.04286941991150379,0.003256992501951754,0.077300490027247
1772045974056847400,4.808847412109375,0.04798457096815109,0.000703152433829382,0.0860305527785793
1772045974066833200,4.818833251953125,0.06822071878910065,0.0048063773684203625,0.07262967607146129
1772045974076818200,4.828818115234375,0.07829261547029018,-0.005421212197979912,0.06318851504186168
1772045974086804200,4.83880419921875,0.07759118920266628,-0.032336445057205856,0.053803111920645456
1772045974096790300,4.848790283203125,0.04441197317838669,-0.022539949517603963,0.04001770200850442
1772045974106775300,4.858775390625,0.03172901721596718,-0.0025406609261408447,0.0344649997848086
1772045974116761000,4.868760986328125,0.03266132963001728,-0.008301589939882979,0.03805651233759708
1772045974126746000,4.87874609375,0.03673603172302246,-0.009792641348391772,0.0564868711119052
1772045974136732400,4.888732421875,0.02674479906260967,-0.020839630139432845,0.06620254736710339
1772045974146718200,4.89871826171875,0.006430325308442115,-0.021842149112327024,0.07094072747067548
1772045974156703200,4.908703125,0.010807809740304946,-0.018168237239401787,0.04851399253658019
1772045974166689300,4.918689208984375,0.01519172391295433,-0.02693229359188117,0.050325042280228806
1772045974176674000,4.928674072265625,0.01778933919072151,-0.021568136210227382,0.04542833801354281
1772045974186660400,4.938660400390625,0.0229354699075222,-0.011631455881800501,0.022451540581788866
1772045974196646100,4.948646240234375,0.03466799327731132,-0.013030783019401132,0.013795757776219397
1772045974206631200,4.958631103515625,0.05762099884152412,-0.01816414558617398,0.026275574115663766
1772045974216617200,4.9686171875,0.09091478115618229,0.0011727107409154995,0.016210974824940785
1772045974226602200,4.978602294921875,0.10970540634393691,-0.013974123717541805,0.0024994977986905723
1772045974236588300,4.98858837890625,0.08705050694346428,-0.01987413240841124,-0.018963634533947334
1772045974246573300,4.9985732421875,0.06423720211088657,-0.016525214706151745,-0.029597297850321044
1772045974256559000,5.00855908203125,0.0357277314633131,-0.015343631105613894,-0.017936583907995372
1772045974266545400,5.01854541015625,0.018428221616148946,-0.03508398563310038,-0.008150888323620892
1772045974276530200,5.0285302734375,0.006501636978983879,-0.047029106007376684,-0.007633732581720687
1772045974286516200,5.03851611328125,-0.022346271842718122,-0.03727613908224739,-0.023137641416117547
1772045974296501200,5.048501220703125,-0.04492284530997276,-0.025780036550527435,-0.0372145039889263
1772045974306487300,5.0584873046875,-0.05419511604607105,-0.01897320607989095,-0.054858032367634584
1772045974316473300,5.068473388671875,-0.06736380969882011,-0.030346997406193985,-0.06368208441219758
1772045974326458000,5.0784580078125,-0.09519874208569526,-0.03741332591309911,-0.05166799045493826
1772045974336444200,5.088444091796875,-0.11465163057446479,-0.0350525219157571,-0.033352293869131244
1772045974346429200,5.09842919921875,-0.11898936751782893,-0.020315967024932616,-0.013611596848350017
1772045974356415200,5.108415283203125,-0.15489654720127582,-0.0012993145289598032,0.020119083612808026
1772045974366401300,5.1184013671875,-0.16058043805658817,-0.010789207787823397,0.049181352137820794
1772045974376386000,5.128385986328125,-0.14067863675653933,-0.009766529659600927,0.07720176062681712
1772045974386372400,5.138372314453125,-0.09997194783687591,0.0017502954289171611,0.0614843597387895
1772045974396357400,5.148357421875,0.003297287979722023,-0.027861464200774205,0.006080397625919431
1772045974406343200,5.15834326171875,0.08278115906119346,-0.052676386612770146,-0.022680161705892533
1772045974416328200,5.168328125,0.05602350051701069,-0.019879612301127052,-0.004438124011340551
1772045974426314200,5.178314208984375,0.041381811702251435,0.006607927489717258,0.0018276835013297384
1772045974436300300,5.18830029296875,0.08105623496472836,-0.005851305002713343,0.017109873593156227
1772045974446285300,5.198285400390625,0.11414368105232715,0.047102842530445194,0.028433281872514635
1772045974456271000,5.20827099609375,0.12792027747035026,0.038752906237076966,0.011666931337269489
1772045974466256100,5.218256103515625,0.13869184685349464,0.04234649201594293,-0.015028674271772615
1772045974476242200,5.2282421875,0.09707564187347889,0.0571049116787035,0.005907342613954097
1772045974486228200,5.238228271484375,0.08731821796894072,0.06252998720104806,0.0030470852114725857
1772045974496213200,5.248213134765625,0.1139104568183422,0.036841359827597626,0.008620912421587855
1772045974506198300,5.2581982421875,0.13600363068282603,0.05633370811049826,0.005946135687804781
1772045974516183000,5.26818310546875,0.1223281565517187,0.042402236224594526,-0.020725036449590697
1772045974526169000,5.278169189453125,0.09907762934565544,0.032602039474120825,0.00427448984826915
1772045974536155100,5.288155029296875,0.0345469972461462,0.03901535656554624,0.07719740411210804
1772045974546140200,5.29814013671875,-0.001246200668811798,0.03395045612510293,0.06482782494779676
1772045974556126200,5.308126220703125,-0.06053717854917049,0.024311416169535367,0.05908979275245219
1772045974566111000,5.318111083984375,-0.0737561410844326,-0.0003223683887394145,0.0757701386548113
1772045974576097300,5.32809716796875,-0.1007610523879528,-0.050373717427277004,0.01752002073004842
1772045974586082300,5.338082275390625,-0.11177695192098618,-0.0040413843452930445,0.007895886082667856
1772045974596068000,5.348068115234375,-0.14692600671350955,-0.011280677674262551,0.023616492707934228
1772045974606054100,5.35805419921875,-0.2308276942372322,-0.05105287249758839,0.07170256042233668
1772045974616039000,5.368038818359375,-0.3009498627334833,-0.04409691587984561,0.07744281197423115
1772045974626025200,5.378025146484375,-0.4259773413717747,0.0037971164150192634,0.10734032118041067
1772045974636010200,5.38801025390625,-0.5229325717359781,0.01767437903305399,0.031440263402462004
1772045974645996000,5.39799609375,-0.534503182542324,-0.002273620331288839,-0.020686485404334962
1772045974655982300,5.407982421875,-0.5979425122737884,0.07486078699124045,0.01166028011748567
1772045974665967000,5.417967041015625,-0.7303899117797613,0.15373924865862354,0.034131036856397984
1772045974675953200,5.427953125,-0.758835669541359,0.1144816443024203,-0.051805480963177976
1772045974685938200,5.437938232421875,-0.7742892592608929,0.24078414784520863,0.26715503556150944
1772045974695924000,5.447924072265625,-0.47486909031271934,0.3447901004385203,0.11890936108417809
1772045974705909200,5.4579091796875,-0.23333880027532578,0.037417228053370485,-0.10952595812380313
1772045974715895300,5.467895263671875,-0.13568448173105715,0.02254283559443429,0.04639463489558548
1772045974725881000,5.477881103515625,0.05903846442401409,0.12319442712538875,-0.04435304606538266
1772045974735866000,5.4878662109375,-0.018093290573358536,-0.03408370884964242,-0.1624784171650186
1772045974745852200,5.49785205078125,-0.02390577624440193,0.07349159013042227,-0.10655242220573127
1772045974755837200,5.507837158203125,0.08386252455711364,0.14032947625899686,-0.13309055624771862
1772045974765823200,5.5178232421875,0.030057869133353232,-0.08569043410401792,-0.09935538684111088
1772045974775809000,5.52780908203125,0.1260235039383173,-0.07105959547683596,-0.0008955606002360582
1772045974785794000,5.5377939453125,0.2305272499859333,-0.0255696543360129,-0.12986125547029076
1772045974795780000,5.547780029296875,0.22901626090109348,-0.059767070959508416,-0.2319031414490193
1772045974805765000,5.55776513671875,0.2725081966251135,-0.15174407451972363,-0.13561474096309392
1772045974815751200,5.567751220703125,0.34584114386141296,-0.22035160066932438,-0.008184183238446711
1772045974825736000,5.57773583984375,0.4966349319189787,-0.11886563154030591,0.0005947875553742051
1772045974835722200,5.58772216796875,0.691352032855153,-0.2072900206528604,-0.10870097854174673
1772045974845708000,5.5977080078125,0.627082097518444,-0.20190109415613114,0.06130502111651003
1772045974855693000,5.607693115234375,0.6450567301481962,-0.1649620141416788,0.1345735978797078
1772045974865679000,5.61767919921875,0.5992980185359716,-0.13681567771807313,0.08954663460813463
1772045974875664100,5.6276640625,0.5710656112641096,0.027286723919585344,-0.14754150826334952
1772045974885650200,5.637650146484375,0.4169909018397331,0.14723174819443374,0.010642828436940907
1772045974895636000,5.647635986328125,0.3162608291119337,0.17756671723611653,0.5466155720751732
1772045974905621000,5.65762109375,0.15045184275209902,-0.12482413808591664,0.5284191499209031
1772045974915607300,5.667607177734375,0.27957506627142426,-0.017922500583715736,0.32769462526347487
1772045974925592000,5.677592041015625,0.06936871978044509,-0.0019372882055118678,0.24525676321461795
1772045974935578000,5.687578125,-0.5125245749682188,0.020251637651026246,0.17178342112693934
1772045974945563100,5.697563232421875,-0.6421399659186601,-0.05160688965115696,0.2773096786227077
1772045974955549200,5.707549072265625,-0.4483405643492937,-0.020589162509702146,0.5349613746386022
1772045974965535200,5.71753515625,-0.5235714541614055,-0.056121006074734026,0.5005797605546191
1772045974975520300,5.727520263671875,-0.27331542135477066,-0.1729530494282022,0.43902405261266975
1772045974985506000,5.737506103515625,0.03718436001241207,-0.2892713711058721,0.27329379404485227
1772045974995492000,5.7474921875,0.41726095095276833,-0.2141989232584834,0.0873929637055844
1772045975005477000,5.75747705078125,0.790387576624751,-0.05718940249122679,0.013292868021689355
1772045975015463200,5.767463134765625,0.6876192760676145,-0.03562361350171268,-0.13395572170969097
1772045975025448200,5.7774482421875,0.3295189546138048,0.07660656207948922,-0.19945658708084374
1772045975035434200,5.787434326171875,-0.0807756644576788,0.12100165718831121,-0.09582593407332897
1772045975045420300,5.797420166015625,-0.46985272345542906,0.1969050759671256,0.04317424807697534
1772045975055405000,5.807405029296875,-0.5382061287134885,0.13081183419339357,0.04204257716592401
1772045975065391000,5.81739111328125,-0.331881592091918,0.16201711979620156,0.23612295110113918
1772045975075376000,5.827376220703125,-0.07019698729813098,-0.07775551291890442,0.0648665860556066
1772045975085362200,5.837362060546875,0.2242138290554285,-0.16004625811465084,-0.04560052537582814
1772045975095347200,5.84734716796875,0.5894733746141195,-0.022175153059512377,0.40030506691150364
1772045975105333000,5.8573330078125,0.7898088999539613,0.1551528600499034,0.1943595196701586
1772045975115319300,5.8673193359375,0.8580570912718772,0.3892569456093013,-0.36179318462237714
1772045975125304300,5.87730419921875,0.5826455744206905,0.7373073630180209,-0.3072996701516211
1772045975135290000,5.8872900390625,0.3331213630199432,0.616030980541557,-0.18609781421609223
1772045975145275100,5.897275146484375,0.3406476668715477,0.6633877019349486,0.08428228433914482
1772045975155261000,5.907260986328125,0.2687497208744287,0.7552135335214436,-0.16632614210173488
1772045975165247200,5.917247314453125,0.2691378434091806,0.4081768962651491,-0.6858591345272957
1772045975175232300,5.927232177734375,0.2796510541170835,0.31678171118088067,-1.2186617967620492
1772045975185218000,5.937218017578125,0.23425766868591308,0.4549794178418815,-1.0766489887923
1772045975195203000,5.947203125,0.026599837633967397,0.1640980177234858,-0.278064953969419
1772045975205189000,5.957189208984375,-0.46943420578241346,-0.36492914456054565,-0.09678053138442337
1772045975215174100,5.967174072265625,-0.8762497505664825,-0.3748261961314827,-0.2880789829835296
1772045975225160200,5.97716015625,-0.9857026434540748,-0.30474874355979265,-0.5641907570585608
1772045975235146000,5.98714599609375,-0.9469248767703771,-0.3312477511677891,-0.6934064811669289
1772045975245131300,5.99713134765625,-0.788735133242607,-0.3886755655247718,-0.5564205614484846
1772045975255117000,6.007116943359375,-0.5363537788450717,-0.44327721654511987,-0.2825219699108973
1772045975265102000,6.01710205078125,-0.20894027207791804,-0.4233433396063745,-0.06480966823659837
1772045975275088100,6.027088134765625,0.019396189865469933,-0.26927666735798117,0.0499633236952126
1772045975285074200,6.03707421875,0.22940379891395568,-0.1769319264639169,0.19769016193021088
1772045975295059200,6.04705908203125,0.4450117121875286,-0.17821034890189766,0.3573240033190697
1772045975305045200,6.057045166015625,0.5179933617681265,-0.11766893256902694,0.36951585129629816
1772045975315030000,6.067030029296875,0.5020189630448818,-0.006078954587504268,0.28238829706124957
1772045975325016000,6.07701611328125,0.44391105746924875,0.06649513710550964,0.25428470380082724
1772045975335001300,6.08700146484375,0.465292868193984,0.12339388608708977,0.35561902603209017
1772045975344987100,6.096987060546875,0.5639326906442642,0.19322971192263066,0.4297601113134995
1772045975354973200,6.10697314453125,0.7141869649976491,0.20367731004841624,0.4848586059400812
1772045975364958000,6.1169580078125,0.887951878798008,0.1790039104323834,0.5342852289427071
1772045975374944300,6.1269443359375,1.0278314741313457,0.19123079319037495,0.5594621576340869
1772045975384929300,6.13692919921875,1.0558306571692229,0.19674071571826934,0.5631079667905345
1772045975394915000,6.1469150390625,0.9685872580021619,0.20362857553586364,0.5025699114585295
1772045975404900000,6.156900146484375,0.7506640535235405,0.21279387876614927,0.4229301191629842
1772045975414886100,6.16688623046875,0.4681552718877792,0.1839738808646798,0.3413842740504071
1772045975424872200,6.1768720703125,0.21729776605665682,0.1698030244320631,0.25626214135363695
1772045975434857200,6.186857177734375,-0.01741816779077053,0.18664434218294917,0.17788935505291445
1772045975444843000,6.196843017578125,-0.211805013859272,0.14170673769526182,0.1259897477991879
1772045975454828000,6.206828125,-0.2922866638064384,0.06503522062078118,0.07656494229431264
1772045975464814000,6.21681396484375,-0.2986293108314276,0.04396927091218531,0.037949339335807596
1772045975474800000,6.226800048828125,-0.2735533217638731,0.03648490650616586,-0.007622577575111063
1772045975484785200,6.23678515625,-0.27069559424519535,0.016888883219659326,-0.010407464761508162
1772045975494771200,6.246771240234375,-0.2758715355783701,-0.006502732957527041,-0.03926122108539566
1772045975504756700,6.2567568359375,-0.31110826865434643,-0.02733326647505164,-0.11334933407055213
1772045975514742500,6.266742431640625,-0.3658382222294807,-0.0472420820377767,-0.1579029442093335
1772045975524727600,6.2767275390625,-0.40123394525945183,-0.050357875970751045,-0.20701076532006263
1772045975534713900,6.2867138671875,-0.4461135359495878,-0.03604191197901964,-0.2254375073651783
1772045975544699600,6.29669970703125,-0.4186608808785677,-0.01434577460810542,-0.2132756161347963
1772045975554684700,6.3066845703125,-0.32497663500905033,-0.026098171722143886,-0.23565485866535454
1772045975564670500,6.31667041015625,-0.2177951941847801,-0.05512311761118471,-0.2292301045811735
1772045975574655500,6.326655517578125,-0.09223755419254302,-0.06656725249364971,-0.20646832900643347
1772045975584641800,6.336641845703125,0.0040413843452930445,-0.10444456320628523,-0.1497231266187504
1772045975594627600,6.346627685546875,0.0743704735904932,-0.1119607840552926,-0.10829814249505289
1772045975604612600,6.356612548828125,0.11858780097961424,-0.11068433437868952,-0.040877410410647276
1772045975614598700,6.3665986328125,0.13546820863187312,-0.1235162703577429,0.008011178458831272
1772045975624583700,6.376583740234375,0.11212357340157031,-0.07846431877538561,0.026534992236830292
1772045975634569700,6.38656982421875,0.05840951887071132,-0.04842983051761984,0.078402414254006
1772045975644554500,6.396554443359375,0.023066402810811994,-0.04805588263869285,0.1048308043112047
1772045975654540500,6.40654052734375,-0.012356208226084709,-0.03688574239201844,0.07955493615684099
1772045975664526600,6.416526611328125,-0.023771920731663704,-0.0055509121254086495,0.0631198839521734
1772045975674511600,6.42651171875,-0.006680500677227973,0.012418313676863907,0.057277811427041886
1772045975684497700,6.43649755859375,0.03182487880587578,0.029443463562056422,0.06783728156262077
1772045975694482700,6.446482666015625,0.062304188221693035,0.02629281751140952,0.05845463208749424
1772045975704468700,6.45646875,0.09872691621184349,0.03516308331787586,0.06428986844646278
1772045975714453800,6.466453857421875,0.10609539915323257,0.04805931670479476,0.06136331804185174
1772045975724439600,6.476439453125,0.08901625405848025,0.053852805414423346,0.045892484926572066
1772045975734425600,6.486425537109375,0.045370589077472684,0.056588221727684136,0.0347516735223704
1772045975744411000,6.496410888671875,-0.02118307328224182,0.04763108135536313,0.019100398956402205
1772045975754396700,6.506396728515625,-0.05158931746184826,0.013333455760404466,0.012835774187243076
1772045975764381700,6.516381591796875,-0.03148468706607818,0.01450644506253302,-0.026561864260735455
1772045975774367500,6.526367431640625,-0.029247137272357938,0.03235328659415245,-0.03647843566618394
1772045975784353800,6.536353759765625,-0.014913491493463516,0.027212854965776204,-0.013509895747766131
1772045975794338800,6.5463388671875,-0.011951719078421592,0.018773235661536453,0.0018107369331060907
1772045975804324600,6.55632470703125,0.007325812843441963,0.013687676025554537,0.00034833394705783573
1772045975814309600,6.5663095703125,0.005666939720511436,-0.0067198828395456075,0.01785058954990818
1772045975824295400,6.57629541015625,0.023203765454888343,-0.026210107664018868,0.04562017079121433
1772045975834280700,6.58628076171875,0.016963409760594367,-0.04069536380805075,0.03636860948300454
1772045975844266800,6.596266845703125,0.0150666362285614,-0.04386296099349856,0.006356966669642133
1772045975854252500,6.60625244140625,0.005967968493700027,-0.059637453230470414,0.008692137327161616
1772045975864237600,6.616237548828125,0.0026636662513017653,-0.05493979693353176,0.01577362458729185
1772045975874223600,6.6262236328125,0.005011690682172775,-0.029422786100208757,-0.003960354427513084
1772045975884208600,6.636208740234375,0.0159989486426115,-0.025055165475234387,-0.005463053462153766
1772045975894194700,6.646194580078125,0.033845570978522296,-0.04071333785615861,0.011540519345470238
1772045975904179500,6.656179443359375,0.045543607556819916,-0.034634456333890555,0.029484085550101007
1772045975914165800,6.666165771484375,0.052637365210056304,-0.015578312077745795,0.016297183812159347
1772045975924151600,6.676151611328125,0.05468611443340778,0.009312529681250452,-0.007551163156580878
1772045975934136600,6.686136474609375,0.043570261657238006,0.01124481291808188,0.009911495654820465
1772045975944122600,6.69612255859375,-0.009611877954006195,0.02121083807200193,0.019788862994464577
1772045975954107600,6.706107666015625,-0.043539866518974304,0.016450857128575445,0.027764077374059705
1772045975964093700,6.71609375,-0.01466623873412609,0.015325433295220136,0.02075344512674492
1772045975974079500,6.72607958984375,0.008196750459074973,-0.007456015094369649,0.021827773527102544
1772045975984064500,6.736064453125,0.031825463327765466,-0.0035666064403951166,0.04532453514577355
1772045975994050800,6.74605078125,0.056553661870956416,0.0016882453478872775,0.05386889803269878
1772045976004035600,6.75603564453125,0.05154840092957019,0.017540113670006394,0.0265003113658051
1772045976014021600,6.766021728515625,0.024433599510788915,0.02286357371509075,0.04638750190190039
1772045976024006700,6.776006591796875,-0.0032680618852376935,0.021758827343583104,0.06542377241379581
1772045976033992400,6.785992431640625,-0.002245148578286171,0.025542145274579525,0.05842486713689286
1772045976043978800,6.795978759765625,0.0116594581335783,0.010289265758916736,0.05655945685750339
1772045976053963800,6.8059638671875,0.027510522738099098,0.013862009679153561,0.029510277153993954
1772045976063949600,6.815949462890625,0.027196049961447713,0.007609525155648588,0.02172040416249074
1772045976073934600,6.8259345703125,-0.006055646777153015,-0.012623773121088743,0.02627737563039409
1772045976083920600,6.835920654296875,-0.02737842079102993,-0.002175225147232413,0.010507195384002988
1772045976093905700,6.84590576171875,-0.00968786579966545,0.012602949528768658,-0.004526658528030384
1772045976103891700,6.8558916015625,-0.006685176852345466,0.004677782552689314,0.010517635721270926
1772045976113877500,6.86587744140625,0.02220832467675209,-0.0101769644908607,0.03818824439190793
1772045976123862800,6.87586279296875,0.044399698218703265,-0.012775602681934832,0.04619688383378088
1772045976133848600,6.8858486328125,0.04927051912546158,0.0002621580675244331,0.03589357813306851
1772045976143833600,6.89583349609375,0.05219663570523262,0.004136515282839537,0.01800238714471343
1772045976153819600,6.905819580078125,0.05675123026967048,0.008674816299602388,-0.004529294584755553
1772045976163805700,6.9158056640625,0.0686193627178669,0.017327201571688055,-0.016418080520268993
1772045976173790700,6.925790771484375,0.08379121288657188,0.0004676905769854784,-0.025033168272557665
1772045976183776500,6.935776611328125,0.08025310188829898,-0.0026962533466517924,0.01793405174090294
1772045976193761500,6.945761474609375,0.051420975157618516,-0.008763079104945063,0.03389734683153219
1772045976203747800,6.955747802734375,0.05714169089198112,-0.024760128051415083,0.05271784200116526
1772045976213732600,6.965732666015625,0.039949148550629615,-0.022926117557287216,0.07122311547547579
1772045976223718700,6.97571875,0.039212650969624514,-0.00524469572044909,0.04793365363166667
1772045976233704400,6.985704345703125,0.015431962409615516,-0.009031520782783627,0.0458975903599523
1772045976243689500,6.995689453125,-0.038598902985453605,0.013471037600189447,0.037754924158693755
1772045976253675800,7.00567578125,-0.07730185086727141,0.028224150900170206,0.006144156177667901
1772045976263660500,7.01566064453125,-0.031982699716091155,0.034686697977781296,-0.037476584424637256
1772045976273646600,7.025646484375,0.0317278481721878,0.0308211816560477,-0.05651290516888257
1772045976283631600,7.035631591796875,0.06931435924470425,0.031683789834752674,-0.04112281827277038
1772045976293617700,7.04561767578125,0.09264028977453709,0.03656272098273038,-0.023596226238040252
1772045976303603700,7.055603759765625,0.10185703093111514,0.02776559347771108,-0.007982421580160735
1772045976313588700,7.065588623046875,0.08827215769290923,0.029149375986307857,-0.010990574437176109
1772045976323574500,7.075574462890625,0.0150187054336071,0.02669847570285201,0.010765004928328561
1772045976333559800,7.085559814453125,-0.0690548315256834,0.0035126112308353184,0.02749627958361525
1772045976343545600,7.095545654296875,-0.10895897189080715,0.01607340211831033,0.02641426791701233
1772045976353531600,7.10553173828125,-0.13342472010552883,0.02445515375547111,0.01093924268380506
1772045976363516700,7.1155166015625,-0.0797206024467945,0.010204729280620812,0.022963766703533475
1772045976373502700,7.125502685546875,-0.01853752720952034,-0.008334624559804797,0.021011655388225334
1772045976383487700,7.13548779296875,0.0343202027529478,-0.0005569762956351041,0.027595817268220708
1772045976393473500,7.1454736328125,0.06601765578687191,-0.001056304119899869,0.04660849684197455
1772045976403458600,7.15545849609375,0.07340893508195877,-0.0029250206012278795,0.04839858599598519
1772045976413444900,7.16544482421875,0.05013327343463898,0.009447335042059421,0.04330720397399272
1772045976423430700,7.1754306640625,0.03882277486920357,0.011726897346600889,0.009903451628971379
1772045976433415700,7.185415771484375,0.04034311630427837,0.01603796547874808,-0.015489967074012383
1772045976443401500,7.1954013671875,0.03229074275195598,0.024005364161357283,-0.010061571649997495
1772045976453386500,7.205386474609375,0.02708031462728977,0.016574118182063103,0.005090701601980253
1772045976463372800,7.215372802734375,0.03934884456992149,0.02139182066209614,0.00115998825666029
1772045976473357600,7.225357666015625,0.04982230778932571,0.03427212582752109,-0.017575707856484223
1772045976483343600,7.235343505859375,0.06448620843589306,0.0540131836079061,-0.008032387926930095
1772045976493329400,7.245329345703125,0.04802841010987759,0.03541998068839312,0.007681800373992883
1772045976503314700,7.255314697265625,0.019429507613182066,0.023729396764189004,0.03542011768571101
1772045976513301000,7.265301025390625,0.036760581642389295,0.02819697063229978,0.019271513173030688
1772045976523285800,7.27528564453125,0.06475976468026638,0.02258548742607236,0.00645342077295063
1772045976533271800,7.285271728515625,0.07485913389027118,0.01704268554188311,0.02899456216722028
1772045976543256800,7.2952568359375,0.0673772537022829,0.005616451642289758,0.04470001917241607
1772045976553243000,7.305242919921875,0.058603580138087266,-0.0024148791220039126,0.040626207561977205
1772045976563229000,7.31522900390625,-0.004314356067776679,0.006386997623369097,0.04633987250104546
1772045976573213700,7.325213623046875,-0.056554246392846105,0.015247180427238344,0.05089755407171324
1772045976583199700,7.33519970703125,-0.07282441319227219,0.01080992863215506,0.04006642738790251
1772045976593185000,7.34518505859375,-0.061464230266213414,0.010132248566299676,0.036903456145222294
1772045976603170800,7.3551708984375,-0.034573885253071784,0.012600538375973701,0.004954963517765282
1772045976613155800,7.36515576171875,-0.004397942698001861,0.0007907119862735271,-0.006739750875573372
1772045976623142000,7.375141845703125,0.014876082092523574,-0.013889920599386095,0.0006267735749919665
1772045976633128000,7.3851279296875,0.026554244926571845,-0.006058861647546291,0.00347276898585842
1772045976643113000,7.395113037109375,0.029436522364616392,0.011166560050100088,0.012224894013593439
1772045976653098800,7.4050986328125,0.05329378329217434,0.0018223931215703487,0.00997132466683397
1772045976663083800,7.415083740234375,0.054874915003776545,0.012969956210255621,0.022817359953187406
1772045976673070000,7.425070068359375,0.06830196733176708,0.03528027995675802,0.00881939527739887
1772045976683054800,7.435054931640625,0.050018707144260405,0.031806831692531706,-0.00040444633600127415
1772045976693041000,7.445041015625,0.03200724963545799,0.03186740277335048,0.004468513441382674
1772045976703026700,7.455026611328125,-0.011930091768503188,0.02008738700002432,0.003519489637837978
1772045976713011700,7.46501171875,-0.011028759014606475,0.014921528669446706,0.011886467255908063
1772045976722998000,7.474998046875,0.01632452733516693,0.006828530845791101,0.012640376054373336
1772045976732982800,7.484982666015625,0.045480479192733764,0.0011840221527963876,0.020810947467642834
1772045976742968800,7.49496875,0.06960486662387848,0.002045607418194413,0.017626183376618428
1772045976752953900,7.504953857421875,0.1030745900273323,0.0252348328910768,-0.0011866239601920825
1772045976762940000,7.51493994140625,0.12327742010056972,0.03285122617892921,0.015240891108702635
1772045976772926000,7.524926025390625,0.12423428243398665,0.03629595980532467,0.038933820328512225
1772045976782910700,7.53491064453125,0.09140753310918807,0.04904686643742025,0.030651773056027013
1772045976792896800,7.544896728515625,0.04857786068618297,0.04794745382815599,0.040426502005103976
1772045976802882000,7.554882080078125,-0.011491115829348563,0.03931114290803671,0.04186455371789634
1772045976812867800,7.564867919921875,-0.049938043123483655,0.024902532196789978,0.03637716953208437
1772045976822854000,7.57485400390625,-0.05899462528228759,0.01829334319010377,0.002680866264563519
1772045976832838700,7.584838623046875,-0.009468085569143294,0.016317147746309636,-0.026303249857167248
1772045976842825000,7.594824951171875,0.03180091340839863,0.019916779673472045,0.003912113676127046
1772045976852810000,7.60481005859375,0.03896189107894897,0.030597967359423637,0.05572062228003051
1772045976862795800,7.614795654296875,0.04329202923774719,0.016331103206425904,0.045176536943251265
1772045976872780800,7.62478076171875,0.09252221635282039,0.005771861399710178,-0.016475384215055965
1772045976882766800,7.634766845703125,0.2253033778578043,-0.01124590889662504,-0.03333643871287349
1772045976892753000,7.6447529296875,0.2516132926344871,0.014705182505026459,-0.016984434282314033
1772045976902738000,7.654738037109375,-0.073982935577631,0.098298388601467,-0.027669978482974693
1772045976912723700,7.6647236328125,-0.29791619412600995,0.05009031107574701,0.08646530006718821
1772045976922708700,7.674708740234375,-0.29425591805279255,0.0005078764569014311,0.17045971650881692
1772045976932694800,7.68469482421875,-0.15407295585870742,-0.08718480084761977,0.05115464780505281
1772045976942679800,7.6946796875,0.05524842449128627,-0.16991116098165512,-0.006234161132236476
1772045976952665900,7.704665771484375,0.22343056972324846,-0.14969116057790816,0.04388255160995759
1772045976962651600,7.714651611328125,0.23001462428867817,-0.10613755779452622,0.056476815508771684
1772045976972637000,7.724636962890625,0.11768296109437942,-0.06098360714241862,0.04947955419968348
1772045976982623000,7.734623046875,-0.03849193547964096,-0.01675765805542469,0.06733455163829494
1772045976992607700,7.744607666015625,-0.14372282675802706,0.012954247184470295,0.05285479821986518
1772045977002593800,7.75459375,-0.23540040898025036,0.08390884791687131,-0.018777420929598155
1772045977012579000,7.7645791015625,-0.2400982114076614,0.08570676418431103,0.04589903339836746
1772045977022564900,7.77456494140625,-0.0747451521217823,0.017920418224483727,0.092206008276809
