time,seconds_elapsed,z,y,x
1772045969323666700,0.075666748046875,0.4171028137207031,-0.7256637811660767,0.03685552254319191
1772045969333652700,0.08565283203125,0.37265250086784363,-0.39322441816329956,0.17903128266334534
1772045969343638000,0.095637939453125,0.35332995653152466,-0.0564863495528698,0.30300089716911316
1772045969353623800,0.105623779296875,0.3694498538970947,0.2087041139602661,0.40989750623703003
1772045969363608800,0.11560888671875,0.35413694381713867,0.3564128875732422,0.4888074994087219
1772045969373595000,0.125594970703125,0.2847444415092468,0.3829959034919739,0.5446968674659729
1772045969383581000,0.135580810546875,0.15969064831733704,0.34056001901626587,0.5663550496101379
1772045969393566000,0.14556591796875,0.007017218507826328,0.22402557730674744,0.5371612310409546
1772045969403551700,0.1555517578125,-0.11742963641881943,0.04278974235057831,0.5029452443122864
1772045969413536800,0.165536865234375,-0.1808435469865799,-0.21503716707229614,0.5069528222084045
1772045969423523000,0.175523193359375,-0.1986619532108307,-0.4708540141582489,0.591410219669342
1772045969433508900,0.1855087890625,-0.2097681760787964,-0.7239633202552795,0.7692418098449707
1772045969443494000,0.195493896484375,-0.23243620991706848,-0.9057487845420837,1.0478785037994385
1772045969453479700,0.205479736328125,-0.243830606341362,-0.9573884606361389,1.4043939113616943
1772045969463464700,0.215464599609375,-0.24035385251045227,-0.9496453404426575,1.7320998907089233
1772045969473451000,0.225450927734375,-0.11427927017211914,-0.36728212237358093,1.6875379085540771
1772045969483436800,0.235436767578125,0.09057240933179855,0.5100653767585754,1.1388355493545532
1772045969493421800,0.245421875,0.21893979609012604,0.6568842530250549,0.6422246098518372
1772045969503407900,0.255407958984375,0.2588840425014496,0.5393829345703125,0.302120566368103
1772045969513393000,0.265392822265625,0.19565223157405853,0.49918022751808167,-0.006376341450959444
1772045969523379200,0.275379150390625,0.12036760151386261,0.6984397768974304,-0.3395039737224579
1772045969533365000,0.285364990234375,0.12099539488554001,0.9831253290176392,-0.6844362616539001
1772045969543350000,0.29535009765625,0.17892900109291077,1.0275588035583496,-0.9503928422927856
1772045969553335800,0.305335693359375,0.20381630957126617,0.8969128727912903,-1.0673195123672485
1772045969563320800,0.31532080078125,0.14602544903755188,0.6935504674911499,-1.0688310861587524
1772045969573307100,0.32530712890625,-0.00833433959633112,0.44268903136253357,-0.9443769454956055
1772045969583293000,0.33529296875,-0.16361872851848602,0.2739626169204712,-0.6769495010375977
1772045969593278000,0.34527783203125,-0.2779609262943268,0.2339182198047638,-0.3499470055103302
1772045969603263700,0.355263671875,-0.36482977867126465,0.4372018575668335,0.015959354117512703
1772045969613249000,0.3652490234375,-0.4086397588253021,0.6233401298522949,0.3331112563610077
1772045969623235000,0.375235107421875,-0.3618704080581665,0.5829477310180664,0.5174123644828796
1772045969633220900,0.385220947265625,-0.2954268455505371,0.39878469705581665,0.5752483606338501
1772045969643206000,0.395205810546875,-0.28169265389442444,0.14813224971294403,0.5166630744934082
1772045969653192000,0.40519189453125,-0.2573046386241913,-0.126004159450531,0.41635438799858093
1772045969663178000,0.415177978515625,-0.16345643997192383,-0.31380629539489746,0.3035508692264557
1772045969673163000,0.4251630859375,-0.0682000070810318,-0.43515217304229736,0.2263060212135315
1772045969683148800,0.435148681640625,-0.045545030385255814,-0.4420468211174011,0.18424272537231445
1772045969693134000,0.445134033203125,-0.09729281067848206,-0.3953070044517517,0.15663212537765503
1772045969703120000,0.455119873046875,-0.11919011920690536,-0.5199447870254517,0.13995274901390076
1772045969713106000,0.46510595703125,-0.04220317304134369,-0.6550395488739014,0.10283302515745163
1772045969723091000,0.475091064453125,0.09266835451126099,-0.8128001689910889,0.03788385167717934
1772045969733077000,0.485076904296875,0.14121997356414795,-0.7919260859489441,0.05117432400584221
1772045969743062000,0.49506201171875,0.08339769393205643,-0.6269996762275696,0.11110050976276398
1772045969753048000,0.505048095703125,-0.009252633899450302,-0.4704967737197876,0.14091505110263824
1772045969763033900,0.515033935546875,-0.08162243664264679,-0.32056134939193726,0.14149881899356842
1772045969773019100,0.52501904296875,-0.08238814771175385,-0.2512071430683136,0.13339465856552124
1772045969783005000,0.5350048828125,0.012407077476382256,-0.15605290234088898,0.12604352831840515
1772045969792991000,0.544990966796875,0.14779792726039886,-0.039260778576135635,0.06716557592153549
1772045969802976000,0.55497607421875,0.2312411516904831,-0.01655014045536518,-0.052617285400629044
1772045969812962000,0.564962158203125,0.2021523267030716,0.060337357223033905,-0.23302440345287323
1772045969822947000,0.574947021484375,0.14795726537704468,0.23075729608535767,-0.402552992105484
1772045969832932900,0.584932861328125,0.14187711477279663,0.26778489351272583,-0.5267597436904907
1772045969842919000,0.5949189453125,0.08438665419816971,0.32017940282821655,-0.6026026010513306
1772045969852904200,0.604904296875,-0.022584274411201477,0.31615620851516724,-0.6000351905822754
1772045969862890000,0.614889892578125,-0.16908422112464905,0.2448788285255432,-0.5396208167076111
1772045969872875000,0.624875,-0.354673832654953,0.18183386325836182,-0.5084444880485535
1772045969882860800,0.63486083984375,-0.5236042141914368,0.218546062707901,-0.4796344041824341
1772045969892847000,0.64484716796875,-0.6134741902351379,0.38017040491104126,-0.5054291486740112
1772045969902832000,0.65483203125,-0.6711223125457764,0.538672149181366,-0.6052265763282776
1772045969912818000,0.66481787109375,-0.7277814149856567,0.6440503597259521,-0.6905570030212402
1772045969922804000,0.674803955078125,-0.736046552658081,0.6345431804656982,-0.7713744044303894
1772045969932789000,0.6847890625,-0.6927322745323181,0.5378965735435486,-0.816599428653717
1772045969942775000,0.694775146484375,-0.6378466486930847,0.33348485827445984,-0.7898900508880615
1772045969952760000,0.704760009765625,-0.5946439504623413,0.03172241151332855,-0.6844079494476318
1772045969962745900,0.714745849609375,-0.6165031790733337,-0.20632851123809814,-0.5046994686126709
1772045969972732200,0.724732177734375,-0.6435766220092773,-0.08519624173641205,-0.2619774341583252
1772045969982717000,0.734717041015625,-0.6626357436180115,0.09943165630102158,-0.024853307753801346
1772045969992703000,0.744702880859375,-0.6294432878494263,0.06892884522676468,0.1828548163175583
1772045970002688800,0.754688720703125,-0.5280019044876099,-0.018910201266407967,0.3887634873390198
1772045970012673800,0.764673828125,-0.3692827522754669,-0.08296635001897812,0.5764043927192688
1772045970022660000,0.77466015625,-0.22757485508918762,-0.09713809937238693,0.6718624830245972
1772045970032644900,0.784644775390625,-0.17051422595977783,-0.04591521993279457,0.5990580916404724
1772045970042631000,0.794630859375,-0.1562034636735916,-0.03242577612400055,0.39348602294921875
1772045970052617000,0.804616943359375,-0.13962247967720032,-0.05637507885694504,0.12021446973085403
1772045970062602000,0.81460205078125,-0.132737398147583,-0.08354837447404861,-0.15074779093265533
1772045970072588000,0.824588134765625,-0.16677439212799072,-0.09531453996896744,-0.3498537838459015
1772045970082573000,0.834572998046875,-0.2381010353565216,-0.06845496594905853,-0.4693354368209839
1772045970092558800,0.844558837890625,-0.33375081419944763,-0.027909016236662865,-0.524516224861145
1772045970102545000,0.854544921875,-0.4083387553691864,-0.011254406534135342,-0.5366572737693787
1772045970112530000,0.864530029296875,-0.45968466997146606,-0.02071942761540413,-0.5217044353485107
1772045970122516000,0.874515869140625,-0.48942819237709045,-0.06964462250471115,-0.48386120796203613
1772045970132502000,0.884501953125,-0.49495363235473633,-0.14879363775253296,-0.42636099457740784
1772045970142487000,0.894487060546875,-0.47207093238830566,-0.2318195402622223,-0.36448565125465393
1772045970152473000,0.90447314453125,-0.43014687299728394,-0.2949218153953552,-0.30183762311935425
1772045970162459000,0.914458984375,-0.37204548716545105,-0.3160596191883087,-0.2457386702299118
1772045970172444000,0.92444384765625,-0.30669376254081726,-0.29472798109054565,-0.19295622408390045
1772045970182430000,0.934429931640625,-0.22834408283233643,-0.25232645869255066,-0.14641934633255005
1772045970192415000,0.9444150390625,-0.1490277200937271,-0.17693495750427246,-0.11826343089342117
1772045970202401000,0.954401123046875,-0.07399262487888336,-0.08645699173212051,-0.11158661544322968
1772045970212387000,0.964386962890625,-0.02651369199156761,-0.003936119377613068,-0.1221233680844307
1772045970222372000,0.9743720703125,0.00048410240560770035,0.080022431910038,-0.14786921441555023
1772045970232358000,0.98435791015625,0.00523332878947258,0.14323465526103973,-0.1721612960100174
1772045970242344000,0.994343994140625,-0.014276456087827682,0.15313921868801117,-0.19631776213645935
1772045970252329000,1.004328857421875,-0.03113497793674469,0.10768721997737885,-0.21948891878128052
1772045970262315000,1.01431494140625,-0.04891131445765495,0.043355103582143784,-0.2312678098678589
1772045970272300000,1.024300048828125,-0.05037684366106987,-0.007271074689924717,-0.22625777125358582
1772045970282285800,1.034285888671875,-0.044582072645425797,-0.02548869326710701,-0.20509256422519684
1772045970292272000,1.044272216796875,-0.040093302726745605,-0.03419511765241623,-0.17458248138427734
1772045970302257200,1.054257080078125,-0.037319622933864594,-0.05399945005774498,-0.1378452479839325
1772045970312243000,1.064242919921875,-0.04162807762622833,-0.09386143833398819,-0.09542069584131241
1772045970322229000,1.07422900390625,-0.055903419852256775,-0.1039859801530838,-0.051936596632003784
1772045970332213800,1.0842138671875,-0.07812657952308655,-0.10661178082227707,-0.0031771971844136715
1772045970342200000,1.094199951171875,-0.10203031450510025,-0.08657495677471161,0.04526437073945999
1772045970352185000,1.10418505859375,-0.14560486376285553,-0.017430655658245087,0.10252925753593445
1772045970362171000,1.1141708984375,-0.18985487520694733,0.042921099811792374,0.1610410213470459
1772045970372157000,1.124156982421875,-0.2173279970884323,0.08090955764055252,0.21283285319805145
1772045970382142000,1.134141845703125,-0.22233447432518005,0.09890612959861755,0.24632635712623596
1772045970392128000,1.1441279296875,-0.21637488901615143,0.10825833678245544,0.26665031909942627
1772045970402113800,1.15411376953125,-0.20131231844425201,0.14962069690227509,0.26770201325416565
1772045970412098800,1.164098876953125,-0.18567639589309692,0.16962426900863647,0.25057724118232727
1772045970422085000,1.174085205078125,-0.15951323509216309,0.13750068843364716,0.1975795179605484
1772045970432070100,1.184070068359375,-0.12782859802246094,0.0982687920331955,0.11291588842868805
1772045970442056000,1.194055908203125,-0.10635419189929962,0.09480641782283783,0.014145631343126297
1772045970452042000,1.2040419921875,-0.10277034342288971,0.08432889729738235,-0.05757284536957741
1772045970462027000,1.214027099609375,-0.1043567880988121,0.09456875175237656,-0.0883861556649208
1772045970472013000,1.224012939453125,-0.1070956215262413,0.11712798476219177,-0.09078062325716019
1772045970481998800,1.233998779296875,-0.11107518523931503,0.12759661674499512,-0.08833824098110199
1772045970491984000,1.24398388671875,-0.11075356602668762,0.10915407538414001,-0.07330910861492157
1772045970501969700,1.2539697265625,-0.1025286614894867,0.07556015998125076,-0.06017652899026871
1772045970511954400,1.263954345703125,-0.08602868020534515,0.04696459323167801,-0.041832685470581055
1772045970521940700,1.273940673828125,-0.06588958948850632,0.030332885682582855,-0.023365525528788567
1772045970531926500,1.283926513671875,-0.04662815481424332,0.0049010757356882095,-0.00354152568615973
1772045970541911600,1.29391162109375,-0.02800440415740013,-0.03172537684440613,0.015150935389101505
1772045970551897600,1.303897705078125,-0.004193979315459728,-0.0762183740735054,0.02974521741271019
1772045970561883600,1.313883544921875,0.014136026613414288,-0.1055445745587349,0.03763030841946602
1772045970571868700,1.32386865234375,0.025574639439582825,-0.11640764772891998,0.03439703583717346
1772045970581854500,1.3338544921875,0.029675908386707306,-0.10086383670568466,0.02493642456829548
1772045970591840500,1.343840576171875,0.027154959738254547,-0.07327084243297577,0.01252647116780281
1772045970601825800,1.35382568359375,0.02621539682149887,-0.05608280375599861,-0.002951821545138955
1772045970611811600,1.3638115234375,0.024730440229177475,-0.04361743852496147,-0.02122289314866066
1772045970621796600,1.373796630859375,0.019273091107606888,-0.03332804888486862,-0.03421033173799515
1772045970631782700,1.38378271484375,0.015235425904393196,-0.02388349547982216,-0.04025160148739815
1772045970641768700,1.393768798828125,0.009522946551442146,-0.015994945541024208,-0.05223795771598816
1772045970651753700,1.403753662109375,0.007303928956389427,-0.01401726808398962,-0.05837491154670715
1772045970661739500,1.413739501953125,0.0016740066930651665,-0.02355697751045227,-0.053686149418354034
1772045970671725600,1.4237255859375,-0.011939539574086666,-0.014364277943968773,-0.03552818298339844
1772045970681710600,1.433710693359375,-0.02077777311205864,0.00582514563575387,-0.011158393695950508
1772045970691696600,1.443696533203125,-0.02843629941344261,0.005606286693364382,0.008118446916341782
1772045970701681700,1.453681640625,-0.03835897147655487,-0.0010441592894494534,0.022696856409311295
1772045970711667500,1.46366748046875,-0.049944061785936356,-0.0018329743761569262,0.035065945237874985
1772045970721653800,1.47365380859375,-0.05050545558333397,-0.0002459967799950391,0.03943459689617157
1772045970731638800,1.483638671875,-0.053973548114299774,0.013066853396594524,0.0312570184469223
1772045970741624600,1.49362451171875,-0.055069699883461,0.034094106405973434,0.015030911192297935
1772045970751610600,1.503610595703125,-0.04947124794125557,0.060186635702848434,-0.0031592766754329205
1772045970761595400,1.513595458984375,-0.041391484439373016,0.06706957519054413,-0.017697472125291824
1772045970771581700,1.523581787109375,-0.033078912645578384,0.03987845405936241,-0.033172085881233215
1772045970781567500,1.5335673828125,-0.039880093187093735,-0.003496450837701559,-0.03465999290347099
1772045970791552500,1.543552490234375,-0.06055319309234619,-0.02081187069416046,-0.015202026814222336
1772045970801538800,1.553538818359375,-0.08203531801700592,-0.019152721390128136,0.013772101141512394
1772045970811523600,1.563523681640625,-0.0910193994641304,-0.018991686403751373,0.04706394299864769
1772045970821509600,1.573509521484375,-0.09090542048215866,-0.02962702140212059,0.07173919677734375
1772045970831495400,1.583495361328125,-0.08154449611902237,-0.050872303545475006,0.0884828269481659
1772045970841480400,1.59348046875,-0.07260719686746597,-0.06707604229450226,0.09202243387699127
1772045970851466800,1.603466796875,-0.06734791398048401,-0.07204841822385788,0.08153822273015976
1772045970861452500,1.61345263671875,-0.06225994601845741,-0.07567857205867767,0.0722523108124733
1772045970871437600,1.6234375,-0.06689483672380447,-0.0792728140950203,0.0712776705622673
1772045970881423600,1.633423583984375,-0.05923745408654213,-0.08391763269901276,0.11678869277238846
1772045970891408600,1.64340869140625,-0.06630238145589828,-0.10551336407661438,0.179997980594635
1772045970901394700,1.653394775390625,-0.06975250691175461,-0.12128034234046936,0.2441687136888504
1772045970911380500,1.66338037109375,-0.07142870128154755,-0.08978952467441559,0.2693323791027069
1772045970921365500,1.673365478515625,-0.07162124663591385,-0.08860389143228531,0.22726163268089294
1772045970931351600,1.6833515625,-0.053822487592697144,-0.09019400179386139,0.14540991187095642
1772045970941337600,1.693337646484375,-0.025749575346708298,-0.06758216768503189,0.0462321899831295
1772045970951322600,1.703322509765625,-0.009150600992143154,-0.04103027656674385,-0.03359917923808098
1772045970961308400,1.713308349609375,-0.007053095381706953,-0.026726704090833664,-0.0859643816947937
1772045970971293700,1.723293701171875,-0.007178728003054857,-0.029433822259306908,-0.10368828475475311
1772045970981279500,1.733279541015625,-0.007402167189866304,-0.03660917654633522,-0.1097903922200203
1772045970991265500,1.743265625,-0.00919350702315569,-0.038246896117925644,-0.10515691339969635
1772045971001250600,1.75325048828125,-0.009288049302995205,-0.03864637017250061,-0.10170731693506241
1772045971011236600,1.763236572265625,-0.011035008355975151,-0.03516644984483719,-0.0945473313331604
1772045971021222700,1.77322265625,-0.013869144022464752,-0.02260591648519039,-0.08287868648767471
1772045971031207700,1.783207763671875,-0.016802608966827393,-0.0013698870316147804,-0.06231232360005379
1772045971041193500,1.793193359375,-0.02251056209206581,0.010987446643412113,-0.03981287404894829
1772045971051178800,1.8031787109375,-0.031232595443725586,0.009766317903995514,-0.01612316630780697
1772045971061164500,1.81316455078125,-0.03334954380989075,0.007685323245823383,0.0007500895299017429
1772045971071150600,1.823150634765625,-0.04260842502117157,0.0018309043953195214,0.01693350076675415
1772045971081135600,1.833135498046875,-0.04738081246614456,0.0022056112065911293,0.023594066500663757
1772045971091121700,1.84312158203125,-0.05093715339899063,0.010393618606030941,0.02141047641634941
1772045971101107700,1.853107666015625,-0.05424986034631729,0.022733109071850777,0.018956905230879784
1772045971111092500,1.863092529296875,-0.047234512865543365,0.03361349552869797,0.010108393616974354
1772045971121078500,1.87307861328125,-0.0365363284945488,0.02958199940621853,-0.006500144023448229
1772045971131063800,1.883063720703125,-0.027620308101177216,0.02225741557776928,-0.02573501504957676
1772045971141049600,1.893049560546875,-0.020889433100819588,0.018482383340597153,-0.04480750858783722
1772045971151035600,1.90303564453125,-0.01565362885594368,0.010351109318435192,-0.05176270008087158
1772045971161020400,1.9130205078125,-0.011203221045434475,0.0034724301658570766,-0.048292867839336395
1772045971171006700,1.9230068359375,-0.00790884904563427,-0.007861086167395115,-0.03787054121494293
1772045971180992500,1.932992431640625,-0.006054756697267294,-0.021202990785241127,-0.022000765427947044
1772045971190977500,1.9429775390625,-0.010339138098061085,-0.032427579164505005,-0.009105638600885868
1772045971200963600,1.952963623046875,-0.011384694837033749,-0.0432882159948349,0.0007922656368464231
1772045971210948600,1.962948486328125,-0.01697659119963646,-0.054953187704086304,0.009474175050854683
1772045971220934700,1.9729345703125,-0.019732428714632988,-0.06009522080421448,0.01107793115079403
1772045971230920400,1.98292041015625,-0.025922276079654694,-0.0669076144695282,0.00005530426278710365
1772045971240905500,1.992905517578125,-0.03533735126256943,-0.08726188540458679,-0.015971332788467407
1772045971250891800,2.002891845703125,-0.03649359568953514,-0.10396908223628998,-0.029230795800685883
1772045971260877600,2.012877685546875,-0.03743262588977814,-0.11935070157051086,-0.026169225573539734
1772045971270862600,2.022862548828125,-0.03953930735588074,-0.1348665952682495,-0.009958790615200996
1772045971280848400,2.032848388671875,-0.039409611374139786,-0.13788022100925446,0.009755791164934635
1772045971290833700,2.042833740234375,-0.04416569694876671,-0.1303522139787674,0.02520158886909485
1772045971300819700,2.05281982421875,-0.04503735154867172,-0.13361617922782898,0.036373551934957504
1772045971310805500,2.062805419921875,-0.043974779546260834,-0.13308344781398773,0.030474727973341942
1772045971320790500,2.07279052734375,-0.04721398279070854,-0.12616029381752014,0.023015480488538742
1772045971330776600,2.082776611328125,-0.04509666562080383,-0.11490191519260406,0.016169551759958267
1772045971340762600,2.0927626953125,-0.04164387658238411,-0.093752421438694,0.011230452917516232
1772045971350747600,2.10274755859375,-0.03564603254199028,-0.07284477353096008,0.008790661580860615
1772045971360733400,2.1127333984375,-0.029246723279356956,-0.0596298985183239,0.0018667092081159353
1772045971370718500,2.122718505859375,-0.02054235339164734,-0.04807162284851074,-0.01331060379743576
1772045971380704800,2.132704833984375,-0.01662963628768921,-0.030206603929400444,-0.024403203278779984
1772045971390690600,2.142690673828125,-0.016453612595796585,-0.004870299249887466,-0.027141857892274857
1772045971400675600,2.152675537109375,-0.023562921211123466,0.012895382009446621,-0.027118688449263573
1772045971410661600,2.16266162109375,-0.029211439192295074,0.018086494877934456,-0.01950482279062271
1772045971420646700,2.172646728515625,-0.033967047929763794,0.005347795784473419,-0.008661762811243534
1772045971430632700,2.1826328125,-0.038472872227430344,-0.008741564117372036,0.000006749294698238373
1772045971440618500,2.192618408203125,-0.0429760105907917,-0.028141627088189125,0.010132886469364166
1772045971450603500,2.202603515625,-0.049941565841436386,-0.0367245078086853,0.02241714671254158
1772045971460589600,2.212589599609375,-0.055903319269418716,-0.016083940863609314,0.03526929393410683
1772045971470575600,2.22257568359375,-0.05625738576054573,0.001952860620804131,0.04776395857334137
1772045971480560600,2.232560546875,-0.05233508348464966,0.012564492411911488,0.05425781011581421
1772045971490546700,2.242546630859375,-0.044924091547727585,0.019465746358036995,0.04505579546093941
1772045971500531700,2.25253173828125,-0.03966141864657402,0.019145367667078972,0.03430274873971939
1772045971510517800,2.262517822265625,-0.027510270476341248,0.017861148342490196,0.023111775517463684
1772045971520503800,2.27250390625,-0.016669873148202896,0.005656413733959198,0.015622434206306934
1772045971530488800,2.28248876953125,-0.009370533749461174,-0.012389968149363995,0.014602990821003914
1772045971540474600,2.292474609375,0.000461590476334095,-0.03554508835077286,0.02812226116657257
1772045971550461000,2.3024609375,0.008687959983944893,-0.04368427395820618,0.04493366554379463
1772045971560445700,2.31244580078125,0.015302186831831932,-0.04807369410991669,0.05478469654917717
1772045971570431700,2.322431640625,0.019411399960517883,-0.05375083535909653,0.05291500687599182
1772045971580416800,2.332416748046875,0.022832229733467102,-0.05360675975680351,0.04628719761967659
1772045971590402600,2.342402587890625,0.028301440179347992,-0.04678910970687866,0.030504809692502022
1772045971600388900,2.352388916015625,0.031269535422325134,-0.04278264939785004,0.019086772575974464
1772045971610373600,2.36237353515625,0.0404791496694088,-0.03507709503173828,0.01140428427606821
1772045971620359700,2.372359619140625,0.050801560282707214,-0.03360676392912865,0.015409412793815136
1772045971630345700,2.382345703125,0.06023706495761871,-0.03950722888112068,0.027843639254570007
1772045971640330800,2.392330810546875,0.06211139261722565,-0.04242738336324692,0.04296932741999626
1772045971650316800,2.40231689453125,0.059654295444488525,-0.04368598014116287,0.049184650182724
1772045971660301600,2.412301513671875,0.06219495087862015,-0.053081613034009933,0.039287276566028595
1772045971670287600,2.42228759765625,0.06521307677030563,-0.0594748929142952,0.021215016022324562
1772045971680273700,2.432273681640625,0.0716206431388855,-0.0669863373041153,0.0011049534659832716
1772045971690258700,2.4422587890625,0.07459612190723419,-0.0825948417186737,-0.01926713064312935
1772045971700244700,2.45224462890625,0.08136268705129623,-0.085355743765831,-0.04231652244925499
1772045971710229800,2.462229736328125,0.08051459491252899,-0.09001923352479935,-0.05823669955134392
1772045971720215800,2.4722158203125,0.08307284116744995,-0.09227946400642395,-0.07515896111726761
1772045971730201600,2.48220166015625,0.08036918938159943,-0.09302834421396255,-0.082124724984169
1772045971740186600,2.4921865234375,0.07134108245372772,-0.0845954418182373,-0.07903145998716354
1772045971750172700,2.502172607421875,0.06349894404411316,-0.07265572249889374,-0.07189012318849564
1772045971760158700,2.51215869140625,0.0559195913374424,-0.05557607114315033,-0.0607016459107399
1772045971770143700,2.522143798828125,0.05119714140892029,-0.043708525598049164,-0.05015852674841881
1772045971780129800,2.5321298828125,0.050287939608097076,-0.03337758779525757,-0.03331909328699112
1772045971790114600,2.542114501953125,0.047280315309762955,-0.024084819480776787,-0.019701940938830376
1772045971800100900,2.552100830078125,0.04690241068601608,-0.020939093083143234,-0.0038968787994235754
1772045971810086700,2.562086669921875,0.04504137486219406,-0.016689924523234367,0.007618818432092667
1772045971820071700,2.57207177734375,0.041693247854709625,-0.016620682552456856,0.01528313010931015
1772045971830057700,2.5820576171875,0.040343135595321655,-0.005943740718066692,0.013514912687242031
1772045971840043800,2.592043701171875,0.03812925145030022,0.007409082725644112,0.009062374010682106
1772045971850028800,2.60202880859375,0.035764895379543304,0.016475815325975418,0.007148625794798136
1772045971860014600,2.6120146484375,0.03134671226143837,0.016078738495707512,0.002274774946272373
1772045971869999600,2.62199951171875,0.028037678450345993,0.018036631867289543,-0.004442778415977955
1772045971879986000,2.63198583984375,0.030771147459745407,0.016546593979001045,-0.007934714667499065
1772045971889971700,2.6419716796875,0.02293253317475319,0.010576082393527031,-0.011081172153353691
1772045971899956700,2.651956787109375,0.023017488420009613,0.009011475369334221,-0.017561174929142
1772045971909942500,2.661942626953125,0.02250148169696331,0.007265100255608559,-0.01604132167994976
1772045971919927800,2.671927734375,0.018360266461968422,0.00859561562538147,-0.011778665706515312
1772045971929913900,2.681913818359375,0.013441364280879498,0.02205488830804825,-0.005274850409477949
1772045971939899600,2.691899658203125,0.009098547510802746,0.031480882316827774,0.0033434047363698483
1772045971949884700,2.701884765625,0.01171101350337267,0.03984697908163071,0.00856062863022089
1772045971959870700,2.71187060546875,0.016827210783958435,0.04086856544017792,0.012327402830123901
1772045971969855700,2.721855712890625,0.020351296290755272,0.040921859443187714,0.013742801733314991
1772045971979841800,2.731841796875,0.029563171789050102,0.041359685361385345,0.01761503703892231
1772045971989827600,2.74182763671875,0.035786811262369156,0.0379917249083519,0.023977478966116905
1772045971999812600,2.7518125,0.03797886148095131,0.02645757794380188,0.031243914738297462
1772045972009798700,2.761798583984375,0.03318958356976509,0.009828818030655384,0.03398634120821953
1772045972019784700,2.77178466796875,0.023515917360782623,-0.010964078828692436,0.036184512078762054
1772045972029769700,2.781769775390625,0.014905865304172039,-0.023166561499238014,0.031817976385354996
1772045972039755800,2.791755859375,0.012072793208062649,-0.022873345762491226,0.024885766208171844
1772045972049740800,2.80174072265625,0.006166556850075722,-0.03163217008113861,0.019437965005636215
1772045972059726600,2.8117265625,0.004886375740170479,-0.034600261598825455,0.017455775290727615
1772045972069712600,2.821712646484375,0.003451133146882057,-0.04110821336507797,0.021394357085227966
1772045972079697700,2.83169775390625,0.0028657708317041397,-0.035945940762758255,0.023412765935063362
1772045972089683700,2.84168359375,-0.0006371485069394112,-0.027314886450767517,0.01883722096681595
1772045972099669800,2.851669677734375,-0.0026917774230241776,-0.01625104993581772,0.0121409697458148
1772045972109654800,2.86165478515625,-0.0030826665461063385,0.007305125705897808,-0.0005413019098341465
1772045972119640800,2.871640869140625,-0.010874010622501373,0.016267195343971252,-0.005949916318058968
1772045972129625900,2.8816259765625,-0.016702784225344658,0.016785070300102234,-0.004410297144204378
1772045972139611600,2.891611572265625,-0.019379528239369392,0.013731755316257477,0.005949399434030056
1772045972149597700,2.90159765625,-0.024185433983802795,0.0032931205350905657,0.016179315745830536
1772045972159582700,2.911582763671875,-0.02626136690378189,-0.006140062119811773,0.02504098415374756
1772045972169568800,2.92156884765625,-0.026942644268274307,-0.010127691552042961,0.030279798433184624
1772045972179553800,2.9315537109375,-0.026613477617502213,-0.010337015613913536,0.032046541571617126
1772045972189539600,2.94153955078125,-0.023849885910749435,0.008089754730463028,0.029226036742329597
1772045972199526000,2.95152587890625,-0.02357771247625351,0.01791628822684288,0.030239369720220566
1772045972209511000,2.961510986328125,-0.02422916516661644,0.014900445006787777,0.027386438101530075
1772045972219496700,2.97149658203125,-0.020941492170095444,0.012822913005948067,0.030852805823087692
1772045972229481700,2.981481689453125,-0.01639341190457344,0.01841290295124054,0.04219364747405052
1772045972239467500,2.991467529296875,-0.01651591807603836,0.02161428891122341,0.04724699631333351
1772045972249453800,3.001453857421875,-0.010275453329086304,0.023945573717355728,0.047539979219436646
1772045972259438800,3.01143896484375,-0.007673811633139849,0.02324090152978897,0.048428941518068314
1772045972269424600,3.021424560546875,-0.006668000016361475,0.020292267203330994,0.044669657945632935
1772045972279411000,3.031410888671875,-0.0054828934371471405,0.014527320861816406,0.04288613796234131
1772045972289395700,3.041395751953125,-0.006214521359652281,0.012759185396134853,0.041079189628362656
1772045972299381800,3.0513818359375,-0.010482503101229668,0.01352031622081995,0.04163898527622223
1772045972309366800,3.06136669921875,-0.011118423193693161,0.012351267039775848,0.04141383618116379
1772045972319352600,3.0713525390625,-0.010717617347836494,0.011630615219473839,0.039890509098768234
1772045972329339000,3.0813388671875,-0.005936797242611647,0.014194284565746784,0.031594451516866684
1772045972339323600,3.09132373046875,-0.005376734770834446,0.014145015738904476,0.021314384415745735
1772045972349309700,3.101309814453125,-0.0050493888556957245,0.0035174835938960314,0.01185898669064045
1772045972359294700,3.111294677734375,-0.005866712424904108,-0.006615045480430126,0.004554468207061291
1772045972369280800,3.12128076171875,-0.008901593275368214,-0.007907147519290447,0.0037368712946772575
1772045972379266800,3.131266845703125,-0.012838544324040413,-0.008239776827394962,0.002022328320890665
1772045972389251600,3.14125146484375,-0.016402408480644226,-0.009291363880038261,0.002931719645857811
1772045972399237600,3.151237548828125,-0.015122226439416409,-0.011741206049919128,0.007504367269575596
1772045972409222700,3.16122265625,-0.010540011338889599,-0.012643923051655293,0.006584432907402515
1772045972419208700,3.171208740234375,-0.015857279300689697,-0.016284730285406113,0.008864365518093109
1772045972429194800,3.18119482421875,-0.01815795712172985,-0.018768036738038063,0.008449496701359749
1772045972439179800,3.1911796875,-0.017957687377929688,-0.012561006471514702,0.010156050324440002
1772045972449165800,3.201165771484375,-0.020504934713244438,-0.002430624095723033,0.008178354240953922
1772045972459150800,3.21115087890625,-0.01672910526394844,0.003171601565554738,0.007371682673692703
1772045972469136600,3.22113671875,-0.015794934704899788,0.00969421211630106,0.003513663774356246
1772045972479122700,3.231122802734375,-0.015474822372198105,0.014574720524251461,-0.0035642192233353853
1772045972489107700,3.241107666015625,-0.012107383459806442,0.016681600362062454,-0.007187986746430397
1772045972499094300,3.25109423828125,-0.011049842461943626,0.017757249996066093,-0.010980861261487007
1772045972509079300,3.261079345703125,-0.005183984991163015,0.01480371505022049,-0.008999790996313095
1772045972519065300,3.2710654296875,-0.007847145199775696,0.012506206519901752,-0.002767994301393628
1772045972529051400,3.281051513671875,-0.007008538115769625,0.0071047949604690075,0.004129225388169289
1772045972539036200,3.2910361328125,-0.004876145161688328,-0.0019984222017228603,0.008655800484120846
1772045972549022200,3.301022216796875,-0.0005138218402862549,-0.007474264595657587,0.0086843091994524
1772045972559008300,3.31100830078125,0.0011575780808925629,-0.008417822420597076,0.013229526579380035
1772045972568993300,3.3209931640625,0.0008781878277659416,-0.004153558984398842,0.010446956381201744
1772045972578979300,3.330979248046875,-0.0022635431960225105,0.00007101366645656526,0.004655646160244942
1772045972588964000,3.340964111328125,-0.00037530064582824707,0.003403143025934696,-0.0003135770093649626
1772045972598950100,3.3509501953125,0.003281751647591591,0.0031181848607957363,-0.0004014612641185522
1772045972608936200,3.360936279296875,0.004593155346810818,0.0008922975393943489,-0.0020459946244955063
1772045972618921200,3.370921142578125,0.003203784115612507,0.0010566145647317171,0.0016797676216810942
1772045972628907300,3.3809072265625,0.008158867247402668,-0.01010026503354311,0.005823955871164799
1772045972638892300,3.390892333984375,0.006744462065398693,-0.015353617258369923,0.00985997635871172
1772045972648878300,3.40087841796875,0.005513607524335384,-0.024897504597902298,0.01350257359445095
1772045972658864400,3.410864501953125,0.0033367397263646126,-0.03013487718999386,0.014567304402589798
1772045972668849200,3.42084912109375,-0.0006430502980947495,-0.024438749998807907,0.018250636756420135
1772045972678835200,3.430835205078125,-0.00807513389736414,-0.01729561947286129,0.017514806240797043
1772045972688820500,3.440820556640625,-0.007831737399101257,-0.007057615555822849,0.015139695256948471
1772045972698806300,3.45080615234375,-0.004482279531657696,-0.0006915954290889204,0.00854837242513895
1772045972708792300,3.460792236328125,-0.007893197238445282,0.005172482691705227,0.006179483607411385
1772045972718777000,3.470777099609375,-0.005891832057386637,0.008719813078641891,0.005254034884274006
1772045972728763400,3.480763427734375,-0.004059167578816414,0.008427350781857967,0.002634588861837983
1772045972738748400,3.49074853515625,-0.002647159621119499,0.009210320189595222,-0.003411585697904229
1772045972748734200,3.500734130859375,-0.0013362495228648186,0.0013109936844557524,-0.0008619930595159531
1772045972758720300,3.51072021484375,0.0022688712924718857,-0.0019942554645240307,0.0013649424072355032
1772045972768705300,3.520705322265625,-0.000537138432264328,-0.0012006930774077773,0.007710331119596958
1772045972778691300,3.53069140625,0.0010913843289017677,0.008845815435051918,0.018561646342277527
1772045972788676400,3.54067626953125,0.000989365391433239,0.011512800119817257,0.027499137446284294
1772045972798662100,3.550662109375,-0.0011187931522727013,0.0036306423135101795,0.03800716996192932
1772045972808648400,3.5606484375,-0.007956644520163536,0.001036344445310533,0.03693290054798126
1772045972818633200,3.57063330078125,-0.007282065227627754,-0.0042284587398171425,0.03113173507153988
1772045972828619300,3.580619384765625,-0.0049524325877428055,-0.00844909530133009,0.020315447822213173
1772045972838604300,3.590604248046875,-0.005596118047833443,-0.008414207957684994,0.008940820582211018
1772045972848590300,3.60059033203125,-0.004887491464614868,-0.003939374815672636,0.003812480252236128
1772045972858576400,3.610576416015625,-0.00788141693919897,0.003510551992803812,-0.004845988936722279
1772045972868561200,3.62056103515625,-0.007584509439766407,0.002975733717903495,-0.013414671644568443
1772045972878547200,3.630547119140625,-0.01205622311681509,0.010535117238759995,-0.021074457094073296
1772045972888532200,3.6405322265625,-0.01382116787135601,0.010753142647445202,-0.02630428969860077
1772045972898518300,3.650518310546875,-0.01198252197355032,0.009047920815646648,-0.02594902738928795
1772045972908504300,3.66050439453125,-0.010769160464406013,0.003909075167030096,-0.029292525723576546
1772045972918489300,3.6704892578125,-0.008987771347165108,-0.00013147300342097878,-0.032902173697948456
1772045972928475400,3.680475341796875,-0.00950535386800766,0.0020892044994980097,-0.029255488887429237
1772045972938460400,3.69046044921875,-0.016983244568109512,0.0018260842189192772,-0.027025356888771057
1772045972948446200,3.7004462890625,-0.021304551512002945,-0.001866187434643507,-0.02612120658159256
1772045972958432300,3.710432373046875,-0.02704259753227234,-0.005552801303565502,-0.02299066074192524
1772045972968417300,3.720417236328125,-0.014126102440059185,-0.00860465969890356,-0.018512703478336334
1772045972978403300,3.7304033203125,-0.0006406540051102638,-0.007771356031298637,-0.0071948012337088585
1772045972988389400,3.740389404296875,0.008321520872414112,-0.0027939490973949432,0.0028588022105395794
1772045972998374100,3.7503740234375,0.01029785256832838,0.0073465690948069096,0.008009621873497963
1772045973008360200,3.760360107421875,0.003683461807668209,0.02092680335044861,0.012209796346724033
1772045973018345500,3.770345458984375,0.0035148849710822105,0.025257635861635208,0.011276891455054283
1772045973028331300,3.780331298828125,-0.00044398754835128784,0.023330500349402428,0.012679287232458591
1772045973038317300,3.7903173828125,-0.006474449299275875,0.01636580191552639,0.013018840923905373
1772045973048302000,3.800302001953125,-0.005720264744013548,0.008409352973103523,0.012806219980120659
1772045973058288400,3.810288330078125,-0.004646478220820427,0.0015237502520903945,0.01016516238451004
1772045973068273400,3.8202734375,-0.005190928466618061,-0.006536099128425121,0.008892045356333256
1772045973078259200,3.83025927734375,-0.0014941943809390068,-0.011809158138930798,0.0003944309428334236
1772045973088245200,3.840245361328125,0.0033905943855643272,-0.013120942749083042,-0.010680535808205605
1772045973098230300,3.850230224609375,0.007426614873111248,-0.011715060099959373,-0.019933423027396202
1772045973108216300,3.86021630859375,0.007429140619933605,-0.007170159835368395,-0.031991146504879
1772045973118201300,3.870201416015625,0.012410051189363003,0.002342385007068515,-0.037336111068725586
1772045973128187100,3.880187255859375,0.010265342891216278,0.007753861602395773,-0.04852457344532013
1772045973138173400,3.89017333984375,0.011680813506245613,0.008986106142401695,-0.05201251432299614
1772045973148158200,3.900158203125,0.01309687364846468,0.011851299554109573,-0.060360778123140335
1772045973158144300,3.910144287109375,0.019186723977327347,0.013119497336447239,-0.06450571864843369
1772045973168129300,3.92012939453125,0.01746234856545925,0.014220702461898327,-0.06636610627174377
1772045973178115300,3.930115234375,0.0167936272919178,0.01642553322017193,-0.06398283690214157
1772045973188101400,3.940101318359375,0.013332726433873177,0.013623573817312717,-0.051161546260118484
1772045973198086100,3.950086181640625,0.0068173035979270935,0.01427551545202732,-0.040811970829963684
1772045973208072200,3.960072265625,0.002774687483906746,0.008936658501625061,-0.03490031510591507
1772045973218057200,3.97005712890625,0.002775751054286957,-0.0028976297471672297,-0.0315290205180645
1772045973228043300,3.980043212890625,0.0012910617515444756,-0.012377695180475712,-0.03534123674035072
1772045973238028300,3.9900283203125,0.002839423716068268,-0.015578282065689564,-0.037325289100408554
1772045973248014300,4.000014404296875,0.0018547307699918747,-0.01918638125061989,-0.037296488881111145
1772045973258000400,4.01000048828125,0.005270235240459442,-0.02100398764014244,-0.037042953073978424
1772045973267985400,4.0199853515625,0.004047024995088577,-0.017440849915146828,-0.030972624197602272
1772045973277971200,4.02997119140625,-0.0005469284951686859,-0.0036147828213870525,-0.021676329895853996
1772045973287957200,4.039957275390625,-0.0006366586312651634,0.005992658901959658,-0.01770656555891037
1772045973297942300,4.0499423828125,-0.003941375762224197,0.008946371264755726,-0.017989393323659897
1772045973307928300,4.05992822265625,-0.0015496369451284409,0.0012926342897117138,-0.01891370303928852
1772045973317913300,4.069913330078125,0.00035265833139419556,0.0014697345905005932,-0.019052188843488693
1772045973327899100,4.079899169921875,-0.0022543231025338173,0.00030789291486144066,-0.01721518114209175
1772045973337884200,4.08988427734375,-0.003209066577255726,-0.0038708730135113,-0.01419781893491745
1772045973347870500,4.099870361328125,-0.003985803574323654,-0.011008184403181076,-0.007075292058289051
1772045973357856300,4.109856201171875,-0.004416170530021191,-0.008360469713807106,-0.002958044409751892
1772045973367841300,4.11984130859375,-0.003230063244700432,-0.010156039148569107,0.00818676222115755
1772045973377827000,4.1298271484375,0.0005654739215970039,-0.010459639132022858,0.018003972247242928
1772045973387812400,4.139812255859375,0.002258545719087124,-0.008847036398947239,0.027701999992132187
1772045973397798400,4.14979833984375,-0.002048318274319172,-0.00519717438146472,0.03200406953692436
1772045973407784200,4.1597841796875,-0.005947384517639875,0.001343699637800455,0.03956107050180435
1772045973417769200,4.169769287109375,-0.008924799039959908,0.000501075352076441,0.04831541329622269
1772045973427755300,4.17975537109375,-0.010242925956845284,0.002273010089993477,0.055381860584020615
1772045973437740300,4.189740234375,-0.01280675083398819,0.0017145450692623854,0.060321226716041565
1772045973447726300,4.199726318359375,-0.01591459847986698,-0.0009928422514349222,0.06080189719796181
1772045973457712000,4.209712158203125,-0.022379156202077866,0.001744620967656374,0.05666147917509079
1772045973467697400,4.219697509765625,-0.02895563840866089,0.011559899896383286,0.041878245770931244
1772045973477683200,4.22968310546875,-0.031149819493293762,0.017752015963196754,0.033644549548625946
1772045973487668200,4.239668212890625,-0.03280774503946304,0.019184036180377007,0.029728204011917114
1772045973497654300,4.249654296875,-0.0281035378575325,0.02114119380712509,0.030454181134700775
1772045973507640000,4.25964013671875,-0.024733711034059525,0.02429370954632759,0.03267710283398628
1772045973517625300,4.269625244140625,-0.02188625931739807,0.021987412124872208,0.03549392521381378
1772045973527611100,4.279611083984375,-0.021895501762628555,0.018747560679912567,0.04231300204992294
1772045973537596200,4.28959619140625,-0.020156193524599075,0.014706214889883995,0.04289916157722473
1772045973547582200,4.299582275390625,-0.012002229690551758,0.011686313897371292,0.045675359666347504
1772045973557568300,4.309568359375,-0.013135137967765331,0.005004975479096174,0.04109472408890724
1772045973567553300,4.31955322265625,-0.012888561002910137,0.002585503738373518,0.030710652470588684
1772045973577539300,4.329539306640625,-0.011862711049616337,-0.0006041644373908639,0.022949403151869774
1772045973587524000,4.339524169921875,-0.012643557973206043,-0.001529965433292091,0.015468830242753029
1772045973597510400,4.349510498046875,-0.015340008772909641,-0.000988811138086021,0.008572841063141823
1772045973607496200,4.35949609375,-0.011032956652343273,-0.003410841803997755,0.005604432430118322
1772045973617481200,4.369481201171875,-0.009102697484195232,-0.000659263925626874,0.005891520995646715
1772045973627467300,4.37946728515625,-0.00409876462072134,0.01156301237642765,0.014127244241535664
1772045973637452000,4.3894521484375,-0.002864123322069645,0.013437345623970032,0.02250661514699459
1772045973647438300,4.399438232421875,-0.00008259620517492294,0.011820584535598755,0.023059755563735962
1772045973657424100,4.409424072265625,0.0034647341817617416,0.010042659007012844,0.015691323205828667
1772045973667409200,4.4194091796875,0.0012733219191432,0.003142816945910454,0.0018595446599647403
1772045973677395200,4.429395263671875,-0.0022654859349131584,-0.00035844091325998306,-0.008707878179848194
1772045973687380200,4.439380126953125,-0.002726859413087368,-0.008651752024888992,-0.01419792603701353
1772045973697366300,4.4493662109375,-0.0030975714325904846,-0.01505026314407587,-0.013543588109314442
1772045973707352000,4.45935205078125,-0.00337405689060688,-0.024770162999629974,-0.013872398994863033
1772045973717337000,4.469337158203125,-0.004534661769866943,-0.0308845154941082,-0.013926460407674313
1772045973727323400,4.479323486328125,-0.0035817157477140427,-0.029440749436616898,-0.01541118323802948
1772045973737308200,4.48930810546875,-0.0049401940777897835,-0.02392134815454483,-0.02077212557196617
1772045973747294200,4.499294189453125,-0.0012938044965267181,-0.018231939524412155,-0.027402907609939575
1772045973757280000,4.509280029296875,-0.0009025856852531433,-0.012294421903789043,-0.02815312147140503
1772045973767265300,4.519265380859375,0.0020060427486896515,-0.007884562946856022,-0.02580716833472252
1772045973777251300,4.529251220703125,0.008708951994776726,-0.0002482146956026554,-0.018684010952711105
1772045973787236000,4.539236083984375,0.005814035423099995,0.01164326909929514,-0.010483106598258018
1772045973797222100,4.54922216796875,0.006543208844959736,0.016686230897903442,0.00007046828977763653
1772045973807207200,4.559207275390625,0.003526007756590843,0.015738800168037415,0.002339643193408847
1772045973817193200,4.569193115234375,-0.00010760966688394547,0.008524029515683651,0.0006104528438299894
1772045973827179300,4.57917919921875,-0.006640591658651829,-0.0016631893813610077,0.0026537086814641953
1772045973837164300,4.589164306640625,-0.0106491819024086,-0.008603920228779316,0.002732005435973406
1772045973847150300,4.599150390625,-0.01457940973341465,-0.01114184595644474,0.0036036488600075245
1772045973857135400,4.60913525390625,-0.01801462098956108,-0.00897989235818386,0.00586307467892766
1772045973867121200,4.61912109375,-0.021004190668463707,-0.013119983486831188,0.007021370343863964
1772045973877107200,4.629107177734375,-0.02018127404153347,-0.018351497128605843,0.009503968991339207
1772045973887092200,4.63909228515625,-0.01820618100464344,-0.008610663935542107,0.009906768798828125
1772045973897078300,4.649078369140625,-0.015894822776317596,-0.005834850948303938,0.00881966669112444
1772045973907063300,4.659063232421875,-0.015713630244135857,-0.0020515075884759426,0.007222164887934923
1772045973917049000,4.669049072265625,-0.015516823157668114,-0.0033937403932213783,0.00950369518250227
1772045973927035400,4.679035400390625,-0.012766413390636444,-0.0034061335027217865,0.0126796318218112
1772045973937020400,4.6890205078125,-0.014722238294780254,-0.0034356946125626564,0.014518278650939465
1772045973947006200,4.699006103515625,-0.015593865886330605,-0.004638387821614742,0.014269106090068817
1772045973956991200,4.7089912109375,-0.015519829466938972,-0.008236318826675415,0.009396053850650787
1772045973966977000,4.71897705078125,-0.014312676154077053,-0.012721861712634563,0.007268750108778477
1772045973976963300,4.72896337890625,-0.014039435423910618,-0.01766575314104557,0.008477292023599148
1772045973986948400,4.7389482421875,-0.01044854149222374,-0.021703867241740227,0.009538660757243633
1772045973996934100,4.74893408203125,-0.009926294907927513,-0.01950569450855255,0.0073924195021390915
1772045974006919200,4.758919189453125,-0.010656260885298252,-0.0201873779296875,0.006316788494586945
1772045974016905200,4.7689052734375,-0.007387763354927301,-0.01175767369568348,0.0014434698969125748
1772045974026891300,4.778891357421875,-0.00592068349942565,-0.009734449908137321,-0.0010004842188209295
1772045974036876300,4.788876220703125,-0.002652185969054699,-0.015218431130051613,-0.0038474032189697027
1772045974046862000,4.798862060546875,0.001444173976778984,-0.026896091178059578,-0.005778628401458263
1772045974056847400,4.808847412109375,0.00590257253497839,-0.03056885488331318,-0.0067655956372618675
1772045974066833200,4.818833251953125,0.010257220827043056,-0.028097212314605713,-0.016214856877923012
1772045974076818200,4.828818115234375,0.010967220179736614,-0.024273712188005447,-0.023631494492292404
1772045974086804200,4.83880419921875,0.01016516238451004,-0.020208690315485,-0.0236122515052557
1772045974096790300,4.848790283203125,0.010992340743541718,-0.01019227597862482,-0.026850655674934387
1772045974106775300,4.858775390625,0.011543987318873405,-0.005378467962145805,-0.029124848544597626
1772045974116761000,4.868760986328125,0.015590393915772438,-0.003712394740432501,-0.03485091030597687
1772045974126746000,4.87874609375,0.017181316390633583,-0.0036222771741449833,-0.036348313093185425
1772045974136732400,4.888732421875,0.019542207941412926,-0.014054943807423115,-0.032865431159734726
1772045974146718200,4.89871826171875,0.022371644154191017,-0.013442094437777996,-0.029217571020126343
1772045974156703200,4.908703125,0.020305564627051353,-0.02775898203253746,-0.02696879953145981
1772045974166689300,4.918689208984375,0.018078941851854324,-0.038852300494909286,-0.02909681759774685
1772045974176674000,4.928674072265625,0.015861593186855316,-0.03983953222632408,-0.03169233351945877
1772045974186660400,4.938660400390625,0.011302975006401539,-0.03847428411245346,-0.037563011050224304
1772045974196646100,4.948646240234375,0.008804130367934704,-0.034830015152692795,-0.03988528624176979
1772045974206631200,4.958631103515625,0.000602339394390583,-0.029677845537662506,-0.0564194954931736
1772045974216617200,4.9686171875,0.0020985035225749016,-0.03813045471906662,-0.0758986547589302
1772045974226602200,4.978602294921875,-0.00020971428602933884,-0.03577753156423569,-0.09207439422607422
1772045974236588300,4.98858837890625,-0.005479311104863882,-0.03477751463651657,-0.10206551104784012
1772045974246573300,4.9985732421875,-0.008704949170351028,-0.032693494111299515,-0.1078459843993187
1772045974256559000,5.00855908203125,-0.01009298861026764,-0.03464372828602791,-0.10856157541275024
1772045974266545400,5.01854541015625,-0.010419448837637901,-0.03360253572463989,-0.10317298024892807
1772045974276530200,5.0285302734375,-0.014291418716311455,-0.03383290022611618,-0.09993617236614227
1772045974286516200,5.03851611328125,-0.019232647493481636,-0.02660241723060608,-0.09488602727651596
1772045974296501200,5.048501220703125,-0.023501161485910416,-0.02102069929242134,-0.08461154997348785
1772045974306487300,5.0584873046875,-0.029454488307237625,-0.012682398781180382,-0.07413453608751297
1772045974316473300,5.068473388671875,-0.026615558192133904,-0.011899962089955807,-0.059002988040447235
1772045974326458000,5.0784580078125,-0.028906945139169693,-0.011423338204622269,-0.03558720648288727
1772045974336444200,5.088444091796875,-0.025374259799718857,-0.004384336993098259,-0.01074843667447567
1772045974346429200,5.09842919921875,-0.01683623716235161,-0.005599606316536665,0.010869252495467663
1772045974356415200,5.108415283203125,-0.007532218005508184,0.0035286445636302233,0.02634328417479992
1772045974366401300,5.1184013671875,-0.0029879240319132805,0.013417712412774563,0.03650141879916191
1772045974376386000,5.128385986328125,0.0025847405195236206,0.008746794424951077,0.04468051716685295
1772045974386372400,5.138372314453125,0.006483572535216808,-0.01049515139311552,0.04542764276266098
1772045974396357400,5.148357421875,0.006454543210566044,-0.044729821383953094,0.047083061188459396
1772045974406343200,5.15834326171875,0.0027685854583978653,-0.05529293417930603,0.050228483974933624
1772045974416328200,5.168328125,0.0039885807782411575,-0.06866812705993652,0.05160880088806152
1772045974426314200,5.178314208984375,0.008130435831844807,-0.07453493028879166,0.04116642475128174
1772045974436300300,5.18830029296875,0.00863696914166212,-0.08581634610891342,0.03227706253528595
1772045974446285300,5.198285400390625,0.00722188875079155,-0.10498493909835815,0.026468932628631592
1772045974456271000,5.20827099609375,0.002092640846967697,-0.11529749631881714,0.022455815225839615
1772045974466256100,5.218256103515625,0.00004117283970117569,-0.11399786174297333,0.022475961595773697
1772045974476242200,5.2282421875,0.0009642243385314941,-0.11762908101081848,0.025215288624167442
1772045974486228200,5.238228271484375,0.007354196161031723,-0.11300573498010635,0.028897561132907867
1772045974496213200,5.248213134765625,0.015057122334837914,-0.106951043009758,0.027063176035881042
1772045974506198300,5.2581982421875,0.022761952131986618,-0.09649193286895752,0.02490723878145218
1772045974516183000,5.26818310546875,0.029644891619682312,-0.1015322357416153,0.01690603792667389
1772045974526169000,5.278169189453125,0.02058027684688568,-0.06333380192518234,0.001692179823294282
1772045974536155100,5.288155029296875,0.010441889986395836,-0.05520397052168846,-0.026863832026720047
1772045974546140200,5.29814013671875,-0.006052405573427677,-0.0540170818567276,-0.05078919976949692
1772045974556126200,5.308126220703125,-0.007434852886945009,-0.06785353273153305,-0.06157393753528595
1772045974566111000,5.318111083984375,-0.0107022849842906,-0.07554323226213455,-0.06150396168231964
1772045974576097300,5.32809716796875,-0.0074411192908883095,-0.0930509865283966,-0.05746498331427574
1772045974586082300,5.338082275390625,-0.006746833212673664,-0.09823243319988251,-0.05517413094639778
1772045974596068000,5.348068115234375,-0.00475675892084837,-0.15079538524150848,-0.05348476767539978
1772045974606054100,5.35805419921875,0.0070655448362231255,-0.23460398614406586,-0.04237353056669235
1772045974616039000,5.368038818359375,0.03919519856572151,-0.2743048071861267,-0.020015200600028038
1772045974626025200,5.378025146484375,0.06929557025432587,-0.31999319791793823,0.012588550336658955
1772045974636010200,5.38801025390625,0.10852360725402832,-0.3790275454521179,0.06399130076169968
1772045974645996000,5.39799609375,0.15284819900989532,-0.38391950726509094,0.10819125175476074
1772045974655982300,5.407982421875,0.1710873246192932,-0.33601170778274536,0.13098259270191193
1772045974665967000,5.417967041015625,0.13971741497516632,-0.3357991874217987,0.1493179202079773
1772045974675953200,5.427953125,0.11267673224210739,-0.31726640462875366,0.17420902848243713
1772045974685938200,5.437938232421875,0.11157418042421341,-0.28233611583709717,0.17674222588539124
1772045974695924000,5.447924072265625,0.10351614654064178,-0.31600359082221985,0.17755573987960815
1772045974705909200,5.4579091796875,0.11873931437730789,-0.2753744125366211,0.19560371339321136
1772045974715895300,5.467895263671875,0.1271461844444275,-0.18951429426670074,0.1777821034193039
1772045974725881000,5.477881103515625,0.12333652377128601,-0.1883949637413025,0.189840629696846
1772045974735866000,5.4878662109375,0.11725771427154541,-0.13904841244220734,0.22388111054897308
1772045974745852200,5.49785205078125,0.1008225530385971,-0.061349619179964066,0.23089347779750824
1772045974755837200,5.507837158203125,0.08883921802043915,-0.08975670486688614,0.2692684233188629
1772045974765823200,5.5178232421875,0.09224008023738861,-0.038823217153549194,0.3155190050601959
1772045974775809000,5.52780908203125,0.08294028043746948,0.013538716360926628,0.34606292843818665
1772045974785794000,5.5377939453125,0.058532681316137314,0.027183154597878456,0.3499756455421448
1772045974795780000,5.547780029296875,0.03389302268624306,0.02571258507668972,0.3343718647956848
1772045974805765000,5.55776513671875,0.021247800439596176,0.03438730165362358,0.3172226846218109
1772045974815751200,5.567751220703125,0.02878960594534874,0.07032053172588348,0.2796420156955719
1772045974825736000,5.57773583984375,0.03119390830397606,0.03165969252586365,0.21120144426822662
1772045974835722200,5.58772216796875,0.05162864550948143,0.028369614854454994,0.190785214304924
1772045974845708000,5.5977080078125,0.07393261790275574,0.06693059206008911,0.16355732083320618
1772045974855693000,5.607693115234375,0.08220924437046051,0.07240123301744461,0.1182665079832077
1772045974865679000,5.61767919921875,0.061593446880578995,0.025973014533519745,0.06047112122178078
1772045974875664100,5.6276640625,0.022488104179501534,-0.03876833990216255,0.020525000989437103
1772045974885650200,5.637650146484375,0.017671510577201843,-0.046002019196748734,-0.04996195062994957
1772045974895636000,5.647635986328125,0.07786411792039871,-0.10454028099775314,-0.029178805649280548
1772045974905621000,5.65762109375,0.10287945717573166,-0.06543868035078049,-0.04338597133755684
1772045974915607300,5.667607177734375,0.1046626940369606,-0.17262275516986847,-0.031227055937051773
1772045974925592000,5.677592041015625,0.09404786676168442,-0.206487238407135,0.01596415787935257
1772045974935578000,5.687578125,0.09465671330690384,-0.17494255304336548,0.1340743899345398
1772045974945563100,5.697563232421875,0.1360667496919632,-0.04537922516465187,0.2472696602344513
1772045974955549200,5.707549072265625,0.20441293716430664,-0.018903208896517754,0.3417358994483948
1772045974965535200,5.71753515625,0.2892439365386963,0.02361442521214485,0.3803943395614624
1772045974975520300,5.727520263671875,0.3720570504665375,0.05493825674057007,0.370183527469635
1772045974985506000,5.737506103515625,0.4314838945865631,0.07528427988290787,0.31250929832458496
1772045974995492000,5.7474921875,0.45496490597724915,0.11116188019514084,0.19404757022857666
1772045975005477000,5.75747705078125,0.43108272552490234,0.1341838389635086,0.06032225862145424
1772045975015463200,5.767463134765625,0.40702491998672485,0.11082486808300018,-0.037404417991638184
1772045975025448200,5.7774482421875,0.39499250054359436,0.03474074974656105,-0.09964915364980698
1772045975035434200,5.787434326171875,0.3803666830062866,-0.08514269441366196,-0.08703476190567017
1772045975045420300,5.797420166015625,0.33294299244880676,-0.20341767370700836,-0.029368268325924873
1772045975055405000,5.807405029296875,0.2687411606311798,-0.2618185877799988,0.05247554928064346
1772045975065391000,5.81739111328125,0.20502957701683044,-0.25514498353004456,0.10714385658502579
1772045975075376000,5.827376220703125,0.17903761565685272,-0.2368590086698532,0.127485990524292
1772045975085362200,5.837362060546875,0.12553071975708008,-0.22301988303661346,0.165553480386734
1772045975095347200,5.84734716796875,0.09174715727567673,-0.20440571010112762,0.16177542507648468
1772045975105333000,5.8573330078125,0.07244350761175156,-0.17667154967784882,0.06600628048181534
1772045975115319300,5.8673193359375,0.014115480706095695,-0.24269913136959076,0.03650345653295517
1772045975125304300,5.87730419921875,-0.12091238051652908,-0.281934916973114,0.11920659244060516
1772045975135290000,5.8872900390625,-0.22952084243297577,-0.20679795742034912,0.19224508106708527
1772045975145275100,5.897275146484375,-0.2336980104446411,-0.07493499666452408,0.19916503131389618
1772045975155261000,5.907260986328125,-0.18659767508506775,0.0174589641392231,0.15755335986614227
1772045975165247200,5.917247314453125,-0.11450457572937012,0.07953298836946487,0.04313676431775093
1772045975175232300,5.927232177734375,-0.09179116785526276,0.10056757926940918,-0.15265655517578125
1772045975185218000,5.937218017578125,-0.13420787453651428,0.2005666196346283,-0.2900722324848175
1772045975195203000,5.947203125,-0.15273994207382202,0.3603518307209015,-0.2975202798843384
1772045975205189000,5.957189208984375,-0.12742818892002106,0.500295877456665,-0.1989383101463318
1772045975215174100,5.967174072265625,-0.08375506103038788,0.6374431252479553,-0.06630727648735046
1772045975225160200,5.97716015625,-0.0582670159637928,0.755305290222168,0.05028697848320007
1772045975235146000,5.98714599609375,-0.062336716800928116,0.837951123714447,0.14239802956581116
1772045975245131300,5.99713134765625,-0.06955362111330032,0.8663667440414429,0.194896399974823
1772045975255117000,6.007116943359375,-0.07402200996875763,0.8262996673583984,0.2007460594177246
1772045975265102000,6.01710205078125,-0.07374344766139984,0.735769510269165,0.17767642438411713
1772045975275088100,6.027088134765625,-0.07423067837953568,0.5946100354194641,0.1409258246421814
1772045975285074200,6.03707421875,-0.06326298415660858,0.45921117067337036,0.11083237826824188
1772045975295059200,6.04705908203125,-0.0371428020298481,0.35659515857696533,0.09734117984771729
1772045975305045200,6.057045166015625,-0.017131544649600983,0.3067871332168579,0.10057532787322998
1772045975315030000,6.067030029296875,-0.012314492836594582,0.2972224950790405,0.12246992439031601
1772045975325016000,6.07701611328125,-0.014707875438034534,0.266589492559433,0.1683197021484375
1772045975335001300,6.08700146484375,-0.023104466497898102,0.21986696124076843,0.20213820040225983
1772045975344987100,6.096987060546875,-0.032693710178136826,0.15933384001255035,0.21347394585609436
1772045975354973200,6.10697314453125,-0.03500322997570038,0.10934533923864365,0.18781940639019012
1772045975364958000,6.1169580078125,-0.02694770134985447,0.05634337663650513,0.138124018907547
1772045975374944300,6.1269443359375,-0.01065420638769865,0.018970178440213203,0.06943145394325256
1772045975384929300,6.13692919921875,0.01371584739536047,-0.009367719292640686,-0.0034193110186606646
1772045975394915000,6.1469150390625,0.0364149808883667,-0.021517755463719368,-0.06123111769556999
1772045975404900000,6.156900146484375,0.05529972165822983,-0.023793959990143776,-0.0917283147573471
1772045975414886100,6.16688623046875,0.05961047112941742,-0.03774169087409973,-0.11085934191942215
1772045975424872200,6.1768720703125,0.05810818821191788,-0.06163131073117256,-0.1114758625626564
1772045975434857200,6.186857177734375,0.04010532423853874,-0.09392590820789337,-0.10581164062023163
1772045975444843000,6.196843017578125,0.026103753596544266,-0.12127657234668732,-0.09780058264732361
1772045975454828000,6.206828125,0.01965959742665291,-0.12426717579364777,-0.08285799622535706
1772045975464814000,6.21681396484375,0.023472711443901062,-0.11485716700553894,-0.08204386383295059
1772045975474800000,6.226800048828125,0.03835345059633255,-0.10925885289907455,-0.09164924919605255
1772045975484785200,6.23678515625,0.05809066444635391,-0.09866533428430557,-0.1007082611322403
1772045975494771200,6.246771240234375,0.07021388411521912,-0.08640263229608536,-0.10719892382621765
1772045975504756700,6.2567568359375,0.07552769035100937,-0.07863658666610718,-0.11049272865056992
1772045975514742500,6.266742431640625,0.06626220047473907,-0.06759855896234512,-0.10026945173740387
1772045975524727600,6.2767275390625,0.052669428288936615,-0.05999922752380371,-0.07776360958814621
1772045975534713900,6.2867138671875,0.03307587280869484,-0.045108646154403687,-0.04794157296419144
1772045975544699600,6.29669970703125,0.009781205095350742,-0.03603978455066681,-0.017362888902425766
1772045975554684700,6.3066845703125,-0.005512228235602379,-0.023125240579247475,0.009073403663933277
1772045975564670500,6.31667041015625,-0.011826583184301853,0.0018754499033093452,0.018462378531694412
1772045975574655500,6.326655517578125,-0.015348791144788265,0.01612706296145916,0.017323676496744156
1772045975584641800,6.336641845703125,-0.016291551291942596,0.03015020303428173,0.008829258382320404
1772045975594627600,6.346627685546875,-0.011676592752337456,0.04333525523543358,-0.0024418665561825037
1772045975604612600,6.356612548828125,-0.011325587518513203,0.04807861149311066,-0.010130944661796093
1772045975614598700,6.3665986328125,-0.012902066111564636,0.038098108023405075,-0.015270104631781578
1772045975624583700,6.376583740234375,-0.017062190920114517,0.016083089634776115,-0.018640602007508278
1772045975634569700,6.38656982421875,-0.016867104917764664,0.004328138194978237,-0.020454369485378265
1772045975644554500,6.396554443359375,-0.012999928556382656,0.004865298047661781,-0.010574840940535069
1772045975654540500,6.40654052734375,-0.012006078846752644,0.013340543955564499,0.0005794516764581203
1772045975664526600,6.416526611328125,-0.01348892692476511,0.021938826888799667,0.014291535131633282
1772045975674511600,6.42651171875,-0.010408078320324421,0.02918311581015587,0.018962932750582695
1772045975684497700,6.43649755859375,-0.00820324756205082,0.033731792122125626,0.011525789275765419
1772045975694482700,6.446482666015625,-0.0028626490384340286,0.029207471758127213,0.0008745959494262934
1772045975704468700,6.45646875,0.005630970001220703,0.021866202354431152,-0.016261247918009758
1772045975714453800,6.466453857421875,0.00925367046147585,0.023229394108057022,-0.03239820525050163
1772045975724439600,6.476439453125,0.010146095417439938,0.009443274699151516,-0.04321809858083725
1772045975734425600,6.486425537109375,0.00402409490197897,-0.002258051885291934,-0.048636578023433685
1772045975744411000,6.496410888671875,-0.0008337767794728279,-0.007057334296405315,-0.04206789284944534
1772045975754396700,6.506396728515625,-0.004055497236549854,0.00030561216408386827,-0.03221605718135834
1772045975764381700,6.516381591796875,-0.006204934790730476,0.0042622704058885574,-0.022708574309945107
1772045975774367500,6.526367431640625,-0.012303685769438744,0.014125349931418896,-0.013931957073509693
1772045975784353800,6.536353759765625,-0.01770910434424877,0.019995221868157387,-0.014945822767913342
1772045975794338800,6.5463388671875,-0.021150149405002594,0.018085354939103127,-0.0158300269395113
1772045975804324600,6.55632470703125,-0.023882286623120308,0.013995272107422352,-0.017144031822681427
1772045975814309600,6.5663095703125,-0.02046811394393444,0.004290712997317314,-0.020757675170898438
1772045975824295400,6.57629541015625,-0.011012560687959194,0.0012358010280877352,-0.02601342275738716
1772045975834280700,6.58628076171875,-0.009776836261153221,0.003667703829705715,-0.027400849387049675
1772045975844266800,6.596266845703125,-0.009882830083370209,0.008265385404229164,-0.02610149420797825
1772045975854252500,6.60625244140625,-0.010243636555969715,0.015009819529950619,-0.020626861602067947
1772045975864237600,6.616237548828125,-0.014395237900316715,0.014670265838503838,-0.018011104315519333
1772045975874223600,6.6262236328125,-0.016578102484345436,0.013882472179830074,-0.01106169167906046
1772045975884208600,6.636208740234375,-0.014142375439405441,0.016737114638090134,-0.007584135979413986
1772045975894194700,6.646194580078125,-0.00991656444966793,0.017681045457720757,-0.009400944225490093
1772045975904179500,6.656179443359375,-0.0017784759402275085,0.016241339966654778,-0.009966866113245487
1772045975914165800,6.666165771484375,-0.00619976781308651,0.0129347313195467,-0.017929118126630783
1772045975924151600,6.676151611328125,-0.008371575735509396,0.01593797840178013,-0.022289246320724487
1772045975934136600,6.686136474609375,-0.008237512782216072,0.016208698973059654,-0.022395092993974686
1772045975944122600,6.69612255859375,-0.0069932835176587105,0.012483470141887665,-0.014821860939264297
1772045975954107600,6.706107666015625,-0.006321971770375967,0.017906129360198975,-0.003934846259653568
1772045975964093700,6.71609375,-0.008838925510644913,0.02286733128130436,-0.0014051098842173815
1772045975974079500,6.72607958984375,-0.007704046089202166,0.025541555136442184,0.0006062565371394157
1772045975984064500,6.736064453125,-0.005755144637078047,0.027455301955342293,-0.0030997986905276775
1772045975994050800,6.74605078125,-0.007274582050740719,0.023979390040040016,-0.009026610292494297
1772045976004035600,6.75603564453125,-0.012029123492538929,0.01719818264245987,-0.015251217409968376
1772045976014021600,6.766021728515625,-0.010175937786698341,0.0030345479026436806,-0.017475102096796036
1772045976024006700,6.776006591796875,-0.006086654029786587,-0.007169886026531458,-0.01726417988538742
1772045976033992400,6.785992431640625,-0.0007980568334460258,-0.00988074392080307,-0.014760741963982582
1772045976043978800,6.795978759765625,0.0022611161693930626,-0.009718291461467743,-0.021324370056390762
1772045976053963800,6.8059638671875,0.0029903771355748177,-0.007150603923946619,-0.021204596385359764
1772045976063949600,6.815949462890625,0.0024031493812799454,-0.003895688336342573,-0.021075699478387833
1772045976073934600,6.8259345703125,0.0022188229486346245,-0.006964071653783321,-0.017301157116889954
1772045976083920600,6.835920654296875,-0.0007058605551719666,-0.006092418916523457,-0.005845038220286369
1772045976093905700,6.84590576171875,-0.01022414118051529,-0.005378377623856068,-0.0005126306787133217
1772045976103891700,6.8558916015625,-0.009949036873877048,-0.005175444763153791,0.0024512012023478746
1772045976113877500,6.86587744140625,-0.0034683234989643097,-0.008282528258860111,-0.0029494897462427616
1772045976123862800,6.87586279296875,0.0004917969927191734,-0.008833802305161953,-0.008333602920174599
1772045976133848600,6.8858486328125,0.00031769927591085434,-0.0007403867202810943,-0.012817579321563244
1772045976143833600,6.89583349609375,0.007734336890280247,0.010595357976853848,-0.011198910884559155
1772045976153819600,6.905819580078125,0.00813132431358099,0.02760818973183632,-0.008376825600862503
1772045976163805700,6.9158056640625,0.008597376756370068,0.04296983405947685,-0.00890279933810234
1772045976173790700,6.925790771484375,0.005162856541574001,0.042325738817453384,-0.011889682151377201
1772045976183776500,6.935776611328125,0.008117101155221462,0.03568354994058609,-0.0071487221866846085
1772045976193761500,6.945761474609375,0.002718750387430191,0.025187717750668526,-0.008866154588758945
1772045976203747800,6.955747802734375,-0.0003880942240357399,0.010027939453721046,-0.0038636731915175915
1772045976213732600,6.965732666015625,-0.0024547409266233444,-0.0018285280093550682,-0.003492321353405714
1772045976223718700,6.97571875,-0.0030041513964533806,-0.014603978022933006,-0.0009141154587268829
1772045976233704400,6.985704345703125,-0.0045759305357933044,-0.03746749833226204,-0.0013699044939130545
1772045976243689500,6.995689453125,-0.010889486409723759,-0.05251488834619522,0.010153859853744507
1772045976253675800,7.00567578125,-0.014616155996918678,-0.045036427676677704,0.021467288956046104
1772045976263660500,7.01566064453125,-0.012561260722577572,-0.030219130218029022,0.02926609106361866
1772045976273646600,7.025646484375,-0.007490814197808504,-0.009855103679001331,0.023401716724038124
1772045976283631600,7.035631591796875,-0.002123478800058365,0.0002878116792999208,0.009396685287356377
1772045976293617700,7.04561767578125,0.003849085420370102,0.01196349784731865,-0.005781348794698715
1772045976303603700,7.055603759765625,0.004760950803756714,0.015914298593997955,-0.017772763967514038
1772045976313588700,7.065588623046875,0.003768143244087696,0.012332516722381115,-0.03182884678244591
1772045976323574500,7.075574462890625,0.000052500516176223755,0.006447729654610157,-0.03171299770474434
1772045976333559800,7.085559814453125,-0.0013516684994101524,0.012131781317293644,-0.016088690608739853
1772045976343545600,7.095545654296875,-0.004800994880497456,0.013026869855821133,0.00017097406089305878
1772045976353531600,7.10553173828125,-0.004164168611168861,0.01443236693739891,0.019493594765663147
1772045976363516700,7.1155166015625,-0.008088868111371994,0.010716990567743778,0.028216779232025146
1772045976373502700,7.125502685546875,-0.0067413426004350185,0.004761023446917534,0.024840794503688812
1772045976383487700,7.13548779296875,-0.01007242500782013,-0.0031203352846205235,0.012109020724892616
1772045976393473500,7.1454736328125,-0.005417847074568272,-0.009708358906209469,-0.003908294253051281
1772045976403458600,7.15545849609375,0.002463778480887413,-0.00917492713779211,-0.009188011288642883
1772045976413444900,7.16544482421875,0.007732456550002098,-0.012207595631480217,-0.009719072841107845
1772045976423430700,7.1754306640625,0.007531920447945595,-0.009458946995437145,-0.004998353309929371
1772045976433415700,7.185415771484375,0.002186189405620098,-0.0013695214875042439,-0.0015392792411148548
1772045976443401500,7.1954013671875,0.00003142561763525009,0.0038257730193436146,-0.004426678642630577
1772045976453386500,7.205386474609375,0.00020517222583293915,0.0008458400843665004,-0.002247799886390567
1772045976463372800,7.215372802734375,-0.0012566372752189636,0.00004955491749569774,-0.00020835129544138908
1772045976473357600,7.225357666015625,-0.0038244398310780525,0.0031999782659113407,0.0003467316273599863
1772045976483343600,7.235343505859375,-0.006862840615212917,0.006700171157717705,-0.0006772538181394339
1772045976493329400,7.245329345703125,0.0002540918067097664,-0.00546430516988039,-0.00012299884110689163
1772045976503314700,7.255314697265625,0.0005425121635198593,-0.009084340184926987,0.005281087476760149
1772045976513301000,7.265301025390625,-0.001324620097875595,-0.00810165237635374,0.00422822218388319
1772045976523285800,7.27528564453125,-0.005856521427631378,-0.0072726099751889706,-0.001689587952569127
1772045976533271800,7.285271728515625,-0.008681346662342548,-0.009653723798692226,-0.015535512007772923
1772045976543256800,7.2952568359375,-0.0051310863345861435,-0.01304099801927805,-0.024353235960006714
1772045976553243000,7.305242919921875,-0.006323958281427622,-0.020246442407369614,-0.02966926619410515
1772045976563229000,7.31522900390625,-0.0035068662837147713,-0.02287817932665348,-0.023384205996990204
1772045976573213700,7.325213623046875,-0.00443258136510849,-0.027004480361938477,-0.011667360551655293
1772045976583199700,7.33519970703125,-0.0014125565066933632,-0.03519423305988312,0.00018264050595462322
1772045976593185000,7.34518505859375,-0.0005637155845761299,-0.03226771205663681,0.0060219536535441875
1772045976603170800,7.3551708984375,-0.004019433632493019,-0.023450251668691635,0.008075250312685966
1772045976613155800,7.36515576171875,-0.007676349021494389,-0.018814990296959877,0.008173362351953983
1772045976623142000,7.375141845703125,-0.01011713594198227,-0.016846913844347,0.0017287788214161992
1772045976633128000,7.3851279296875,-0.01076122559607029,-0.0189665537327528,-0.003167017363011837
1772045976643113000,7.395113037109375,-0.010020067915320396,-0.019855517894029617,-0.00721448939293623
1772045976653098800,7.4050986328125,-0.007726678624749184,-0.02240580879151821,-0.010577223263680935
1772045976663083800,7.415083740234375,-0.006066730711609125,-0.015855232253670692,-0.014014299027621746
1772045976673070000,7.425070068359375,-0.006420810241252184,-0.014563738368451595,-0.017814069986343384
1772045976683054800,7.435054931640625,-0.005182174034416676,-0.012140793725848198,-0.01737864315509796
1772045976693041000,7.445041015625,-0.010007626377046108,-0.016259973868727684,-0.012444325722754002
1772045976703026700,7.455026611328125,-0.015365639701485634,-0.016979293897747993,-0.004949391819536686
1772045976713011700,7.46501171875,-0.017265113070607185,-0.012193203903734684,0.0019946538377553225
1772045976722998000,7.474998046875,-0.01295878179371357,-0.006572335958480835,0.004793902393430471
1772045976732982800,7.484982666015625,-0.00942318607121706,-0.005679896101355553,-0.0009943563491106033
1772045976742968800,7.49496875,-0.009595759212970734,0.0019399408483877778,-0.009299424476921558
1772045976752953900,7.504953857421875,-0.010424606502056122,0.0003590189735405147,-0.01911821961402893
1772045976762940000,7.51493994140625,-0.004323837347328663,0.003251478308811784,-0.02608824521303177
1772045976772926000,7.524926025390625,-0.0033616824075579643,-0.005715707316994667,-0.03256269544363022
1772045976782910700,7.53491064453125,-0.007488250266760588,-0.01686156913638115,-0.041272033005952835
1772045976792896800,7.544896728515625,-0.012866318225860596,-0.02848924696445465,-0.04019172489643097
1772045976802882000,7.554882080078125,-0.01686984859406948,-0.04068945348262787,-0.03339959681034088
1772045976812867800,7.564867919921875,-0.026403460651636124,-0.03828578069806099,-0.019788723438978195
1772045976822854000,7.57485400390625,-0.03764466196298599,-0.026816077530384064,-0.005178090184926987
1772045976832838700,7.584838623046875,-0.04132792353630066,-0.011530742049217224,0.004026979673653841
1772045976842825000,7.594824951171875,-0.04440414160490036,-0.004400927573442459,0.004283708520233631
1772045976852810000,7.60481005859375,-0.04116801172494888,0.01158775296062231,0.0031281898263841867
1772045976862795800,7.614795654296875,-0.03067622520029545,0.030857853591442108,0.002970797009766102
1772045976872780800,7.62478076171875,-0.018261710181832314,0.0775192379951477,0.0004203510470688343
1772045976882766800,7.634766845703125,-0.005526740103960037,0.11268308013677597,-0.012614491395652294
1772045976892753000,7.6447529296875,-0.0053116390481591225,0.1344461739063263,0.031223352998495102
1772045976902738000,7.654738037109375,-0.016920890659093857,0.058938104659318924,0.05082102492451668
1772045976912723700,7.6647236328125,-0.0105466078966856,-0.009061533026397228,0.06136201322078705
1772045976922708700,7.674708740234375,-0.007625652477145195,-0.033272597938776016,0.055807456374168396
1772045976932694800,7.68469482421875,0.0042039779946208,-0.018210526555776596,0.04245634004473686
1772045976942679800,7.6946796875,0.013682433404028416,-0.001684813410975039,0.005025346297770739
1772045976952665900,7.704665771484375,0.011977801099419594,0.0026595008093863726,-0.047840092331171036
1772045976962651600,7.714651611328125,0.008911438286304474,-0.015094461850821972,-0.08833612501621246
1772045976972637000,7.724636962890625,0.01178172416985035,-0.042047642171382904,-0.10731375217437744
1772045976982623000,7.734623046875,0.017394069582223892,-0.052468594163656235,-0.09120641648769379
1772045976992607700,7.744607666015625,0.01383549626916647,-0.04930627718567848,-0.03655783459544182
1772045977002593800,7.75459375,0.00673684012144804,-0.0556107759475708,0.017253996804356575
1772045977012579000,7.7645791015625,0.023459039628505707,-0.0503661148250103,0.04441353678703308
1772045977022564900,7.77456494140625,0.0392284132540226,-0.026155315339565277,0.04268674552440643
