time,seconds_elapsed,z,y,x
1772031856884334600,0.08433447265625,0.27460370759963987,-0.3821025438100099,-0.0026747721672058106
1772031856894283500,0.094283447265625,0.15395254434943198,-0.43840866066068407,-0.08350625846534968
1772031856904232400,0.104232421875,0.15584931788146494,-0.3908621888488531,-0.06237345406562089
1772031856914181400,0.114181396484375,0.24345745870769023,-0.39437838027626276,-0.06743607121743261
1772031856924130600,0.124130615234375,0.39949791524708267,-0.4777069440871477,-0.1073775479182601
1772031856934079500,0.13407958984375,0.5702332520931959,-0.5961839781686663,-0.14920410771332682
1772031856944028700,0.144028564453125,0.6801976016342639,-0.7224874680921435,-0.19183635786809025
1772031856953977600,0.1539775390625,0.7858551938921212,-0.7847142071634531,-0.2366194293811917
1772031856963926500,0.163926513671875,0.8840577939689159,-0.8351979014709592,-0.2828400594167411
1772031856973875500,0.17387548828125,0.8605617675691842,-0.9357876889452338,-0.3529520718451589
1772031856983823600,0.18382373046875,0.7364893976986407,-1.099243682438135,-0.4068704898416996
1772031856993772500,0.1937724609375,0.5438859279155731,-1.1989578561216592,-0.40157698654346163
1772031857003721500,0.203721435546875,0.29380992785096166,-1.2106412796527146,-0.3108982061002403
1772031857013670400,0.21367041015625,0.03241290782690048,-1.115620232221484,-0.22949074654504656
1772031857023619300,0.223619384765625,-0.14425123454630373,-0.9264821004614233,-0.15325236019082367
1772031857033568500,0.233568603515625,-0.18392098163366316,-0.683806147520244,-0.09402217258699237
1772031857043517700,0.243517578125,-0.16713935818076134,-0.4801996376857161,-0.11337145457081496
1772031857053466600,0.253466552734375,-0.2247317154496908,-0.2736263870000839,-0.09116174165457487
1772031857063415600,0.26341552734375,-0.3019651772558689,-0.07906359984278678,-0.04030892177373171
1772031857073364500,0.273364501953125,-0.48389527733325954,0.021181611977517605,-0.11160042631030082
1772031857083313400,0.2833134765625,-0.7292968558460473,-0.030992811895906924,-0.3311386647701263
1772031857093262300,0.293262451171875,-0.8102543066114187,-0.20351620120257138,-0.7252266837976873
1772031857103211500,0.30321142578125,-0.738210230141878,-0.45106355957239863,-1.2174562934298068
1772031857113160700,0.31316064453125,-0.7593634928077458,-0.7236550505667925,-1.5748822958186268
1772031857123109600,0.323109619140625,-0.8019318839460611,-0.8818041698232293,-1.7566550133772194
1772031857133058600,0.33305859375,-0.6886772606879472,-0.9514759642034768,-1.8227613703608512
1772031857143007500,0.343007568359375,-0.34172844784557815,-0.916148630234599,-1.5816588042162358
1772031857152956400,0.352956298828125,0.09905483299195766,-0.7009466674134135,-0.737044328167662
1772031857162905300,0.3629052734375,0.25509412048757074,-0.6757189949154854,0.11301759963184595
1772031857172853500,0.372853515625,-0.13661211796998976,-0.9866095291659235,0.5435846799466759
1772031857182802400,0.382802490234375,-1.1433464435368776,-1.3553589626669882,0.8168814696662128
1772031857192751400,0.39275146484375,-2.367265137913823,-1.3096800382927059,1.1836818149261177
1772031857202700500,0.402700439453125,-3.339660556027293,-0.7367474641129375,1.5923670991048215
1772031857212649500,0.4126494140625,-3.951964771130681,0.03317103271782398,1.8922227368608115
1772031857222598000,0.422597900390625,-4.1617385714232915,0.7866027973890304,1.9890204385757446
1772031857232546800,0.432546875,-3.9513428398400543,1.4499334353744984,1.9601888963669538
1772031857242495700,0.442495849609375,-3.3884710564255713,1.9211051324740052,1.8620082158610223
1772031857252444700,0.452444580078125,-2.544419694152474,2.01903739117682,1.5860037015527486
1772031857262393600,0.4623935546875,-1.6179706191778183,1.838679654982686,1.217232786872238
1772031857272343000,0.472343017578125,-0.7254360887646675,1.5401222403436898,0.9076016050331294
1772031857282292000,0.4822919921875,0.08296469893455505,1.2619552873045206,0.7649995989985764
1772031857292241000,0.492240966796875,0.6928770504653453,1.0487214096859097,0.8516266198329627
1772031857302189800,0.50218994140625,1.1655518456041811,0.8746779712051153,0.9026366030368953
1772031857312138800,0.512138671875,1.5206184984505176,0.6630877691403031,0.8735922217950224
1772031857322087700,0.522087646484375,1.7446476185888051,0.43566140777915713,0.8435664283003658
1772031857332036600,0.53203662109375,1.8638935912162065,0.26954145577400923,0.8678117386974393
1772031857341985800,0.54198583984375,1.9088339721828698,0.19074381339102983,0.9103321259755641
1772031857351935000,0.55193505859375,1.84400581844151,0.1864846946418285,0.884298032465577
1772031857361882600,0.561882568359375,1.7043109320253134,0.23664923999756574,0.8501373311232775
1772031857371831800,0.571831787109375,1.5614748249739407,0.2909808419048786,0.837454375160858
1772031857381780700,0.58178076171875,1.4600450795441866,0.2600391756743193,0.7831468847814947
1772031857391730000,0.59172998046875,1.3535557126373052,0.1543771995022893,0.7483706088241189
1772031857401678800,0.601678955078125,1.192768353831768,-0.07886661596596241,0.7123189061034471
1772031857411627800,0.611627685546875,1.1278946073830127,-0.27065087832063434,0.7481018018200993
1772031857421576700,0.62157666015625,1.1151251421809196,-0.1874985478594899,0.8297267035182565
1772031857431525600,0.631525634765625,1.071952939930558,-0.058987611019611356,0.8927998302858322
1772031857441474800,0.641474853515625,1.0616700308471918,0.07475538125485182,0.8273843781758099
1772031857451424000,0.651424072265625,1.05479137724936,0.08498656015098094,0.7434022458270192
1772031857461373000,0.661373046875,1.0967004276961088,-0.12273819865733385,0.6888368351638317
1772031857471321900,0.67132177734375,1.2322867097496986,-0.4818772155091166,0.5785578667156398
1772031857481270800,0.681270751953125,1.4209493329524994,-0.7236141340345144,0.42427477523759005
1772031857491219700,0.6912197265625,1.5384990230560303,-0.7944803988963365,0.2924424388900399
1772031857501168600,0.701168701171875,1.4611732067912817,-0.730768974225223,0.14892273348867893
1772031857511117800,0.711117919921875,1.2807336375325917,-0.4919578800186515,0.023089345294982192
1772031857521067000,0.72106689453125,1.0523638578414916,-0.3086108988806605,-0.032312077800929546
1772031857531016000,0.731015869140625,0.8505278648108243,-0.2132835619792342,-0.006098024614155292
1772031857540964900,0.74096484375,0.7378595170080662,-0.11533376761972904,-0.009499942012131214
1772031857550912800,0.750912841796875,0.7749953617036343,0.008600655084848403,-0.06290361541956663
1772031857560862000,0.760862060546875,0.8523585873693227,0.07787468231916427,-0.19552286436110733
1772031857570811000,0.770810791015625,0.8774772465348243,0.043105566754937166,-0.31644948355183006
1772031857580759800,0.780759765625,0.8295026124387979,-0.030327333724498747,-0.44295346448346967
1772031857590708700,0.790708740234375,0.8424287295073271,-0.03288403246998787,-0.5120017201378941
1772031857600657700,0.80065771484375,0.8840876045852899,0.06755056444257497,-0.5180820629648863
1772031857610606800,0.81060693359375,0.8786918830215931,0.175004684728384,-0.46557358483150596
1772031857620555800,0.8205556640625,0.7214537411302328,0.1397717510446906,-0.3772551037788391
1772031857630505000,0.8305048828125,0.5686041895866394,0.0075064301073551176,-0.3187539611019194
1772031857640454000,0.840453857421875,0.5820546227902174,-0.16144582271426916,-0.3683049046039581
1772031857650402800,0.85040283203125,0.6783575267255306,-0.29753362454921006,-0.4820945115216076
1772031857660351700,0.860351806640625,0.7082014608472585,-0.41773850533664225,-0.613872195072472
1772031857670300700,0.87030078125,0.5850257475554943,-0.47997342771440743,-0.6017801907405257
1772031857680249600,0.88024951171875,0.325620778131485,-0.5034013573139906,-0.45098961755335326
1772031857690198800,0.89019873046875,0.10489537571370601,-0.48838177509754893,-0.30135172153264284
1772031857700148000,0.90014794921875,-0.05982873801887035,-0.4926411861076951,-0.2533536334957927
1772031857710097000,0.910096923828125,-0.29386896456182,-0.5676341755107045,-0.35663149101026353
1772031857720045800,0.9200458984375,-0.5414899726897477,-0.6168427353158593,-0.5317985997587442
1772031857729994800,0.929994873046875,-0.8542115217596292,-0.6522144929483532,-0.6752345723994075
1772031857739943700,0.939943603515625,-1.140238540649414,-0.7431380419328808,-0.7850723729513586
1772031857749891800,0.949891845703125,-1.1616846487820147,-0.7915355776160955,-0.8595042213402688
1772031857759840800,0.9598408203125,-1.0535668038904666,-0.9450751572504639,-0.8736816536441445
1772031857769789700,0.969789794921875,-0.9827186592072248,-1.1585352448403834,-0.8823447064407169
1772031857779739000,0.97973876953125,-0.9028735535979271,-1.2296128143653273,-0.9614343175075948
1772031857789687800,0.989687744140625,-0.9409586618423461,-1.085635136063397,-0.9676717505924403
1772031857799636700,0.99963671875,-1.3875953448832035,-0.8650985342159867,-0.7706687306761741
1772031857809586000,1.0095859375,-2.261628003922105,-0.6225251648664474,-0.346721433827281
1772031857819534800,1.019534912109375,-3.2499615804016586,-0.25024288106411696,0.23883403669074177
1772031857829483800,1.02948388671875,-4.133909484255313,0.3038789019227028,0.656556248479709
1772031857839432700,1.0394326171875,-4.782071779203415,0.9113175568163394,0.8365170212455093
1772031857849381600,1.049381591796875,-4.803443068534135,1.3589628323778509,0.7979729171872139
1772031857859330800,1.059330810546875,-3.846610545733571,1.4941647912889717,0.4093922634042799
1772031857869279700,1.06927978515625,-2.6675486456930635,1.288426237861812,-0.4017243591248989
1772031857879229000,1.07922900390625,-1.778909953674674,1.1123615226864814,-0.8883693735577165
1772031857889177900,1.089177734375,-1.0443079771578312,1.100428216047585,-0.805493229689449
1772031857899126800,1.099126708984375,-0.49319443607628344,1.1119298532709478,-0.5945676290132105
1772031857909075700,1.10907568359375,-0.17152677948474884,0.9849617619588971,-0.4051933504097163
1772031857919024600,1.119024658203125,0.0793856714040041,0.8139806336581706,-0.30780367415100335
1772031857928973800,1.128973876953125,0.22503858944177627,0.7104483629912137,-0.2954761074975133
1772031857938923000,1.138923095703125,0.49938160027861594,0.5292284570097923,-0.36580563513413067
1772031857948872000,1.148871826171875,0.7466296834409236,0.4682119705110788,-0.4987063313655555
1772031857958819800,1.15881982421875,0.7362076581478119,0.5822559905812144,-0.5072068870767951
1772031857968768800,1.168768798828125,0.5064969852417707,0.8015376239314674,-0.2974592441387474
1772031857978717700,1.1787177734375,0.22257190706729887,0.9641972063496709,-0.030373364823311565
1772031857988667000,1.1886669921875,0.017059855872392653,1.0989321322709322,0.1841803632222116
1772031857998615800,1.19861572265625,-0.09232172534465789,1.2305921807914972,0.318593363712728
1772031858008564700,1.208564697265625,-0.15974457175433635,1.3132184415519237,0.3861361832402646
1772031858018514000,1.218513916015625,-0.16271160486638545,1.3369827634990215,0.4378445970371365
1772031858028462800,1.228462890625,-0.05575578949153423,1.3250506259039043,0.43991775004938244
1772031858038411800,1.238411865234375,0.1786871726334095,1.3232859543189406,0.3928720673665404
1772031858048360700,1.248360595703125,0.507139959320426,1.360875972522795,0.3347483796998858
1772031858058310000,1.258309814453125,0.8994827421158552,1.387692960038781,0.26941139965355393
1772031858068258800,1.2682587890625,1.2783306680440902,1.3146879295825957,0.17058642989471554
1772031858078207700,1.278207763671875,1.6132032586455345,1.1501233903259038,0.06629004298746585
1772031858088156700,1.28815673828125,1.8983160852998493,0.9438125899687408,-0.029047961438447234
1772031858098105900,1.29810595703125,2.2333377289831637,0.7676110966712236,-0.09517024664357304
1772031858108054800,1.3080546875,2.4790637171447276,0.569680878907442,-0.18420184440165757
1772031858118004000,1.31800390625,2.5472172159165143,0.2758423094838858,-0.21551775077208876
1772031858127953000,1.327952880859375,2.502534609103203,0.03150251498371363,-0.18811565684452652
1772031858137901800,1.33790185546875,2.301855969414115,-0.09769844994693994,-0.1601687885157764
1772031858147850800,1.347850830078125,1.9802619625806808,-0.21254794118106363,-0.11282309997305273
1772031858157798700,1.357798583984375,1.5920570102423428,-0.3229793237119913,0.004216156390309334
1772031858167747800,1.367747802734375,1.2060849315226077,-0.38233956743627784,0.14514248429760335
1772031858177696800,1.37769677734375,0.9532634321421384,-0.36380379379242656,0.24708295572847128
1772031858187646000,1.38764599609375,0.759366999939084,-0.3487608307003975,0.2855097170174122
1772031858197595000,1.397594970703125,0.5248953962415457,-0.34307577080130575,0.2489829441308975
1772031858207543800,1.407543701171875,0.3064256637960672,-0.31144641456753014,0.22371932353675364
1772031858217493200,1.4174931640625,0.1602700569331646,-0.25527619905620813,0.18970891738533974
1772031858227442200,1.427442138671875,0.035576340293884276,-0.22267565970271824,0.17621026112586258
1772031858237391400,1.437391357421875,-0.04611819257438182,-0.19032763380557297,0.1738387096889317
1772031858247340300,1.44734033203125,-0.07071721177995205,-0.1652604125663638,0.18610183280408382
1772031858257289200,1.457289306640625,-0.037436288946866986,-0.12872574863433836,0.19347228850685058
1772031858267238100,1.467238037109375,-0.02722410701215267,-0.0896457841336727,0.1608075248107314
1772031858277187000,1.47718701171875,0.026637831556797026,-0.0534521887242794,0.19778657150939105
1772031858287136000,1.487135986328125,0.1925467711597681,-0.01656505809277296,0.27981048246249557
1772031858297085200,1.497085205078125,0.46570963230133056,-0.03831979378312826,0.31579708405770357
1772031858307034400,1.507034423828125,0.8004583042621612,-0.13672405391186476,0.2641588859528303
1772031858316983300,1.5169833984375,1.1132815601408481,-0.19949848999381065,0.22080782000422478
1772031858326932200,1.52693212890625,1.3680986172527074,-0.16673165416270494,0.18548282412290573
1772031858336881200,1.536881103515625,1.5203917039573192,-0.20170330656170843,0.14293284542411566
1772031858346830000,1.546830078125,1.6056903987973927,-0.3158715375334024,0.10698562599122524
1772031858356779000,1.556779052734375,1.6123445959895848,-0.4869003043681383,0.08754866572394966
1772031858366728200,1.566728271484375,1.5225883372187614,-0.7174041734784841,0.13796572453603148
1772031858376676000,1.576676025390625,1.3696645513951777,-0.879398862247169,0.18601342386826872
1772031858386625300,1.586625244140625,1.154742866820097,-0.9674766664117574,0.17474983318448065
1772031858396574200,1.59657421875,0.9372574692368507,-0.9955556366875767,0.06781710642427205
1772031858406523100,1.606523193359375,0.7010872449278831,-1.0417819658115506,-0.190405959738791
1772031858416472300,1.616472412109375,0.48562955377995964,-1.2223562673658133,-0.6089896837279201
1772031858426421200,1.626421142578125,0.2973158901453018,-1.5033286332145332,-0.9785760064445436
1772031858436370200,1.6363701171875,0.048808746832609176,-1.829376989108324,-1.2855733326487242
1772031858446319000,1.646319091796875,-0.23025661635100841,-2.1234914528638122,-1.505389949658513
1772031858456268000,1.65626806640625,-0.4874930095642805,-2.3412249799892306,-1.551187678106874
1772031858466217200,1.66621728515625,-0.7316723528057336,-2.3836507477864624,-1.2345695599898696
1772031858476166100,1.676166259765625,-1.2095499772846698,-2.186800141952932,-0.7985450179867446
1772031858486115300,1.686115234375,-2.0939619915187357,-1.8629194854870437,-0.3936172597106546
1772031858496064300,1.696064208984375,-3.3134733908474443,-1.3978095726445317,0.08886296319290996
1772031858506013200,1.70601318359375,-4.614600412589311,-0.689485362200439,0.7141310700919479
1772031858515962000,1.715962158203125,-5.557236652255058,0.10495558146834373,1.2706782535947858
1772031858525911000,1.7259111328125,-5.869324579596519,0.8861094658017158,1.5141400962166487
1772031858535860000,1.73585986328125,-5.720260976332426,1.6414211990006267,1.5600006607681511
1772031858545809200,1.74580908203125,-5.35060874877274,2.244807948154956,1.481831379416585
1772031858555758300,1.75575830078125,-4.786266308283806,2.632186824932694,1.2710191759869456
1772031858565707300,1.765707275390625,-3.9298786115288733,2.849301927898824,0.8557209764745086
1772031858575656200,1.77565625,-2.7549422669857737,2.8142595483511683,0.22451127763204276
1772031858585604000,1.78560400390625,-1.5151128867715595,2.6258546993017196,-0.4008938996501267
1772031858595553300,1.79555322265625,-0.3765788119524717,2.4559879619836806,-0.7433173440225422
1772031858605502200,1.805502197265625,0.6661795976758003,2.2619003911226985,-0.7803019436791538
1772031858615451100,1.815451171875,1.5562328326672314,1.9991177619591354,-0.7142937133077532
1772031858625400000,1.825400146484375,2.269257183626294,1.631829925443232,-0.6213561941523105
1772031858635349200,1.835349365234375,2.823036729046702,1.2073559743717313,-0.4776478343110531
1772031858645298200,1.845298095703125,3.1245225983530283,0.7589414680033921,-0.2595140558216721
1772031858655247000,1.8552470703125,3.1647739447206256,0.2990121726691723,0.058477396475151176
1772031858665196300,1.8651962890625,2.992799421468377,-0.06882306859642266,0.437756041970849
1772031858675145200,1.875145263671875,2.702779533550143,-0.30496640489846466,0.7839438073128462
1772031858685094100,1.88509423828125,2.3106600381165743,-0.3891244052708149,1.0831001376930625
1772031858695043000,1.89504296875,1.9367711959004401,-0.30414807425290347,1.2851032309189439
1772031858704992300,1.9049921875,1.5439806693375109,-0.13534458225220442,1.297068686261773
1772031858714941200,1.914941162109375,1.1957160977214574,0.05205021297186613,1.1936341768808663
1772031858724890000,1.92489013671875,1.0271253716886044,0.36481560118347406,1.0297682874128222
1772031858734839300,1.93483935546875,0.9879916311740875,0.6926826969370246,0.811048744924739
1772031858744788200,1.944788330078125,1.0263953038483857,0.9577212883338332,0.5675856601938605
1772031858754737200,1.954737060546875,1.2479846296191215,1.2040431965619325,0.3257650089077651
1772031858764686000,1.96468603515625,1.6083891363620757,1.365693309676647,0.11744929846897721
1772031858774635000,1.974635009765625,1.9565192679435013,1.359753398233652,-0.07529036491438747
1772031858784584200,1.984584228515625,2.211220005199313,1.225546003317833,-0.2523049281604588
1772031858794533400,1.994533447265625,2.3911475332826373,1.0408894008859992,-0.32932007104083894
1772031858804481300,2.004481201171875,2.5070354276537894,0.8753490023344754,-0.2960265079218894
1772031858814430200,2.01443017578125,2.5986235780268907,0.7194368483498692,-0.2379667523369193
1772031858824379100,2.024379150390625,2.6467852591276166,0.5402446488037705,-0.21977321625947951
1772031858834328000,2.034328125,2.5935832457721233,0.37451106576770543,-0.2224741457812488
1772031858844277200,2.04427734375,2.4854502033114434,0.26692659710049627,-0.1923293290168047
1772031858854226200,2.05422607421875,2.3120208050757647,0.2033867296040058,-0.16761325930282472
1772031858864175000,2.064175048828125,2.1064538088232276,0.16632643436267971,-0.15045286566540597
1772031858874124300,2.074124267578125,1.8266852658063173,0.16687018585056065,-0.1521022403076291
1772031858884073200,2.0840732421875,1.473100960472226,0.17192177015170454,-0.13384163034334778
1772031858894022100,2.094022216796875,0.9775275203049182,0.12245938171595334,-0.11909005141332744
1772031858903971000,2.10397119140625,0.32442893799841405,0.005153729501366615,-0.002418020927160978
1772031858913920300,2.113920166015625,-0.42067806591987605,-0.1825743893302977,0.2254575455062091
1772031858923869200,2.123869140625,-1.1604244195878506,-0.3911500658795237,0.5932672870043665
1772031858933818000,2.133818115234375,-1.7536995245724916,-0.5830350121296942,1.002692722025886
1772031858943767000,2.14376708984375,-2.176719185182452,-0.8223395889416336,1.3971324040353297
1772031858953716200,2.15371630859375,-2.3744635249853134,-1.0999548994474113,1.6899015906617045
1772031858963665200,2.1636650390625,-2.3934055413424966,-1.3835009151764213,1.8573992607608436
1772031858973614300,2.1736142578125,-2.2174890024662015,-1.588766736525297,1.8439292460739611
1772031858983563300,2.183563232421875,-1.8333295261263847,-1.6784494916684924,1.6504273661464453
1772031858993512200,2.19351220703125,-1.3550567648500202,-1.6756654139079152,1.3084946279004215
1772031859003461000,2.203461181640625,-0.9051181176543235,-1.5506168924815953,0.8655600873131305
1772031859013410000,2.21341015625,-0.484593780991435,-1.4430527359500527,0.36485396043248475
1772031859023359000,2.22335888671875,-0.19077566983401775,-1.360693601693213,-0.07716565726697444
1772031859033307100,2.23330712890625,0.0025438392639160153,-1.2668467126078904,-0.34899968095757067
1772031859043256300,2.24325634765625,0.05793956327140331,-1.16570323677361,-0.46973976460024713
1772031859053205200,2.253205322265625,-0.01812310118973255,-1.1891146536298096,-0.5794896676730364
1772031859063154200,2.263154296875,-0.24109599027335643,-1.397255884284526,-0.7640927863519639
1772031859073103000,2.27310302734375,-0.2902016742259264,-1.6123153698951005,-0.974256828071177
1772031859083052000,2.283052001953125,-0.3595879296630621,-1.846046092097461,-1.1013008341636508
1772031859093001200,2.293001220703125,-0.46152562461495394,-2.064596050172299,-1.079692886532843
1772031859102950100,2.3029501953125,-0.7054091997802258,-2.1486733865238725,-1.0289150315843523
1772031859112899000,2.312899169921875,-1.1410206309378146,-2.164897960615903,-1.1051491070896386
1772031859122848300,2.32284814453125,-1.8908377122431992,-2.104370718938857,-1.3099118012219666
1772031859132797200,2.332797119140625,-2.808932215848565,-1.6681522617988287,-1.393544754806906
1772031859142746000,2.34274609375,-3.8039883785814044,-1.0115516627207397,-1.3406100140854715
1772031859152695300,2.3526953125,-4.759049215534329,-0.3279148804180324,-1.1188353948757053
1772031859162644200,2.362644287109375,-5.310573675504327,0.5100172683224081,-0.7421842483393848
1772031859172593200,2.37259326171875,-5.441348173362016,1.199713642925024,-0.4459928321793675
1772031859182542000,2.3825419921875,-5.211469742673636,1.560263257227093,-0.3298835501424968
1772031859192491300,2.3924912109375,-4.618688558685779,1.6460783771567045,-0.35075638843178747
1772031859202440200,2.402440185546875,-3.7585494004428384,1.6048291057929396,-0.4243102118771523
1772031859212389000,2.41238916015625,-2.747086877310276,1.4782535209298133,-0.4661931049693376
1772031859222338000,2.422338134765625,-1.6985779413312672,1.2672408264920114,-0.5037988321989775
1772031859232287000,2.432286865234375,-0.7724269725203514,1.0709954930752514,-0.5496957467054948
1772031859242236000,2.44223583984375,0.07958908502161502,0.9600205051869154,-0.6044600774742662
1772031859252184800,2.452184814453125,0.7831617170244455,0.881832519134879,-0.661799190634489
1772031859262133000,2.462133056640625,1.3369640587985514,0.8003945913761854,-0.7214424890838563
1772031859272082000,2.47208203125,1.7293945198774336,0.7359259185969829,-0.7828894028890877
1772031859282030800,2.48203076171875,1.9147487491846082,0.6687018096297979,-0.8343528289489448
1772031859291980000,2.49197998046875,1.9003765249609945,0.6339017144054174,-0.852341343973577
1772031859301929000,2.501928955078125,1.7346739215850828,0.6617965602859854,-0.8111991131808608
1772031859311878000,2.5118779296875,1.4359452420324086,0.7716448822319507,-0.674258420843631
1772031859321826800,2.521826904296875,1.0996218681007623,0.8877472961366176,-0.5174393446145579
1772031859331776000,2.53177587890625,0.7288432668596506,1.034693761116266,-0.42003874510303135
1772031859341725000,2.541724853515625,0.3530477142393589,1.2021630819037556,-0.3605830416476354
1772031859351673900,2.551673828125,-0.0022118308305740355,1.3609516681075096,-0.2874992468668148
1772031859361622800,2.561622802734375,-0.3088461689412594,1.5146528680443763,-0.16374113057721404
1772031859371572000,2.571572021484375,-0.5049012404829264,1.637432275494933,-0.01256205126279965
1772031859381521000,2.58152099609375,-0.46129590751230715,1.7867872629210353,0.15380318074030802
1772031859391470000,2.591469970703125,-0.2845329809397459,1.8547613134726881,0.22943675133548674
1772031859401419000,2.6014189453125,-0.039901802277565,1.8837416165024041,0.23858210775628685
1772031859411368000,2.611367919921875,0.30403672283291816,1.9065470302894711,0.23700596274705601
1772031859421316900,2.62131689453125,0.6769494134932756,1.8575725715011357,0.2241632679119706
1772031859431265800,2.631265869140625,1.0919418349921703,1.6999477683797477,0.21444844104014335
1772031859441215000,2.641215087890625,1.4826064554423093,1.4769438996359705,0.202959480635263
1772031859451164000,2.651163818359375,1.80713476216197,1.2802844324603675,0.2679015430798754
1772031859461113000,2.661113037109375,2.108549319797754,1.1285326130256057,0.3586654445232823
1772031859471062000,2.67106201171875,2.3888994620949027,0.9867860547766089,0.46261495422162113
1772031859481011000,2.681010986328125,2.583206228664517,0.8252078378543257,0.5641957254946232
1772031859490958800,2.690958740234375,2.6463386844038963,0.697984018215537,0.6769171917241066
1772031859500908800,2.70090869140625,2.6059628348737953,0.5959919627279043,0.7870343937393277
1772031859510857000,2.71085693359375,2.5212673666238783,0.5055637960448861,0.8655291076529771
1772031859520806000,2.720805908203125,2.3674364028275012,0.38412937346249815,0.9531422899805009
1772031859530755000,2.730755126953125,2.2076567597597836,0.29424715022444725,0.9967565369099378
1772031859540704000,2.7407041015625,1.9838637864649296,0.2508481534808874,0.9825129075020551
1772031859550653000,2.75065283203125,1.6891197926342487,0.23400486296862363,0.9637444941461085
1772031859560601900,2.760601806640625,1.4170774599552154,0.2901566660404205,0.9224216460894793
1772031859570551000,2.770551025390625,1.2350818934261798,0.37775837712585925,0.8853108627699315
1772031859580500000,2.7805,1.1726105319440363,0.43687195261269807,0.8348140167199075
1772031859590449000,2.790448974609375,1.1808493679791687,0.4630412898749113,0.7460719034276903
1772031859600397800,2.800397705078125,1.2585586306035519,0.42730186797380443,0.6521556023679673
1772031859610347000,2.810346923828125,1.3470704422712325,0.3298591463536024,0.5448131257630884
1772031859620296000,2.8202958984375,1.3555477632373572,0.17514380093812942,0.5014432089835406
1772031859630244900,2.830244873046875,1.2780115190923214,0.007713643117249012,0.5145895446740091
1772031859640194000,2.840194091796875,1.18625561093688,-0.21183160960525274,0.5338195111270994
1772031859650143000,2.85014306640625,1.1055126797050236,-0.39908173566162586,0.529064425554499
1772031859660092000,2.860091796875,1.0442775820195673,-0.5344289482623339,0.5225047017127276
1772031859670040800,2.870040771484375,0.9204343447297811,-0.6479413456737995,0.5828455539721995
1772031859679989800,2.87998974609375,0.6593956366240978,-0.7328910809457302,0.6781848735723645
1772031859689939000,2.88993896484375,0.276720261362195,-0.7411930453449487,0.8191421811398119
1772031859699887900,2.899887939453125,-0.1459095231473446,-0.6998349067792295,0.8996266806311904
1772031859709837000,2.909837158203125,-0.385224475222826,-0.5706511852443218,0.9329302536875009
1772031859719786000,2.919785888671875,-0.5429296501040458,-0.32528029413074255,0.8306121811158954
1772031859729734000,2.92973388671875,-0.67973875195086,-0.11637743145376443,0.5335315610311925
1772031859739682800,2.939682861328125,-0.7688765865623951,-0.014641688814759253,0.10825403849184513
1772031859749632000,2.949632080078125,-0.7975543995141983,-0.08855828115791081,-0.39944041290618476
1772031859759581000,2.959580810546875,-0.762498283702135,-0.33664076931774617,-0.8713248613849282
1772031859769529900,2.96952978515625,-0.6884907982051373,-0.7216828737109899,-1.297573274783045
1772031859779479000,2.97947900390625,-0.4757382743626833,-1.1405056671530007,-1.6852257078051567
1772031859789428000,2.989427978515625,-0.2106324629485607,-1.5796502408728001,-2.010298642795533
1772031859799377000,2.999376953125,0.03481178566217422,-1.8836472162172198,-1.7576546919390559
1772031859809325800,3.009325927734375,0.07596271121799945,-1.9331088740006088,-1.0281807259604334
1772031859819275000,3.01927490234375,-0.6559855359196662,-2.204215094873309,-0.3121239485029131
1772031859829224000,3.029223876953125,-2.0983120034217833,-2.5144854513987895,0.29755605557672676
1772031859839172900,3.0391728515625,-3.860453777647018,-2.3024197407767177,0.8694707579508423
1772031859849121800,3.049121826171875,-5.477752781173587,-1.4839730676203966,1.3762586889632045
1772031859859071000,3.059071044921875,-6.54074383149147,-0.3960300930060446,1.5397481463342904
1772031859869020000,3.06902001953125,-6.57397857709527,1.0208091742791234,1.4372029870085417
1772031859878968800,3.07896875,-6.100533382105827,2.155830857063085,0.9763478820662945
1772031859888918000,3.08891796875,-5.19892707196474,2.8239871616393324,0.3710307128386572
1772031859898867000,3.098866943359375,-3.9488954466879367,3.1655744474485514,-0.17797526150438933
1772031859908816000,3.10881591796875,-2.4932640919327733,3.186054633158445,-0.6409237219966948
1772031859918764800,3.118764892578125,-1.1209949109971522,2.785123470237851,-1.0183055208951235
1772031859928714000,3.1287138671875,0.05480944855213165,2.226893959671259,-1.1742738620463757
1772031859938663000,3.138662841796875,0.936492330083251,1.7581471516311167,-1.06199729004018
1772031859948612000,3.148612060546875,1.4382874212443828,1.3746967003434896,-0.8539274441212416
1772031859958560000,3.15856005859375,1.6797744566619395,0.9840691970333456,-0.5698907222658396
1772031859968510000,3.168510009765625,1.890759970831871,0.658615592162311,-0.2681200446687639
1772031859978457900,3.178457763671875,2.067506530791521,0.39675095462650056,0.009839695360511541
1772031859988406800,3.18840673828125,2.185529099103808,0.2253419563025236,0.2614448777537793
1772031859998356000,3.19835595703125,2.203050727269053,0.08259878823161125,0.45254064638763664
1772031860008305000,3.208304931640625,2.1650901221871375,0.004051321217417717,0.6117539608094841
1772031860018254000,3.218254150390625,2.079844034317136,-0.012861235138773918,0.6706191144932061
1772031860028203000,3.228203125,1.9008634316951036,0.07184680033177136,0.6165762663993984
1772031860038152000,3.23815185546875,1.6340508163630962,0.1867193801805377,0.5388067980203777
1772031860048100900,3.248100830078125,1.4287398406982421,0.30374533867090936,0.43606655451394616
1772031860058049800,3.2580498046875,1.3446055134624242,0.5311322448045015,0.3476888906199485
1772031860067999000,3.2679990234375,1.289798987519741,0.714149847857654,0.2271518552687019
1772031860077948000,3.277947998046875,1.2829822932422161,0.8580772572770714,0.09629837389066814
1772031860087896800,3.287896728515625,1.3163017945200204,0.9372375954926013,0.01916618050187826
1772031860097846000,3.297845947265625,1.3527923270493745,0.9317392903372644,-0.06662913874872028
1772031860107795000,3.307794921875,1.4225140980511903,0.8470616500049829,-0.16665208612047136
1772031860117743900,3.317743896484375,1.5805173790961502,0.7453598096355796,-0.24173414204642174
1772031860127693000,3.327693115234375,1.7174083140075205,0.6373056776300072,-0.2992546031229198
1772031860137642000,3.33764208984375,1.8144395322173832,0.5851344686269759,-0.3042098143775016
1772031860147591000,3.3475908203125,1.8695038323134183,0.6244602245822548,-0.29473478761091826
1772031860157539800,3.357539794921875,1.8617840517163275,0.7261798928692936,-0.2786819168239832
1772031860167488800,3.36748876953125,1.7761673769682644,0.8104229411765933,-0.2527661159314215
1772031860177438000,3.37743798828125,1.5703922909229993,0.7966784934625029,-0.21679880355857312
1772031860187387000,3.387386962890625,1.3786246874421835,0.8277157290220261,-0.12876717662326992
1772031860197335000,3.3973349609375,1.10108083473742,0.8400301439329981,-0.09576733575388789
1772031860207284000,3.407283935546875,0.7898433867454528,0.7315341133788228,-0.11383410364650189
1772031860217233000,3.41723291015625,0.5515010790944099,0.5894494092166424,-0.06920249636806547
1772031860227187700,3.427187744140625,0.34997780527472494,0.40067426555007696,0.018891162952780722
1772031860237136600,3.43713671875,0.19606383937001226,0.15582155309170484,0.18460348400510845
1772031860247085600,3.44708544921875,0.09913783510029316,-0.1199599661156535,0.43700821927823125
1772031860257034800,3.45703466796875,0.1036930141866207,-0.4361706724755466,0.6967466584403067
1772031860266983700,3.466983642578125,0.16100363190472125,-0.77584233392179,0.8581284760076552
1772031860276932600,3.4769326171875,0.2755219914883375,-1.0686739182598888,0.9715172470394522
1772031860286881800,3.4868818359375,0.40344694513380525,-1.2650246117472648,1.0623641505911945
1772031860296830700,3.496830810546875,0.49478842726945876,-1.2988463634587823,1.1061136412728578
1772031860306779600,3.506779541015625,0.40299394066929817,-1.4814534860149025,1.0054323030576109
1772031860316728600,3.516728515625,0.44515725813806056,-1.6505575683973728,0.8409851065702736
1772031860326677500,3.526677490234375,0.45249066976606844,-1.800748129864782,0.7113912698645144
1772031860336626700,3.536626708984375,0.4002244759559631,-1.9246150402911006,0.5794185751982033
1772031860346575600,3.54657568359375,0.33497195932269097,-1.976266755464673,0.4785340425610542
1772031860356524800,3.55652490234375,0.2012865424543619,-2.0130045407533643,0.440804835082218
1772031860366473700,3.5664736328125,-0.019610709398984908,-2.057350170697272,0.430406994382292
1772031860376422700,3.576422607421875,-0.3087538144826889,-2.051090379650146,0.4254498834315687
1772031860386371600,3.58637158203125,-0.6173053843915463,-1.9536565719887613,0.4223713527690619
1772031860396320500,3.596320556640625,-0.985933529600501,-1.777025308971852,0.4136288415281102
1772031860406269700,3.606269775390625,-1.3796762423217295,-1.6566430257909,0.34229948919918385
1772031860416219000,3.616218994140625,-1.7778963927179574,-1.6735434533178806,0.16194759822394697
1772031860426167800,3.626167724609375,-2.0417530808538196,-1.8153206989660857,-0.12844879485648125
1772031860436115700,3.63611572265625,-2.0455244160860775,-2.014449186603725,-0.39367688094340264
1772031860446064600,3.646064697265625,-1.9032149632573128,-2.1721263044342396,-0.4461286604534834
1772031860456013600,3.656013671875,-1.7070581849068402,-2.191998733509332,-0.42569604021236296
1772031860465962800,3.665962646484375,-1.7010224118739365,-2.186189170447737,-0.45394422957524655
1772031860475911700,3.67591162109375,-2.0019184985935685,-2.221746806041151,-0.47399376878291366
1772031860485860600,3.685860595703125,-2.322853749257326,-2.051761556909978,-0.31557818061001597
1772031860495809800,3.695809814453125,-2.8548575161993504,-1.775907264727354,0.0011336071398109198
1772031860505758700,3.7057587890625,-3.4688527531296014,-1.3900203800730406,0.2497363197814673
1772031860515707600,3.715707763671875,-4.041071626082062,-1.0614964278459549,0.40388226781114933
1772031860525656600,3.725656494140625,-4.2475458003073925,-0.5546769326515495,0.5314020016565919
1772031860535605800,3.735605712890625,-4.1858775719016785,0.10027180756628513,0.5063746375037357
1772031860545554700,3.7455546875,-3.8651767145156857,0.6167927586942911,0.29091559464894234
1772031860555503600,3.755503662109375,-3.183835203543305,1.019276119492948,0.028554186572134495
1772031860565452500,3.76545263671875,-2.3553601805865765,1.2514990674808621,-0.257384350316599
1772031860575401700,3.775401611328125,-1.5379180082976818,1.2516659484803676,-0.5308278184978291
1772031860585350700,3.7853505859375,-0.8184574868112802,1.1361115238472819,-0.6104316261645406
1772031860595299800,3.7952998046875,-0.2943424272924661,0.9585913491666317,-0.5883906208787113
1772031860605248800,3.805248779296875,0.0005967968493700027,0.7875052991867065,-0.48635432439055293
1772031860615197700,3.81519775390625,0.15426000286340713,0.6885889978826045,-0.33246541986186057
1772031860625146600,3.825146728515625,0.2158218482851982,0.6804059836879373,-0.1381737047309056
1772031860635095600,3.835095458984375,0.1790261953294277,0.718683691895008,0.06388955771699548
1772031860645044500,3.84504443359375,0.08158639631867408,0.7700511832997202,0.21754845288209615
1772031860654993700,3.85499365234375,-0.008814005574584007,0.9136696729004382,0.3353324997307732
1772031860664941800,3.86494189453125,-0.07286182259321212,1.1545844613879919,0.463718385418877
1772031860674890800,3.874890869140625,-0.15321896937787532,1.353749773904681,0.5847980397468432
1772031860684839700,3.884839599609375,-0.20576105751991272,1.477118379420042,0.7224881987445056
1772031860694788600,3.89478857421875,-0.13165128069221974,1.6592469246789812,0.8873105852197856
1772031860704737500,3.904737548828125,-0.047666591060161585,1.7555641494005918,1.0787066519744695
1772031860714686700,3.914686767578125,0.1607142935693264,1.8012220309868454,1.2856594034969806
1772031860724635600,3.9246357421875,0.4121580748558044,1.841559302072227,1.4426485390633343
1772031860734584600,3.93458447265625,0.6534095479518175,1.8335548593148587,1.5440062421701848
1772031860744533800,3.94453369140625,0.8081921133846044,1.8269614523991942,1.588061072473973
1772031860754482700,3.954482666015625,0.9199509451270103,1.8348913686156272,1.6140511076465247
1772031860764431600,3.964431640625,1.087589485001564,1.8701041362941264,1.6027359329059718
1772031860774380800,3.974380859375,1.3195903146713972,1.8693556560143827,1.5031599986493587
1772031860784329700,3.984329833984375,1.6958523157596588,1.8080887018859386,1.3636857692465185
1772031860794278700,3.994278564453125,2.138673239904642,1.6773843466550111,1.2204234726723282
1772031860804227600,4.0042275390625,2.57866916975677,1.5435212351322174,1.0520116103377193
1772031860814176500,4.014176513671875,2.91824949965775,1.4006760679915546,0.8881190520584583
1772031860824125700,4.024125732421875,3.1047640049159524,1.240611470502615,0.7402811911970376
1772031860834074600,4.03407470703125,3.2079619290620087,1.0760156593248247,0.5840284070812165
1772031860844023800,4.04402392578125,3.2517081318080425,0.92056703119874,0.48031639593318104
1772031860853972700,4.05397265625,3.2278175531327724,0.8061147225886582,0.44946533059552307
1772031860863921700,4.063921630859375,3.1122271804034707,0.7706143701404332,0.47487435100972647
1772031860873870600,4.07387060546875,2.8825884036898612,0.743266344487667,0.45930327239036556
1772031860883818800,4.08381884765625,2.4794910026460886,0.6795771316483616,0.4485154825247824
1772031860893767700,4.093767578125,2.054308026522398,0.6261503696262836,0.41427082922607655
1772031860903716600,4.103716552734375,1.726704550141096,0.5959188974916935,0.32475919286608695
1772031860913665800,4.113665771484375,1.4942735123604536,0.5685100815623998,0.21089330584183333
1772031860923614700,4.12361474609375,1.3562357455015182,0.5291133061975241,0.06832520207688211
1772031860933563600,4.133563720703125,1.2490882069468499,0.5031161106318235,-0.09475399399287998
1772031860943512600,4.1435126953125,1.164638237890601,0.47905339026004073,-0.25010398405008016
1772031860953461800,4.153461669921875,1.090479945746064,0.4146434619307518,-0.4037869907431304
1772031860963410700,4.16341064453125,1.0086872132003306,0.3050368397861719,-0.5331023758336901
1772031860973359600,4.173359619140625,0.9387555988401174,0.1444730606034398,-0.6654277563951909
1772031860983308800,4.183308837890625,0.8431284022092819,-0.06402648196965456,-0.7523032720979302
1772031860993257700,4.1932578125,0.7173597498148679,-0.3075122899889946,-0.8176016006343066
1772031861003206700,4.20320654296875,0.5975415302574634,-0.5621849701941013,-0.957770826563984
1772031861013155600,4.213155517578125,0.509185785934329,-0.8055711172312497,-1.1260120085068046
1772031861023104800,4.223104736328125,0.4467541719406843,-0.9532780451893806,-1.1429136050775646
1772031861033053700,4.2330537109375,0.3770014212787151,-0.9716782097548246,-0.9976959366519004
1772031861043002600,4.243002685546875,0.21668752520382403,-0.9042124009862542,-0.8375861117817461
1772031861052951600,4.25295166015625,-0.08887421523928642,-0.80306687932536,-0.7247328358661383
1772031861062900700,4.262900634765625,-0.4555997416973114,-0.6506281005397438,-0.6973613562725484
1772031861072849700,4.272849609375,-0.8781061920881271,-0.39989480561017987,-0.686845880542323
1772031861082798600,4.282798583984375,-1.251946518987417,-0.0834767401099205,-0.7051965799428522
1772031861092747800,4.292747802734375,-1.537087402692437,0.1917610276095569,-0.7453140707977116
1772031861102696700,4.30269677734375,-1.7041893514722584,0.3114652653984725,-0.9061903499957173
1772031861112644600,4.31264453125,-1.767844369781017,0.1415558579824865,-1.369850721617043
1772031861122593500,4.322593505859375,-1.7146300814658402,-0.32606837576851244,-2.0251615731455384
1772031861132542700,4.332542724609375,-1.4865332734972239,-0.7239893970876932,-2.5588036088138817
1772031861142491600,4.34249169921875,-1.159118013164401,-0.9503246022112667,-2.79208220333457
1772031861152440800,4.35244091796875,-0.691223438039422,-0.9736185301676392,-2.632956055739522
1772031861162389800,4.3623896484375,-0.31530513582229613,-0.675908087746799,-1.9271106564991174
1772031861172338700,4.372338623046875,-0.5236942037582397,-0.27219883841499687,-0.8414753743052482
1772031861182287600,4.38228759765625,-1.3032207791507244,0.04771130698472261,0.21428163310587406
1772031861192236500,4.392236572265625,-2.2356185333967207,0.39916283807381986,0.974776029639691
1772031861202185700,4.402185791015625,-3.0843086613863706,0.7404806592918932,1.4368570961803198
1772031861212134700,4.412134765625,-3.6247891647726296,1.0503595322817563,1.5774059690773485
1772031861222082300,4.422082275390625,-3.7818712393194436,1.3470643047913908,1.4791941627807914
1772031861232031200,4.43203125,-3.439540733927488,1.6408235253684222,1.2459436253108083
1772031861241980400,4.44198046875,-2.6905226940453053,1.8273431451931594,0.8722460678830742
1772031861251929300,4.451929443359375,-1.9755051234424112,1.7909117955051361,0.3732001292996108
1772031861261878300,4.461878173828125,-1.399586226928234,1.5949996395654975,-0.02569381043864414
1772031861271827200,4.4718271484375,-0.9483195459991693,1.3634285796150565,-0.11705268210051581
1772031861281776000,4.481776123046875,-0.49508419534564013,1.183335047315061,0.07936066482691094
1772031861291725000,4.49172509765625,-0.00875379981994629,1.0307495535351336,0.32923184476811435
1772031861301674200,4.50167431640625,0.3314677505940199,0.8009424345172941,0.4858772083980962
1772031861311623400,4.51162353515625,0.5904074405938387,0.5715443346917629,0.6250312294032424
1772031861321572400,4.521572265625,0.7849363254815339,0.3762526487380266,0.746190342175588
1772031861331521300,4.531521240234375,0.8869383178412914,0.2318275189295411,0.835143760130927
1772031861341469200,4.54146923828125,0.9159422940075397,0.12806947668269275,0.861810744716972
1772031861351418400,4.55141845703125,0.971888053113222,0.1413324244901538,0.815619340775907
1772031861361367300,4.5613671875,1.025943468427658,0.23095409709587691,0.6970190456409007
1772031861371316200,4.571316162109375,1.056296521115303,0.3173243666902184,0.5102707316268235
1772031861381265200,4.58126513671875,1.1758540439099072,0.37173882457539437,0.30335882357135413
1772031861391214300,4.59121435546875,1.312147012928128,0.368425462243706,0.10652211839901282
1772031861401163300,4.601163330078125,1.4910259087413549,0.34215354138985277,-0.07433794129407033
1772031861411112200,4.6111123046875,1.6701029574751853,0.3098151601038873,-0.2206208643310703
1772031861421061400,4.621061279296875,1.8488386454254389,0.27607378015220163,-0.30027718763630834
1772031861431010300,4.63101025390625,2.026898041549325,0.18109803316742182,-0.3101608317364007
1772031861440959200,4.640959228515625,2.194519045767188,0.043605479101091624,-0.30421284658480435
1772031861450908200,4.650908203125,2.2984680805414914,-0.12769275232478974,-0.3112776338718831
1772031861460857000,4.660857177734375,2.3122224651277064,-0.29082170582041145,-0.3255317481411621
1772031861470806300,4.67080615234375,2.244019866517186,-0.42301980674043294,-0.35135895743481815
1772031861480755500,4.68075537109375,2.1718325821846722,-0.5037028244785964,-0.41644576211236417
1772031861490704400,4.690704345703125,2.0993875236988067,-0.5364379499971866,-0.48809214450120925
1772031861500653300,4.7006533203125,1.9673557192564008,-0.5272447358466684,-0.5423101664988323
1772031861510602200,4.710602294921875,1.7041531111150978,-0.46732057462930676,-0.5393972016615792
1772031861520551200,4.72055126953125,1.3887649731844662,-0.4267946491040289,-0.49555608717370775
1772031861530500000,4.7305,1.0994400817930698,-0.4404379745312035,-0.4748728897050023
1772031861540449000,4.740448974609375,0.7740121958851813,-0.48700157278552647,-0.5039949758255854
1772031861550398500,4.7503984375,0.3751578392386436,-0.529322272773087,-0.5233427599720657
1772031861560347400,4.760347412109375,0.032978725016117094,-0.5057070039078593,-0.4938527538545429
1772031861570295300,4.77029541015625,-0.21311317384839057,-0.4446498931378126,-0.42555078652277584
1772031861580244200,4.780244140625,-0.36822950128018855,-0.3939683381706476,-0.35067104823589323
1772031861590193200,4.790193115234375,-0.4715729713767767,-0.40645036473348733,-0.3273815041936934
1772031861600142300,4.800142333984375,-0.5218710799843073,-0.44312809039801354,-0.3293717646954581
1772031861610091300,4.81009130859375,-0.45731823605298993,-0.5216023460455238,-0.32984990360122174
1772031861620040200,4.820040283203125,-0.2686065130114555,-0.6145232063271104,-0.32609175664409995
1772031861629989000,4.829989013671875,-0.12066986795067787,-0.7235675184138118,-0.30540956382239237
1772031861639938300,4.839938232421875,-0.07364449740350246,-0.8895812335655092,-0.29851931111831215
1772031861649887200,4.84988720703125,-0.05211421811878681,-1.002805023293942,-0.27685875651743264
1772031861659836400,4.85983642578125,-0.06776186910569668,-1.0464226312242448,-0.27236696152351797
1772031861669785300,4.869785400390625,-0.16455401786267757,-1.129427223777771,-0.2306808513787575
1772031861679734300,4.879734375,-0.2569447167903185,-1.1714493792101741,-0.1879458715018816
1772031861689683200,4.88968310546875,-0.4210732027173042,-1.1317167960196732,-0.13646447139391674
1772031861699632000,4.899632080078125,-0.7131301494210958,-1.028520917700231,-0.06961233754428103
1772031861709581300,4.909581298828125,-1.043642206725478,-0.8253373094528913,-0.0005906228369101881
1772031861719530200,4.9195302734375,-1.3283137193530796,-0.6608791531801224,0.06410615960974246
1772031861729479400,4.9294794921875,-1.4928192218989134,-0.5872480997800826,0.08523118256181478
1772031861739428400,4.939428466796875,-1.526387729501724,-0.6463717582695185,-0.0011213321801275015
1772031861749377300,4.949377197265625,-1.4948679711222648,-0.8334905130311846,-0.22543873120788482
1772031861759326200,4.959326171875,-1.411106568852067,-0.9436635368868708,-0.3939043330237269
1772031861769275100,4.969275146484375,-1.253222530272603,-0.931978944312036,-0.4458052371853962
1772031861779224000,4.97922412109375,-1.1196773986577988,-0.8640497558154165,-0.46965504545886066
1772031861789173200,4.98917333984375,-1.064761567121744,-0.7851147507883608,-0.5489632677124813
1772031861799121200,4.99912109375,-1.1045096401423216,-0.8859034218356012,-0.7192303659923375
1772031861809070300,5.0090703125,-1.0490589710772036,-0.9339616425618529,-0.8358230476319789
1772031861819019300,5.019019287109375,-1.0392565389871598,-0.7566589100241661,-0.757347184549272
1772031861828968200,5.02896826171875,-1.283961367407441,-0.3524463873453438,-0.5120770869290456
1772031861838917400,5.03891748046875,-1.7872902440071106,0.14154562884941696,-0.19361264682561158
1772031861848866300,5.0488662109375,-2.3163848455041647,0.5270604653209447,-0.05819963897969573
1772031861858815200,5.058815185546875,-2.7131670720517636,0.7198559505447745,-0.154696640715003
1772031861868764200,5.06876416015625,-2.8986615866124628,0.8335131632544099,-0.27765136819984765
1772031861878713300,5.07871337890625,-2.764882646241784,1.0354090697787701,-0.3530708028540015
1772031861888662300,5.088662353515625,-2.3680443055927753,1.275409373769909,-0.36691699390951543
1772031861898611200,5.098611083984375,-1.9102187045395373,1.4111039385035633,-0.41464444831144065
1772031861908560400,5.108560302734375,-1.5478396828532217,1.480943490666151,-0.43604266218170523
1772031861918509300,5.11850927734375,-1.2457254525154828,1.553247971637547,-0.3732013714086264
1772031861928458200,5.128458251953125,-0.9859183320313691,1.5821932033538817,-0.2984149008957669
1772031861938407200,5.1384072265625,-0.8343769404768944,1.549987508536875,-0.25867322108335794
1772031861948356000,5.148356201171875,-0.7071727023214102,1.5537199730634688,-0.24399847024921326
1772031861958305300,5.15830517578125,-0.5406833324819803,1.5966417076840995,-0.262211405146867
1772031861968254200,5.168254150390625,-0.38943186378479,1.6309683401778339,-0.24719507433343677
1772031861978203400,5.178203369140625,-0.33301147290468214,1.6818062547504902,-0.14659125833380968
1772031861988152300,5.18815234375,-0.2955412816882133,1.7783304002210496,-0.009389576972834766
1772031861998101200,5.198101318359375,-0.1690104127496481,1.85971864361912,0.10371847742144018
1772031862008049200,5.208049072265625,-0.02408697803020477,1.9314877025395631,0.23415146836508063
1772031862017998300,5.217998291015625,0.13799451223909853,1.9798925447463989,0.3290718684334308
1772031862027947300,5.227947265625,0.28955343945026396,1.9619459691673515,0.41567280497848985
1772031862037896200,5.237896240234375,0.4263450056403875,1.9257012280926107,0.49554209518097336
1772031862047845400,5.247845458984375,0.5903834751963615,1.9157403905704615,0.536010043441318
1772031862057794300,5.257794189453125,0.744157740369439,1.9188930093824863,0.5785943993337452
1772031862067743200,5.2677431640625,0.9694412444829941,1.8891382148489355,0.5549766827831044
1772031862077692200,5.277692138671875,1.2766121736884117,1.7659154475450514,0.5324577577872202
1772031862087641300,5.287641357421875,1.6406600053697824,1.607428182375431,0.48294115494620055
1772031862097590300,5.29759033203125,2.016788735467195,1.4781100208058953,0.3782764827158302
1772031862107539200,5.307539306640625,2.4711259098827836,1.4055930661275982,0.24053455699831247
1772031862117488000,5.317488037109375,2.894177719196677,1.4020678146108985,0.17957867811303585
1772031862127437300,5.327437255859375,3.0420594191998243,1.3028569142743944,0.050452787712588903
1772031862137386200,5.33738623046875,2.9904554886907335,1.1689280440390108,-0.07450896874573082
1772031862147335200,5.347335205078125,2.843763290733099,0.9702522686049342,-0.11803875226210803
1772031862157284400,5.357284423828125,2.583568632236123,0.5593892019957304,0.04993957749344408
1772031862167233300,5.3672333984375,2.317638644957542,0.18510083906799554,0.39498683103080834
1772031862177182200,5.37718212890625,2.0999235302716492,-0.06373275972008705,0.6188097245398908
1772031862187131100,5.387131103515625,1.915092448055744,-0.2111468422114849,0.7616483888745308
1772031862197080300,5.397080322265625,1.5823767432272433,-0.24260230318307874,0.8568016113180666
1772031862207029200,5.407029296875,1.2077876437872648,-0.2803244233340025,0.9290027049802243
1772031862216978400,5.416978515625,1.1099410175412892,-0.21776216869801282,0.9678287677850573
1772031862226923300,5.42692333984375,1.068116722768545,-0.22839871352463958,0.889355900377035
1772031862236872200,5.4368720703125,1.0427549024969338,-0.305905731575191,0.726372346701473
1772031862246820000,5.446820068359375,1.0503513489753007,-0.32366701371520756,0.5565590200711041
1772031862256769500,5.45676953125,0.9462252040684223,-0.36754298032075167,0.4185729103341698
1772031862266718500,5.466718505859375,0.7619751366108656,-0.475580161191523,0.3044567748758942
1772031862276667400,5.47666748046875,0.6426040762990712,-0.6172954475194216,0.24012648765407502
1772031862286616300,5.4866162109375,0.5845592990875244,-0.7659449170246719,0.23867862693332134
1772031862296565200,5.496565185546875,0.4557984791398048,-0.942061070126295,0.22669899693466722
1772031862306514200,5.50651416015625,0.40055531534552574,-0.9723539170593023,0.14409246378801763
1772031862316463400,5.51646337890625,0.5495493605047465,-1.0957309981420635,0.06609042876213789
1772031862326412300,5.526412353515625,0.5950684181421995,-1.3292150521069763,-0.05567234899178147
1772031862336361500,5.536361572265625,0.4897703068464994,-1.4356842530086635,-0.043910088070854544
1772031862346310400,5.546310302734375,0.3865910874009132,-1.438585527408123,0.04238024815507233
1772031862356259300,5.55625927734375,0.26484862178266044,-1.407581317335367,0.10706994327381253
1772031862366208300,5.566208251953125,0.12298515915572643,-1.3123454581096767,0.12414178184494376
1772031862376157200,5.5761572265625,-0.08479016079604625,-1.218324235370755,0.10487878990508616
1772031862386106400,5.5861064453125,-0.3529121051609516,-1.0584957847252487,0.00019194237552583218
1772031862396055300,5.59605517578125,-0.5871995844632387,-0.9610323125779628,-0.1961504216749221
1772031862406004200,5.606004150390625,-0.7629173858970403,-1.0432958775058387,-0.5507998720224947
1772031862415953400,5.615953369140625,-0.6356921049535275,-1.0967913208499551,-0.8502570119801908
1772031862425902300,5.62590234375,-0.4851081602543592,-1.0790019816592336,-1.1449760175000876
1772031862435851300,5.635851318359375,-0.7689630958020687,-1.1691364260926842,-1.451156401298195
1772031862445800200,5.64580029296875,-1.1578285578757523,-1.301706867456436,-1.5411201653398572
1772031862455749400,5.655749267578125,-1.6312731683433055,-1.4012401316151022,-1.3704805439531802
1772031862465698300,5.6656982421875,-2.154053764387965,-1.3393196820139883,-0.9125392806310206
1772031862475646200,5.675646240234375,-2.8350317027449607,-1.121327211691439,-0.2225152815092355
1772031862485595100,5.68559521484375,-3.700764735472202,-0.6879653130263089,0.5395829700246453
1772031862495544300,5.69554443359375,-4.601600645762682,-0.014255319845676422,1.1671323927938937
1772031862505493500,5.705493408203125,-5.1833548243016,0.5971035772316158,1.4886381368219852
1772031862515442400,5.7154423828125,-5.208414446756243,1.251775254073739,1.5878706644684075
1772031862525391400,5.725391357421875,-4.778749356782436,1.8796981863304971,1.4804210742272437
1772031862535340300,5.73534033203125,-3.9817444078445434,2.3410506463356313,1.2923198842994867
1772031862545289200,5.745289306640625,-3.048671530815959,2.470664137589931,0.9951926485940813
1772031862555238100,5.755238037109375,-2.07841896995008,2.32634305267781,0.6460711678877472
1772031862565187300,5.765187255859375,-1.0738935526043176,2.0451102823272347,0.4373719014914706
1772031862575136300,5.77513623046875,-0.07862930007874966,1.5777286251604556,0.44337954440843313
1772031862585085400,5.78508544921875,0.7659048772752285,1.046904131130874,0.4917995111191645
1772031862595034400,5.795034423828125,1.39978028819561,0.5948688039168715,0.4747770281150937
1772031862604983300,5.8049833984375,1.8552561112523078,0.2290110002040863,0.4523507863713428
1772031862614932200,5.81493212890625,2.1098446203053,-0.03795709795057774,0.5023694935156032
1772031862624881200,5.824881103515625,2.1801409763246773,-0.18326514807343483,0.6188093592137098
1772031862634830300,5.834830322265625,2.1336071886867285,-0.18127309747338294,0.7708752130337059
1772031862644779300,5.844779296875,1.9760019670486448,-0.11844810024797915,0.8657444309040904
1772031862654728400,5.854728515625,1.7571967190384863,-0.012258008548617362,0.8966131780289113
1772031862664677400,5.864677490234375,1.5051795217782258,0.12928338251709937,0.8934747338727116
1772031862674626300,5.874626220703125,1.22819973269701,0.2804088867470622,0.8132561918411404
1772031862684575200,5.8845751953125,1.0265724139809609,0.4591150563418865,0.6666742493249476
1772031862694523400,5.8945234375,0.8945610678046941,0.5271449287340044,0.5163467636048793
1772031862704472300,5.904472412109375,0.9307692762613295,0.5281321862056851,0.3985457290887832
1772031862714421200,5.914421142578125,1.0739373917460442,0.5549702165096998,0.24075077529856934
1772031862724370200,5.9243701171875,1.2040414429962634,0.570359801082313,0.07718542141336947
1772031862734319000,5.934319091796875,1.3374135561317204,0.5717956791043282,-0.04621361577287316
1772031862744268500,5.9442685546875,1.499780293083191,0.5353220977097749,-0.14378767215516416
1772031862754217500,5.954217529296875,1.685612661296129,0.45469899346530435,-0.23595891964584587
1772031862764166400,5.96416650390625,1.861479515811801,0.3538721823647618,-0.3656880001038313
1772031862774115300,5.974115234375,1.9179320553958414,0.15881167481839656,-0.4788893588047474
1772031862784064300,5.984064208984375,1.9132079494833945,-0.08070435278713703,-0.5443966539166868
1772031862794013200,5.99401318359375,1.9387310977965593,-0.2111488880380988,-0.5686063450111076
1772031862803962000,6.003962158203125,1.8384265570044516,-0.282022459423542,-0.5610053684880957
1772031862813911300,6.013911376953125,1.5866922683387994,-0.3549355738125741,-0.5228897555075586
1772031862823860500,6.023860595703125,1.3694447711646556,-0.3999880368515849,-0.4109260853754356
1772031862833809400,6.033809326171875,1.1355693797945976,-0.4542969885356724,-0.3004182766074315
1772031862843758300,6.04375830078125,0.9355342987060546,-0.48008682496100663,-0.21850842048805205
1772031862853707300,6.053707275390625,0.7606623004466295,-0.47334684918150305,-0.16789708121288566
1772031862863656200,6.06365625,0.5091980608940124,-0.47083749670907854,-0.10702109916340559
1772031862873605400,6.07360546875,0.26644436654150483,-0.42383799125552174,-0.06218425163645297
1772031862883554300,6.08355419921875,0.002242225968837738,-0.42299774103909726,-0.01709587703384459
1772031862893503200,6.093503173828125,-0.20690379781424997,-0.47095717756599187,-0.034010077357850964
1772031862903452400,6.103452392578125,-0.27398762152791023,-0.5185720384389162,-0.07234832011312246
1772031862913401300,6.1134013671875,-0.1615548360466957,-0.5152044617019593,-0.1197520224533975
1772031862923350300,6.123350341796875,0.007980477359890938,-0.5103492767557501,-0.14762436424121259
1772031862933298400,6.13329833984375,0.2286491811543703,-0.568444615110755,-0.1971416246693581
1772031862943247400,6.143247314453125,0.4745382509231567,-0.6780830936983228,-0.3219808872591704
1772031862953196300,6.1531962890625,0.6592389847576617,-0.8235659158661961,-0.43424602455589917
1772031862963145200,6.163145263671875,0.7568056250184774,-0.9214441062942147,-0.47853970511686056
1772031862973094100,6.17309423828125,0.7261094579815864,-0.9549553307518363,-0.5031813944203779
1772031862983043000,6.18304296875,0.5414397038072347,-0.9168338360197842,-0.46604127540849144
1772031862992992500,6.192992431640625,0.23559739285707473,-0.8230056516349316,-0.3385949721254408
1772031863002941400,6.20294140625,-0.14337445171177388,-0.7275887367539108,-0.2099370280303061
1772031863012890400,6.212890380859375,-0.572045854473114,-0.6509799827173351,-0.045682979494892056
1772031863022839300,6.22283935546875,-0.9092974491655826,-0.5333097349740564,0.09021218584477901
1772031863032788200,6.232788330078125,-1.1413579000681637,-0.3997692795343697,0.10201035832930355
1772031863042737200,6.242737060546875,-1.2268775441825388,-0.3601118074066937,-0.02257273754235357
1772031863052686300,6.252686279296875,-1.1801637238025664,-0.5662488586321472,-0.3020107334306463
1772031863062635300,6.26263525390625,-0.9437181896835565,-0.8047571704998612,-0.5074444221597164
1772031863072584400,6.27258447265625,-0.77492872620821,-0.9004578707583248,-0.6655037442408501
1772031863082533400,6.282533447265625,-0.8023322814404964,-1.0810820028036832,-0.9331355670012533
1772031863092482300,6.292482421875,-0.6972562884628772,-1.1803064932741225,-1.0868264647398143
1772031863102431200,6.30243115234375,-0.5544049838423729,-1.062629815790057,-0.8767483477383852
1772031863112380200,6.312380126953125,-0.5580979931414127,-0.7285587508298457,-0.3104065501257777
1772031863122329300,6.322329345703125,-0.8470002752065658,-0.3214173350922763,0.2628891582779586
1772031863132278300,6.3322783203125,-1.3834288728535173,0.11233707002177834,0.59165210689269
1772031863142227500,6.3422275390625,-2.048320768806338,0.5456166972309351,0.7309813018016517
1772031863152175000,6.352175048828125,-2.711962956959009,0.9353924060173332,0.7769668079070746
1772031863162124300,6.362124267578125,-3.0973014139503237,1.3801599341854451,0.8457375617943703
1772031863172073500,6.372073486328125,-3.0984412316352126,1.7692286637462675,0.7517607627190649
1772031863182022400,6.3820224609375,-2.6587662043005227,2.0050581117935478,0.4159641160752624
1772031863191971300,6.391971435546875,-2.0166934583991765,2.05208991208151,0.0010380378108471632
1772031863201920300,6.401920166015625,-1.3301029408574103,2.0228334224589166,-0.2708195128858089
1772031863211869200,6.411869140625,-0.7147492750555277,1.8459179356731474,-0.36151794787757097
1772031863221822200,6.421822265625,-0.09230477420985699,1.5863691738642751,-0.4133494035322219
1772031863231771100,6.431771240234375,0.39898587407171726,1.2819465204536915,-0.537327738443762
1772031863241720300,6.44172021484375,0.7677063737392426,1.0780737608984112,-0.6104320645559579
1772031863251669200,6.451669189453125,1.014229649758339,0.9842543443419038,-0.6353973597906529
1772031863261618200,6.4616181640625,1.0989461607962847,0.9135689890049398,-0.6312764804683625
1772031863271567000,6.471567138671875,0.9656038582772016,0.8533851539380848,-0.5659320477679372
1772031863281516000,6.48151611328125,0.6710603554546832,0.8482209030427038,-0.3646324997015297
1772031863291465200,6.49146533203125,0.38785774633586406,0.8898780245549976,-0.1268808514200151
1772031863301414100,6.5014140625,0.14870821395516395,0.9231048791132866,0.09025609805174171
1772031863311363300,6.51136328125,-0.11816168452203273,0.9670115331180393,0.3231193167045712
1772031863321312300,6.521312255859375,-0.2697907543599605,1.0608905709072947,0.5273266419764607
1772031863331261200,6.53126123046875,-0.3082511256575584,1.1140917074799537,0.6794241330437362
1772031863341210000,6.541210205078125,-0.22617139286398885,1.080294213426858,0.7274634298738092
1772031863351159000,6.551158935546875,-0.08238836035132407,1.0125390663228928,0.6472770365461706
1772031863361108000,6.56110791015625,0.09862404035925865,0.9547517710037529,0.5913326656799763
1772031863371057200,6.57105712890625,0.29447394471764565,0.8611455588065088,0.570686987210065
1772031863381005300,6.58100537109375,0.6141004508703947,0.7451466052763164,0.503884610786289
1772031863390954200,6.590954345703125,0.9929863707214593,0.6134956168450415,0.3745747786536813
1772031863400903200,6.600903076171875,1.3105857549607753,0.3946934375748038,0.2839709631428122
1772031863410852000,6.61085205078125,1.5755173788517713,0.15364742392301559,0.21692199154682457
1772031863420801300,6.62080126953125,1.822642127895355,-0.03136690590530634,0.14216412607394158
1772031863430750200,6.630750244140625,2.062263369441032,-0.19221169398650526,0.06550166908875107
1772031863440699100,6.64069921875,2.263055990898609,-0.35614144247099755,0.05707030615620315
1772031863450648000,6.65064794921875,2.386465512946248,-0.5027763572834432,0.015935966408997772
1772031863460597200,6.66059716796875,2.3913094458460806,-0.5729815278880298,-0.05144925140403211
1772031863470546200,6.670546142578125,2.160296458169818,-0.5547356771014631,-0.06323328576534987
1772031863480495000,6.6804951171875,1.705870436426997,-0.4443202227920294,-0.04925546768680215
1772031863490444300,6.6904443359375,1.2437357400029896,-0.2968158316686749,-0.023073344008252023
1772031863500393200,6.700393310546875,0.757427556309104,-0.2386284311160445,-0.015676073363795874
1772031863510342100,6.710342041015625,0.20014672476947307,-0.1764344252705574,-0.006561988864094019
1772031863520291000,6.720291015625,-0.3701350426405668,0.05191036610975861,0.012264292158931493
1772031863530240000,6.730239990234375,-0.8111351810991764,0.32317820728495716,0.1184072567809373
1772031863540189200,6.740189208984375,-0.9405606024354696,0.4463397459208965,0.14793262647278607
1772031863550138000,6.75013818359375,-0.2630518014937639,0.13840250851809976,-0.08219532199725509
1772031863560087300,6.76008740234375,0.4594388814687729,-0.30651290368810297,-0.333655689092353
1772031863570036200,6.7700361328125,0.8558855924516916,-0.4885267365261912,-0.23721673768721518
1772031863579985200,6.779985107421875,0.9938619845122099,-0.5042291864402592,-0.012296733123809099
1772031863589933000,6.78993310546875,0.8051572757333516,-0.5480464085958898,0.10037928652875125
1772031863599882200,6.79988232421875,0.47652679439187046,-0.5579559543222189,0.09697671154364942
1772031863609831200,6.8098310546875,0.2647948457688093,-0.5690829130142927,-0.12305427886918187
1772031863619780000,6.819780029296875,0.14567922152280807,-0.5625704623803496,-0.28009609447084366
1772031863629729300,6.829729248046875,0.1208516542583704,-0.4104258442357182,-0.26788104828111825
1772031863639678200,6.83967822265625,0.2103103913873434,-0.22793007309958338,-0.22323314745500683
1772031863649627100,6.849627197265625,0.5059224002242088,-0.34743075114041566,-0.39850386270843446
