time,seconds_elapsed,z,y,x
1772031856884334600,0.08433447265625,0.21557284891605377,0.18614043295383453,-0.8253950476646423
1772031856894283500,0.094283447265625,0.1530812382698059,0.11928431689739227,-0.6927579045295715
1772031856904232400,0.104232421875,0.09233585745096207,0.0613136924803257,-0.5456898808479309
1772031856914181400,0.114181396484375,0.03493485972285271,0.034051667898893356,-0.4155302047729492
1772031856924130600,0.124130615234375,-0.029928825795650482,0.03709059953689575,-0.3027583658695221
1772031856934079500,0.13407958984375,-0.0966145396232605,0.052335891872644424,-0.22971680760383606
1772031856944028700,0.144028564453125,-0.1645624339580536,0.07898721098899841,-0.19094544649124146
1772031856953977600,0.1539775390625,-0.2179945558309555,0.1186503916978836,-0.1641189306974411
1772031856963926500,0.163926513671875,-0.2653849720954895,0.1743389517068863,-0.14300724864006042
1772031856973875500,0.17387548828125,-0.29559579491615295,0.21989843249320984,-0.12132100015878677
1772031856983823600,0.18382373046875,-0.3119811713695526,0.2501316964626312,-0.08452970534563065
1772031856993772500,0.1937724609375,-0.30800771713256836,0.2626894414424896,-0.05317488685250282
1772031857003721500,0.203721435546875,-0.2957126796245575,0.24797788262367249,-0.002455516718327999
1772031857013670400,0.21367041015625,-0.2824081480503082,0.195071280002594,0.05269569903612137
1772031857023619300,0.223619384765625,-0.26156705617904663,0.16829398274421692,0.09450492262840271
1772031857033568500,0.233568603515625,-0.24567675590515137,0.16697029769420624,0.1372022181749344
1772031857043517700,0.243517578125,-0.23131965100765228,0.19056349992752075,0.17799757421016693
1772031857053466600,0.253466552734375,-0.2249886691570282,0.23954759538173676,0.20934228599071503
1772031857063415600,0.26341552734375,-0.2286803424358368,0.22136220335960388,0.23024411499500275
1772031857073364500,0.273364501953125,-0.25119486451148987,0.07874486595392227,0.2573367655277252
1772031857083313400,0.2833134765625,-0.3140731453895569,-0.13303714990615845,0.2826346457004547
1772031857093262300,0.293262451171875,-0.4091481566429138,-0.30247724056243896,0.3133281469345093
1772031857103211500,0.30321142578125,-0.5242156386375427,-0.39638376235961914,0.3696042001247406
1772031857113160700,0.31316064453125,-0.667453408241272,-0.5227004289627075,0.43963730335235596
1772031857123109600,0.323109619140625,-0.8294452428817749,-0.6975218057632446,0.5090539455413818
1772031857133058600,0.33305859375,-0.978420078754425,-0.764552116394043,0.5472524762153625
1772031857143007500,0.343007568359375,-1.0042972564697266,-0.4875474274158478,0.47950801253318787
1772031857152956400,0.352956298828125,-0.8662620186805725,0.12706607580184937,0.26354435086250305
1772031857162905300,0.3629052734375,-0.6284643411636353,0.8581466674804688,-0.031184732913970947
1772031857172853500,0.372853515625,-0.3357715308666229,1.4232041835784912,-0.3010532259941101
1772031857182802400,0.382802490234375,-0.020812533795833588,1.6497689485549927,-0.475000262260437
1772031857192751400,0.39275146484375,0.2817701995372772,1.5838392972946167,-0.5401660799980164
1772031857202700500,0.402700439453125,0.5064243674278259,1.301927089691162,-0.5344527959823608
1772031857212649500,0.4126494140625,0.6256695985794067,0.8608500957489014,-0.4743417501449585
1772031857222598000,0.422597900390625,0.6165844798088074,0.30242568254470825,-0.38137561082839966
1772031857232546800,0.432546875,0.5087975263595581,-0.28958752751350403,-0.2777731716632843
1772031857242495700,0.442495849609375,0.37891948223114014,-0.803234875202179,-0.16190648078918457
1772031857252444700,0.452444580078125,0.26697343587875366,-1.116005539894104,-0.02530876360833645
1772031857262393600,0.4623935546875,0.1647152602672577,-1.1904581785202026,0.11767076700925827
1772031857272343000,0.472343017578125,0.08117425441741943,-1.1047592163085938,0.26581934094429016
1772031857282292000,0.4822919921875,0.05805216357111931,-0.9140792489051819,0.394049733877182
1772031857292241000,0.492240966796875,0.09593603014945984,-0.6719216704368591,0.49005699157714844
1772031857302189800,0.50218994140625,0.17546306550502777,-0.38642972707748413,0.537170946598053
1772031857312138800,0.512138671875,0.28741249442100525,-0.08593722432851791,0.531247079372406
1772031857322087700,0.522087646484375,0.4224297106266022,0.1636294573545456,0.46161288022994995
1772031857332036600,0.53203662109375,0.5556356310844421,0.3598681688308716,0.3494614064693451
1772031857341985800,0.54198583984375,0.6702035069465637,0.5066908597946167,0.21064333617687225
1772031857351935000,0.55193505859375,0.7637186646461487,0.5918008685112,0.07016505300998688
1772031857361882600,0.561882568359375,0.8414057493209839,0.6011256575584412,-0.07741322368383408
1772031857371831800,0.571831787109375,0.8937451839447021,0.5540897250175476,-0.2228013426065445
1772031857381780700,0.58178076171875,0.9357829093933105,0.45054975152015686,-0.3692088723182678
1772031857391730000,0.59172998046875,0.9932281970977783,0.29920655488967896,-0.5106415748596191
1772031857401678800,0.601678955078125,1.0545717477798462,0.1618092954158783,-0.621680736541748
1772031857411627800,0.611627685546875,1.0776647329330444,0.01447111926972866,-0.6846542954444885
1772031857421576700,0.62157666015625,1.0335888862609863,-0.1776418685913086,-0.7129490375518799
1772031857431525600,0.631525634765625,0.9167600870132446,-0.3495028018951416,-0.7030986547470093
1772031857441474800,0.641474853515625,0.7588455677032471,-0.5017120242118835,-0.6629453897476196
1772031857451424000,0.651424072265625,0.6001631617546082,-0.6434176564216614,-0.6081138253211975
1772031857461373000,0.661373046875,0.4788665771484375,-0.7322418093681335,-0.541803240776062
1772031857471321900,0.67132177734375,0.40418678522109985,-0.693630576133728,-0.47057411074638367
1772031857481270800,0.681270751953125,0.35043248534202576,-0.49182072281837463,-0.3913421630859375
1772031857491219700,0.6912197265625,0.2763114273548126,-0.23901553452014923,-0.2741042673587799
1772031857501168600,0.701168701171875,0.1778530478477478,-0.014260450378060341,-0.10569342970848083
1772031857511117800,0.711117919921875,0.07557232677936554,0.11158206313848495,0.09847208857536316
1772031857521067000,0.72106689453125,-0.014534133486449718,0.12296654284000397,0.2855309247970581
1772031857531016000,0.731015869140625,-0.09996742755174637,0.06298725306987762,0.43412235379219055
1772031857540964900,0.74096484375,-0.191435307264328,-0.02315136417746544,0.5157762169837952
1772031857550912800,0.750912841796875,-0.27449706196784973,-0.06647564470767975,0.5234001278877258
1772031857560862000,0.760862060546875,-0.3474556803703308,-0.07473543286323547,0.4751977026462555
1772031857570811000,0.770810791015625,-0.38307297229766846,-0.07639964669942856,0.39622962474823
1772031857580759800,0.780759765625,-0.41041299700737,-0.0962953269481659,0.30858126282691956
1772031857590708700,0.790708740234375,-0.4422313868999481,-0.12980452179908752,0.23927068710327148
1772031857600657700,0.80065771484375,-0.4861370623111725,-0.1667976975440979,0.18494726717472076
1772031857610606800,0.81060693359375,-0.5285771489143372,-0.21795037388801575,0.15771645307540894
1772031857620555800,0.8205556640625,-0.572974681854248,-0.3209880590438843,0.1497940719127655
1772031857630505000,0.8305048828125,-0.6068088412284851,-0.38306504487991333,0.14665016531944275
1772031857640454000,0.840453857421875,-0.6181174516677856,-0.3586878180503845,0.13964657485485077
1772031857650402800,0.85040283203125,-0.6206749081611633,-0.25525349378585815,0.13907019793987274
1772031857660351700,0.860351806640625,-0.6083348989486694,-0.12408696115016937,0.1617289036512375
1772031857670300700,0.87030078125,-0.5766001343727112,-0.05386330187320709,0.2117096185684204
1772031857680249600,0.88024951171875,-0.5311311483383179,-0.03722893074154854,0.2610289454460144
1772031857690198800,0.89019873046875,-0.49018388986587524,-0.04547611251473427,0.27946779131889343
1772031857700148000,0.90014794921875,-0.4688112437725067,-0.11114060133695602,0.2769833207130432
1772031857710097000,0.910096923828125,-0.4790049195289612,-0.24573884904384613,0.2627004086971283
1772031857720045800,0.9200458984375,-0.5199989676475525,-0.4142114818096161,0.2671596109867096
1772031857729994800,0.929994873046875,-0.5981336832046509,-0.6254884004592896,0.29361075162887573
1772031857739943700,0.939943603515625,-0.6845769882202148,-0.8252012133598328,0.3194367587566376
1772031857749891800,0.949891845703125,-0.7441003918647766,-0.903783917427063,0.3259660005569458
1772031857759840800,0.9598408203125,-0.727340579032898,-0.8332168459892273,0.2999698221683502
1772031857769789700,0.969789794921875,-0.6491766571998596,-0.6100748181343079,0.22512702643871307
1772031857779739000,0.97973876953125,-0.5526596903800964,-0.16823692619800568,0.1286686509847641
1772031857789687800,0.989687744140625,-0.4507732391357422,0.3440694510936737,0.02564486674964428
1772031857799636700,0.99963671875,-0.36650577187538147,0.7039943933486938,-0.028109174221754074
1772031857809586000,1.0095859375,-0.2939557433128357,0.7923731207847595,-0.007533417083323002
1772031857819534800,1.019534912109375,-0.2444065511226654,0.6230133771896362,0.06955790519714355
1772031857829483800,1.02948388671875,-0.2655450105667114,0.1625697910785675,0.18380099534988403
1772031857839432700,1.0394326171875,-0.35408127307891846,-0.46717166900634766,0.3050062358379364
1772031857849381600,1.049381591796875,-0.46249818801879883,-0.9991021156311035,0.3831048011779785
1772031857859330800,1.059330810546875,-0.5550251603126526,-1.1522085666656494,0.3982829451560974
1772031857869279700,1.06927978515625,-0.6314667463302612,-1.1010668277740479,0.38095831871032715
1772031857879229000,1.07922900390625,-0.7000868320465088,-1.0376124382019043,0.36528295278549194
1772031857889177900,1.089177734375,-0.7231135368347168,-0.9161587953567505,0.3383984863758087
1772031857899126800,1.099126708984375,-0.7134063243865967,-0.8167076110839844,0.2882080078125
1772031857909075700,1.10907568359375,-0.684738039970398,-0.7501705884933472,0.21038484573364258
1772031857919024600,1.119024658203125,-0.6298550367355347,-0.6763168573379517,0.0998988077044487
1772031857928973800,1.128973876953125,-0.5488879680633545,-0.563633918762207,-0.030940841883420944
1772031857938923000,1.138923095703125,-0.4582499563694,-0.37088632583618164,-0.16388051211833954
1772031857948872000,1.148871826171875,-0.360738068819046,-0.1284615695476532,-0.2867262363433838
1772031857958819800,1.15881982421875,-0.2887943685054779,0.08736633509397507,-0.37049171328544617
1772031857968768800,1.168768798828125,-0.23124824464321136,0.21721914410591125,-0.40830060839653015
1772031857978717700,1.1787177734375,-0.18920812010765076,0.2705113887786865,-0.4100548326969147
1772031857988667000,1.1886669921875,-0.1568661630153656,0.305559903383255,-0.3816203474998474
1772031857998615800,1.19861572265625,-0.13438615202903748,0.3061133027076721,-0.3241083025932312
1772031858008564700,1.208564697265625,-0.11145766824483871,0.24816305935382843,-0.23738615214824677
1772031858018514000,1.218513916015625,-0.08576774597167969,0.17237694561481476,-0.1413610875606537
1772031858028462800,1.228462890625,-0.07481557875871658,0.08838777989149094,-0.050434090197086334
1772031858038411800,1.238411865234375,-0.08600857853889465,0.002125597558915615,0.038123469799757004
1772031858048360700,1.248360595703125,-0.11326161026954651,-0.07802718132734299,0.10068105161190033
1772031858058310000,1.258309814453125,-0.14645178616046906,-0.14531806111335754,0.12236237525939941
1772031858068258800,1.2682587890625,-0.19002968072891235,-0.208318293094635,0.09613975882530212
1772031858078207700,1.278207763671875,-0.23718973994255066,-0.2734568119049072,0.020896676927804947
1772031858088156700,1.28815673828125,-0.2726702094078064,-0.30725207924842834,-0.09245677292346954
1772031858098105900,1.29810595703125,-0.29163485765457153,-0.2786630392074585,-0.23597559332847595
1772031858108054800,1.3080546875,-0.28695669770240784,-0.21273650228977203,-0.3924236595630646
1772031858118004000,1.31800390625,-0.26144707202911377,-0.1245882660150528,-0.5478013157844543
1772031858127953000,1.327952880859375,-0.2155730426311493,-0.007859762758016586,-0.6824151873588562
1772031858137901800,1.33790185546875,-0.17171478271484375,0.1016097441315651,-0.7829098105430603
1772031858147850800,1.347850830078125,-0.11832522600889206,0.17227037250995636,-0.8372488021850586
1772031858157798700,1.357798583984375,-0.05412227287888527,0.20397424697875977,-0.8529577255249023
1772031858167747800,1.367747802734375,0.005650711711496115,0.207099050283432,-0.8380439877510071
1772031858177696800,1.37769677734375,0.06332385540008545,0.21813999116420746,-0.819223165512085
1772031858187646000,1.38764599609375,0.10762991011142731,0.2565293312072754,-0.7840701341629028
1772031858197595000,1.397594970703125,0.13405965268611908,0.26820412278175354,-0.7472524642944336
1772031858207543800,1.407543701171875,0.14857132732868195,0.27512943744659424,-0.6946959495544434
1772031858217493200,1.4174931640625,0.15112662315368652,0.27476298809051514,-0.6337888836860657
1772031858227442200,1.427442138671875,0.15531449019908905,0.2542353570461273,-0.5539767742156982
1772031858237391400,1.437391357421875,0.15434029698371887,0.20282383263111115,-0.46583759784698486
1772031858247340300,1.44734033203125,0.1424291729927063,0.15183502435684204,-0.38782191276550293
1772031858257289200,1.457289306640625,0.10153819620609283,0.11120689660310745,-0.2982446253299713
1772031858267238100,1.467238037109375,0.04960586503148079,0.03483426943421364,-0.20060499012470245
1772031858277187000,1.47718701171875,0.00826960802078247,-0.08016901463270187,-0.11280617117881775
1772031858287136000,1.487135986328125,-0.025643937289714813,-0.18205592036247253,-0.0423286035656929
1772031858297085200,1.497085205078125,-0.06259635835886002,-0.25890061259269714,0.0031733671203255653
1772031858307034400,1.507034423828125,-0.10998152941465378,-0.3043079376220703,0.01563727855682373
1772031858316983300,1.5169833984375,-0.17193731665611267,-0.323536217212677,-0.0195675827562809
1772031858326932200,1.52693212890625,-0.23204347491264343,-0.3237968385219574,-0.08968724310398102
1772031858336881200,1.536881103515625,-0.2925134599208832,-0.3039989173412323,-0.18075670301914215
1772031858346830000,1.546830078125,-0.31897100806236267,-0.26017722487449646,-0.27347350120544434
1772031858356779000,1.556779052734375,-0.295932799577713,-0.20678165555000305,-0.35925498604774475
1772031858366728200,1.566728271484375,-0.234634131193161,-0.1530637890100479,-0.4401101768016815
1772031858376676000,1.576676025390625,-0.1505829095840454,-0.09678079932928085,-0.5003324747085571
1772031858386625300,1.586625244140625,-0.06698304414749146,-0.03448684513568878,-0.5381040573120117
1772031858396574200,1.59657421875,-0.007469645701348782,0.00854877196252346,-0.5407299399375916
1772031858406523100,1.606523193359375,0.004139312077313662,-0.00753129692748189,-0.5104930996894836
1772031858416472300,1.616472412109375,-0.013128092512488365,-0.04699801281094551,-0.46724972128868103
1772031858426421200,1.626421142578125,-0.041725870221853256,-0.06243758276104927,-0.4274502992630005
1772031858436370200,1.6363701171875,-0.08350739628076553,-0.06822756677865982,-0.39398476481437683
1772031858446319000,1.646319091796875,-0.10652364045381546,-0.04010359197854996,-0.41117119789123535
1772031858456268000,1.65626806640625,-0.040057260543107986,0.18794555962085724,-0.5299721956253052
1772031858466217200,1.66621728515625,0.13760384917259216,0.6889636516571045,-0.7644444704055786
1772031858476166100,1.676166259765625,0.3968537747859955,1.3401979207992554,-1.0575742721557617
1772031858486115300,1.686115234375,0.695914089679718,1.9488002061843872,-1.2818238735198975
1772031858496064300,1.696064208984375,0.9620988965034485,2.3133833408355713,-1.3536053895950317
1772031858506013200,1.70601318359375,1.128822922706604,2.4048538208007812,-1.2662674188613892
1772031858515962000,1.715962158203125,1.197340726852417,2.2689714431762695,-1.0704457759857178
1772031858525911000,1.7259111328125,1.1927897930145264,1.8990859985351562,-0.7953977584838867
1772031858535860000,1.73585986328125,1.137680172920227,1.3022258281707764,-0.44398462772369385
1772031858545809200,1.74580908203125,1.047046422958374,0.5872970819473267,-0.018897417932748795
1772031858555758300,1.75575830078125,0.9258691072463989,-0.11387033760547638,0.42931443452835083
1772031858565707300,1.765707275390625,0.6911894083023071,-0.5949272513389587,0.8590108156204224
1772031858575656200,1.77565625,0.34190064668655396,-0.8552017211914062,1.2154195308685303
1772031858585604000,1.78560400390625,-0.01629519835114479,-0.9802023768424988,1.4806345701217651
1772031858595553300,1.79555322265625,-0.30818748474121094,-1.0114719867706299,1.642189860343933
1772031858605502200,1.805502197265625,-0.5345132946968079,-1.010728359222412,1.7097285985946655
1772031858615451100,1.815451171875,-0.7014066576957703,-0.9682459831237793,1.6748017072677612
1772031858625400000,1.825400146484375,-0.7976884245872498,-0.8515347838401794,1.5447852611541748
1772031858635349200,1.835349365234375,-0.8070891499519348,-0.6393990516662598,1.3318887948989868
1772031858645298200,1.845298095703125,-0.7499655485153198,-0.3738955557346344,1.0521177053451538
1772031858655247000,1.8552470703125,-0.628530740737915,-0.11005297303199768,0.7231897711753845
1772031858665196300,1.8651962890625,-0.4552145004272461,0.14650465548038483,0.3782585859298706
1772031858675145200,1.875145263671875,-0.2242494374513626,0.3154745101928711,0.05678599327802658
1772031858685094100,1.88509423828125,0.02666965313255787,0.41046273708343506,-0.22483602166175842
1772031858695043000,1.89504296875,0.24712452292442322,0.4395362138748169,-0.4459865093231201
1772031858704992300,1.9049921875,0.42764201760292053,0.35621923208236694,-0.5968529582023621
1772031858714941200,1.914941162109375,0.5633266568183899,0.1952040046453476,-0.6737972497940063
1772031858724890000,1.92489013671875,0.6473779082298279,0.0029479574877768755,-0.6977711915969849
1772031858734839300,1.93483935546875,0.6730476021766663,-0.22238902747631073,-0.6758919954299927
1772031858744788200,1.944788330078125,0.6368433237075806,-0.4394965171813965,-0.6380934715270996
1772031858754737200,1.954737060546875,0.5623283386230469,-0.5760548710823059,-0.6058385968208313
1772031858764686000,1.96468603515625,0.47544243931770325,-0.6093149185180664,-0.5927589535713196
1772031858774635000,1.974635009765625,0.3862878084182739,-0.5863707065582275,-0.5892307758331299
1772031858784584200,1.984584228515625,0.31140661239624023,-0.5469524264335632,-0.5946643352508545
1772031858794533400,1.994533447265625,0.26665300130844116,-0.5025242567062378,-0.6253836154937744
1772031858804481300,2.004481201171875,0.24778689444065094,-0.4515778720378876,-0.6823433041572571
1772031858814430200,2.01443017578125,0.2516855001449585,-0.3806951940059662,-0.773872971534729
1772031858824379100,2.024379150390625,0.2715412974357605,-0.29242396354675293,-0.8807913661003113
1772031858834328000,2.034328125,0.29723039269447327,-0.2134670913219452,-1.002366542816162
1772031858844277200,2.04427734375,0.3097732365131378,-0.15472331643104553,-1.1256831884384155
1772031858854226200,2.05422607421875,0.2931508421897888,-0.1027650386095047,-1.2566113471984863
1772031858864175000,2.064175048828125,0.2251635193824768,-0.03795388340950012,-1.3888814449310303
1772031858874124300,2.074124267578125,0.10855115950107574,0.06723272055387497,-1.5048298835754395
1772031858884073200,2.0840732421875,-0.05489056184887886,0.19421778619289398,-1.5858211517333984
1772031858894022100,2.094022216796875,-0.2576327621936798,0.3106016218662262,-1.605059027671814
1772031858903971000,2.10397119140625,-0.4728219211101532,0.3871166706085205,-1.5483232736587524
1772031858913920300,2.113920166015625,-0.6696270704269409,0.39586570858955383,-1.4118330478668213
1772031858923869200,2.123869140625,-0.8373801112174988,0.3561740517616272,-1.1982159614562988
1772031858933818000,2.133818115234375,-0.966550350189209,0.2512974441051483,-0.9262465238571167
1772031858943767000,2.14376708984375,-1.0363863706588745,0.09139522165060043,-0.6065962910652161
1772031858953716200,2.15371630859375,-1.0558022260665894,-0.08073499798774719,-0.27378472685813904
1772031858963665200,2.1636650390625,-1.0429376363754272,-0.2590004801750183,0.06058214232325554
1772031858973614300,2.1736142578125,-1.0043522119522095,-0.3863552212715149,0.3484509289264679
1772031858983563300,2.183563232421875,-0.9453927278518677,-0.4310789704322815,0.564129650592804
1772031858993512200,2.19351220703125,-0.8967439532279968,-0.42813217639923096,0.6873106956481934
1772031859003461000,2.203461181640625,-0.8861426711082458,-0.3844776153564453,0.7249627709388733
1772031859013410000,2.21341015625,-0.9154003858566284,-0.3138498067855835,0.6945156455039978
1772031859023359000,2.22335888671875,-0.9592059850692749,-0.23553095757961273,0.6341853141784668
1772031859033307100,2.23330712890625,-0.9937930107116699,-0.18154814839363098,0.5597041249275208
1772031859043256300,2.24325634765625,-1.0424716472625732,-0.20409439504146576,0.4847681224346161
1772031859053205200,2.253205322265625,-1.0861930847167969,-0.3350699841976166,0.37565869092941284
1772031859063154200,2.263154296875,-1.1658849716186523,-0.4354928135871887,0.2541050314903259
1772031859073103000,2.27310302734375,-1.22747802734375,-0.46193400025367737,0.10839363187551498
1772031859083052000,2.283052001953125,-1.1957744359970093,-0.38210877776145935,-0.047068990767002106
1772031859093001200,2.293001220703125,-1.0263577699661255,-0.1415102779865265,-0.20494331419467926
1772031859102950100,2.3029501953125,-0.7288892269134521,0.2637469470500946,-0.3785995841026306
1772031859112899000,2.312899169921875,-0.37047863006591797,0.781029224395752,-0.5382826924324036
1772031859122848300,2.32284814453125,-0.09587029367685318,1.292887806892395,-0.6282554268836975
1772031859132797200,2.332797119140625,0.053382571786642075,1.6221387386322021,-0.5919864177703857
1772031859142746000,2.34274609375,0.12517493963241577,1.7089840173721313,-0.41798266768455505
1772031859152695300,2.3526953125,0.09944987297058105,1.5730048418045044,-0.1191437765955925
1772031859162644200,2.362644287109375,0.003645454067736864,1.2504009008407593,0.25014635920524597
1772031859172593200,2.37259326171875,-0.1276598423719406,0.8389373421669006,0.6312302947044373
1772031859182542000,2.3825419921875,-0.27486076951026917,0.4281405806541443,0.9712850451469421
1772031859192491300,2.3924912109375,-0.4296833872795105,0.07826671749353409,1.236742615699768
1772031859202440200,2.402440185546875,-0.5553123950958252,-0.18564482033252716,1.4038385152816772
1772031859212389000,2.41238916015625,-0.6296870112419128,-0.361631840467453,1.49190092086792
1772031859222338000,2.422338134765625,-0.6618363857269287,-0.48217156529426575,1.5106613636016846
1772031859232287000,2.432286865234375,-0.6603037118911743,-0.549957811832428,1.4779598712921143
1772031859242236000,2.44223583984375,-0.6332636475563049,-0.5568501353263855,1.407690405845642
1772031859252184800,2.452184814453125,-0.5995533466339111,-0.5133151412010193,1.2974005937576294
1772031859262133000,2.462133056640625,-0.5620027780532837,-0.41127222776412964,1.1546281576156616
1772031859272082000,2.47208203125,-0.5094484686851501,-0.26386386156082153,0.9746096730232239
1772031859282030800,2.48203076171875,-0.4438256025314331,-0.10809613019227982,0.779461681842804
1772031859291980000,2.49197998046875,-0.37485745549201965,0.03099837340414524,0.5806612372398376
1772031859301929000,2.501928955078125,-0.3073473572731018,0.14170247316360474,0.402459055185318
1772031859311878000,2.5118779296875,-0.23097293078899384,0.22608739137649536,0.24508780241012573
1772031859321826800,2.521826904296875,-0.15765699744224548,0.28300732374191284,0.1258091777563095
1772031859331776000,2.53177587890625,-0.09468256682157516,0.3089931309223175,0.05248596519231796
1772031859341725000,2.541724853515625,-0.05082794278860092,0.3021428883075714,0.034681592136621475
1772031859351673900,2.551673828125,-0.016730956733226776,0.25305578112602234,0.07321034371852875
1772031859361622800,2.561622802734375,0.016973963007330894,0.1380654275417328,0.1378941684961319
1772031859371572000,2.571572021484375,0.04211500287055969,0.016108373180031776,0.21800711750984192
1772031859381521000,2.58152099609375,0.039668139070272446,-0.10163721442222595,0.3030237853527069
1772031859391470000,2.591469970703125,0.0162845216691494,-0.23516836762428284,0.3822632133960724
1772031859401419000,2.6014189453125,-0.029744628816843033,-0.3508393466472626,0.44628435373306274
1772031859411368000,2.611367919921875,-0.08442492038011551,-0.44720983505249023,0.4862983226776123
1772031859421316900,2.62131689453125,-0.1219659298658371,-0.5077143907546997,0.5006976127624512
1772031859431265800,2.631265869140625,-0.13299034535884857,-0.5459914803504944,0.48407551646232605
1772031859441215000,2.641215087890625,-0.12440764158964157,-0.5687744617462158,0.45037102699279785
1772031859451164000,2.651163818359375,-0.10033532977104187,-0.5708280205726624,0.3886245787143707
1772031859461113000,2.661113037109375,-0.05619719251990318,-0.551827609539032,0.30411672592163086
1772031859471062000,2.67106201171875,-0.007388372905552387,-0.5079960227012634,0.1824805736541748
1772031859481011000,2.681010986328125,0.04680275544524193,-0.4390369653701782,0.03893034905195236
1772031859490958800,2.690958740234375,0.10813535749912262,-0.37638798356056213,-0.11596043407917023
1772031859500908800,2.70090869140625,0.17443934082984924,-0.3217372000217438,-0.27176278829574585
1772031859510857000,2.71085693359375,0.24989201128482819,-0.27525410056114197,-0.416582316160202
1772031859520806000,2.720805908203125,0.3399243950843811,-0.2239656150341034,-0.5253728032112122
1772031859530755000,2.730755126953125,0.43359336256980896,-0.15212978422641754,-0.5990025401115417
1772031859540704000,2.7407041015625,0.5174962878227234,-0.08309325575828552,-0.6187304854393005
1772031859550653000,2.75065283203125,0.5826667547225952,-0.04799944534897804,-0.5830976366996765
1772031859560601900,2.760601806640625,0.6242622137069702,-0.02224942483007908,-0.5101646184921265
1772031859570551000,2.770551025390625,0.6408981680870056,-0.003840590361505747,-0.42027997970581055
1772031859580500000,2.7805,0.6396296620368958,0.007966251112520695,-0.3319196105003357
1772031859590449000,2.790448974609375,0.615331768989563,0.03901604562997818,-0.26225265860557556
1772031859600397800,2.800397705078125,0.5812112092971802,0.0968526303768158,-0.2226588875055313
1772031859610347000,2.810346923828125,0.5340394377708435,0.17412345111370087,-0.21613681316375732
1772031859620296000,2.8202958984375,0.48634421825408936,0.2330901324748993,-0.22584103047847748
1772031859630244900,2.830244873046875,0.4430212378501892,0.25157085061073303,-0.2448573261499405
1772031859640194000,2.840194091796875,0.4037054181098938,0.2624061405658722,-0.27980655431747437
1772031859650143000,2.85014306640625,0.3680805563926697,0.28173351287841797,-0.32609227299690247
1772031859660092000,2.860091796875,0.3495393395423889,0.3249967694282532,-0.3937913477420807
1772031859670040800,2.870040771484375,0.3612806797027588,0.4039539098739624,-0.4532349705696106
1772031859679989800,2.87998974609375,0.3823739290237427,0.4624517560005188,-0.4701942801475525
1772031859689939000,2.88993896484375,0.44820088148117065,0.42868661880493164,-0.45183897018432617
1772031859699887900,2.899887939453125,0.5367141366004944,0.3969982862472534,-0.40942928194999695
1772031859709837000,2.909837158203125,0.6055395603179932,0.3741843104362488,-0.33972635865211487
1772031859719786000,2.919785888671875,0.6365928649902344,0.3204200863838196,-0.24685285985469818
1772031859729734000,2.92973388671875,0.6093087792396545,0.23484793305397034,-0.146705761551857
1772031859739682800,2.939682861328125,0.5160439014434814,0.10611222684383392,-0.036204420030117035
1772031859749632000,2.949632080078125,0.3762095868587494,-0.05705219507217407,0.06377516686916351
1772031859759581000,2.959580810546875,0.2086426466703415,-0.2594571113586426,0.12533745169639587
1772031859769529900,2.96952978515625,-0.007036382332444191,-0.44888538122177124,0.1319921612739563
1772031859779479000,2.97947900390625,-0.2634720504283905,-0.5475723743438721,0.08581408113241196
1772031859789428000,2.989427978515625,-0.3519316017627716,-0.4025166630744934,-0.0523802749812603
1772031859799377000,2.999376953125,-0.19900663197040558,0.1252344250679016,-0.29956236481666565
1772031859809325800,3.009325927734375,0.19670741260051727,0.8903800249099731,-0.6503062844276428
1772031859819275000,3.01927490234375,0.7208111882209778,1.605835199356079,-1.031071424484253
1772031859829224000,3.029223876953125,1.2475900650024414,2.0413947105407715,-1.3040779829025269
1772031859839172900,3.0391728515625,1.675516963005066,2.0605180263519287,-1.382685661315918
1772031859849121800,3.049121826171875,2.028203248977661,1.6284245252609253,-1.287559151649475
1772031859859071000,3.059071044921875,2.153764009475708,1.0165636539459229,-1.0325404405593872
1772031859869020000,3.06902001953125,2.0238382816314697,0.3303220570087433,-0.6866874694824219
1772031859878968800,3.07896875,1.6913870573043823,-0.3582732677459717,-0.3011089563369751
1772031859888918000,3.08891796875,1.2607702016830444,-0.9240232110023499,0.06945256888866425
1772031859898867000,3.098866943359375,0.8228492140769958,-1.2522472143173218,0.37871935963630676
1772031859908816000,3.10881591796875,0.43738672137260437,-1.3491361141204834,0.6149761080741882
1772031859918764800,3.118764892578125,0.10681549459695816,-1.2180113792419434,0.7984446883201599
1772031859928714000,3.1287138671875,-0.1576329469680786,-0.9369279742240906,0.9518409371376038
1772031859938663000,3.138662841796875,-0.3293808698654175,-0.665316641330719,1.0986636877059937
1772031859948612000,3.148612060546875,-0.39315930008888245,-0.4404244124889374,1.2198486328125
1772031859958560000,3.15856005859375,-0.3945983648300171,-0.24514830112457275,1.297620177268982
1772031859968510000,3.168510009765625,-0.3496948182582855,-0.06760521233081818,1.318753719329834
1772031859978457900,3.178457763671875,-0.26466310024261475,0.112282894551754,1.2748655080795288
1772031859988406800,3.18840673828125,-0.14092543721199036,0.26956307888031006,1.1699084043502808
1772031859998356000,3.19835595703125,0.008830193430185318,0.40120190382003784,1.019500970840454
1772031860008305000,3.208304931640625,0.18121714890003204,0.5112432241439819,0.8328834772109985
1772031860018254000,3.218254150390625,0.3214321732521057,0.6092690825462341,0.6407327055931091
1772031860028203000,3.228203125,0.4363885819911957,0.6352831125259399,0.465421587228775
1772031860038152000,3.23815185546875,0.5397989749908447,0.5844185948371887,0.3163069486618042
1772031860048100900,3.248100830078125,0.5962547659873962,0.5180991888046265,0.21348492801189423
1772031860058049800,3.2580498046875,0.6153430342674255,0.4195210933685303,0.15274590253829956
1772031860067999000,3.2679990234375,0.6082254648208618,0.30553752183914185,0.11565898358821869
1772031860077948000,3.277947998046875,0.585318386554718,0.21010124683380127,0.09070142358541489
1772031860087896800,3.287896728515625,0.5511630773544312,0.1332021951675415,0.06398618966341019
1772031860097846000,3.297845947265625,0.5284188985824585,0.06053997203707695,0.020662445574998856
1772031860107795000,3.307794921875,0.5198168754577637,0.02527332678437233,-0.044873155653476715
1772031860117743900,3.317743896484375,0.5184000730514526,0.021289989352226257,-0.12733334302902222
1772031860127693000,3.327693115234375,0.5254894495010376,0.02888985350728035,-0.2259289026260376
1772031860137642000,3.33764208984375,0.5344361066818237,0.045148815959692,-0.34224531054496765
1772031860147591000,3.3475908203125,0.5184430480003357,0.06827064603567123,-0.4669789969921112
1772031860157539800,3.357539794921875,0.4637787342071533,0.0986630916595459,-0.6097262501716614
1772031860167488800,3.36748876953125,0.39706867933273315,0.12363661825656891,-0.75336092710495
1772031860177438000,3.37743798828125,0.29689905047416687,0.1509241759777069,-0.8794144988059998
1772031860187387000,3.387386962890625,0.15525799989700317,0.1460239589214325,-0.9636401534080505
1772031860197335000,3.3973349609375,-0.008954254910349846,0.11192966252565384,-0.9988656044006348
1772031860207284000,3.407283935546875,-0.19979824125766754,0.0609559565782547,-0.9914514422416687
1772031860217233000,3.41723291015625,-0.4003823697566986,0.013955601491034031,-0.9311943650245667
1772031860227187700,3.427187744140625,-0.6013383865356445,-0.04962390661239624,-0.8315308690071106
1772031860237136600,3.43713671875,-0.7683095335960388,-0.10698888450860977,-0.6990184783935547
1772031860247085600,3.44708544921875,-0.8875946402549744,-0.16841202974319458,-0.5623493194580078
1772031860257034800,3.45703466796875,-0.9521438479423523,-0.22883963584899902,-0.42961421608924866
1772031860266983700,3.466983642578125,-0.984157919883728,-0.2624964118003845,-0.3099309504032135
1772031860276932600,3.4769326171875,-0.9728849530220032,-0.2651946246623993,-0.2217700481414795
1772031860286881800,3.4868818359375,-0.9560623168945312,-0.22100798785686493,-0.1291825920343399
1772031860296830700,3.496830810546875,-0.8765569925308228,-0.23337393999099731,-0.07017534226179123
1772031860306779600,3.506779541015625,-0.7758319973945618,-0.23165912926197052,-0.03454091027379036
1772031860316728600,3.516728515625,-0.6898180246353149,-0.21173718571662903,-0.027574995532631874
1772031860326677500,3.526677490234375,-0.6158857345581055,-0.1756761223077774,-0.04631086438894272
1772031860336626700,3.536626708984375,-0.537891149520874,-0.11713182181119919,-0.07408329844474792
1772031860346575600,3.54657568359375,-0.44562485814094543,-0.04040295630693436,-0.11155450344085693
1772031860356524800,3.55652490234375,-0.34942805767059326,0.043489981442689896,-0.150617316365242
1772031860366473700,3.5664736328125,-0.2584531307220459,0.1050497442483902,-0.18974047899246216
1772031860376422700,3.576422607421875,-0.18065787851810455,0.1515222191810608,-0.22655732929706573
1772031860386371600,3.58637158203125,-0.11859637498855591,0.1824825406074524,-0.2558118999004364
1772031860396320500,3.596320556640625,-0.07853588461875916,0.1730796992778778,-0.25733423233032227
1772031860406269700,3.606269775390625,-0.0795593336224556,0.07162126153707504,-0.22664210200309753
1772031860416219000,3.616218994140625,-0.13051798939704895,-0.11839611828327179,-0.1668354570865631
1772031860426167800,3.626167724609375,-0.20976674556732178,-0.27832427620887756,-0.095974862575531
1772031860436115700,3.63611572265625,-0.24757641553878784,-0.3589552938938141,-0.0411069355905056
1772031860446064600,3.646064697265625,-0.23387551307678223,-0.3633146286010742,-0.009074433706700802
1772031860456013600,3.656013671875,-0.20423580706119537,-0.28848692774772644,-0.015777839347720146
1772031860465962800,3.665962646484375,-0.11365797370672226,-0.15471340715885162,-0.06891722232103348
1772031860475911700,3.67591162109375,-0.020514775067567825,0.08356314897537231,-0.14863762259483337
1772031860485860600,3.685860595703125,0.09421766549348831,0.35496747493743896,-0.21981672942638397
1772031860495809800,3.695809814453125,0.20732951164245605,0.546714186668396,-0.22173750400543213
1772031860505758700,3.7057587890625,0.3329857289791107,0.6074217557907104,-0.12913060188293457
1772031860515707600,3.715707763671875,0.4232317805290222,0.6068259477615356,0.08859225362539291
1772031860525656600,3.725656494140625,0.4436968266963959,0.49702757596969604,0.41200944781303406
1772031860535605800,3.735605712890625,0.40079909563064575,0.28105950355529785,0.8001787066459656
1772031860545554700,3.7455546875,0.3023172616958618,0.056436505168676376,1.1820381879806519
1772031860555503600,3.755503662109375,0.1603294312953949,-0.06555503606796265,1.5054453611373901
1772031860565452500,3.76545263671875,0.01631341502070427,-0.09424207359552383,1.7434512376785278
1772031860575401700,3.775401611328125,-0.07596290111541748,-0.061871934682130814,1.858079433441162
1772031860585350700,3.7853505859375,-0.09841947257518768,0.020684728398919106,1.8714591264724731
1772031860595299800,3.7952998046875,-0.07274849712848663,0.10870791971683502,1.7909601926803589
1772031860605248800,3.805248779296875,-0.00959855318069458,0.16828735172748566,1.6314793825149536
1772031860615197700,3.81519775390625,0.07812192291021347,0.21903526782989502,1.4230502843856812
1772031860625146600,3.825146728515625,0.17745570838451385,0.25104621052742004,1.1827641725540161
1772031860635095600,3.835095458984375,0.2968815863132477,0.2688587009906769,0.93669593334198
1772031860645044500,3.84504443359375,0.4176548719406128,0.2763395309448242,0.7074795365333557
1772031860654993700,3.85499365234375,0.5119994878768921,0.28487974405288696,0.5028905868530273
1772031860664941800,3.86494189453125,0.6008042097091675,0.27692940831184387,0.3301904499530792
1772031860674890800,3.874890869140625,0.7049585580825806,0.24548593163490295,0.18698778748512268
1772031860684839700,3.884839599609375,0.7775598168373108,0.2100887894630432,0.07868608087301254
1772031860694788600,3.89478857421875,0.834027111530304,0.14002454280853271,-0.00003585591912269592
1772031860704737500,3.904737548828125,0.9015036225318909,0.03887743130326271,-0.07504218816757202
1772031860714686700,3.914686767578125,0.9774540662765503,-0.05242443457245827,-0.1571860909461975
1772031860724635600,3.9246357421875,1.0422272682189941,-0.13207745552062988,-0.23693764209747314
1772031860734584600,3.93458447265625,1.087215542793274,-0.20791003108024597,-0.30828335881233215
1772031860744533800,3.94453369140625,1.1068270206451416,-0.3101698160171509,-0.3454139530658722
1772031860754482700,3.954482666015625,1.0983108282089233,-0.4405730664730072,-0.34605875611305237
1772031860764431600,3.964431640625,1.0846836566925049,-0.561964750289917,-0.316496342420578
1772031860774380800,3.974380859375,1.0638059377670288,-0.651608407497406,-0.2777358889579773
1772031860784329700,3.984329833984375,1.0335841178894043,-0.7067156434059143,-0.2440870851278305
1772031860794278700,3.994278564453125,0.9992167949676514,-0.7073851227760315,-0.23574866354465485
1772031860804227600,4.0042275390625,0.9639183878898621,-0.6329308748245239,-0.23884671926498413
1772031860814176500,4.014176513671875,0.9422683119773865,-0.5199703574180603,-0.2622353136539459
1772031860824125700,4.024125732421875,0.9416776299476624,-0.36442849040031433,-0.3112153708934784
1772031860834074600,4.03407470703125,0.9615920782089233,-0.15113022923469543,-0.3765034079551697
1772031860844023800,4.04402392578125,0.9903172254562378,0.07321206480264664,-0.45902225375175476
1772031860853972700,4.05397265625,1.023282527923584,0.27735623717308044,-0.545456051826477
1772031860863921700,4.063921630859375,1.0483663082122803,0.4741276204586029,-0.6265546679496765
1772031860873870600,4.07387060546875,1.0606356859207153,0.6401777267456055,-0.686241090297699
1772031860883818800,4.08381884765625,1.0567034482955933,0.7316640019416809,-0.7047548294067383
1772031860893767700,4.093767578125,1.0324249267578125,0.7580699324607849,-0.6809688210487366
1772031860903716600,4.103716552734375,1.0063971281051636,0.7370860576629639,-0.6285935044288635
1772031860913665800,4.113665771484375,0.9731051921844482,0.688642144203186,-0.5575357675552368
1772031860923614700,4.12361474609375,0.919329047203064,0.6333155035972595,-0.4805072844028473
1772031860933563600,4.133563720703125,0.8476658463478088,0.584746778011322,-0.40832728147506714
1772031860943512600,4.1435126953125,0.7511630058288574,0.547921359539032,-0.3407684862613678
1772031860953461800,4.153461669921875,0.6382251977920532,0.5200841426849365,-0.2770855724811554
1772031860963410700,4.16341064453125,0.5346298217773438,0.5073100328445435,-0.20882076025009155
1772031860973359600,4.173359619140625,0.4439978003501892,0.5018693208694458,-0.15164971351623535
1772031860983308800,4.183308837890625,0.3793160021305084,0.4717766344547272,-0.11131854355335236
1772031860993257700,4.1932578125,0.33059147000312805,0.4119739532470703,-0.0967763140797615
1772031861003206700,4.20320654296875,0.2950102984905243,0.3758426308631897,-0.10921194404363632
1772031861013155600,4.213155517578125,0.2735885679721832,0.37721604108810425,-0.137879878282547
1772031861023104800,4.223104736328125,0.27815935015678406,0.3921246826648712,-0.18523859977722168
1772031861033053700,4.2330537109375,0.3096937835216522,0.42765045166015625,-0.2429995983839035
1772031861043002600,4.243002685546875,0.35083454847335815,0.47032493352890015,-0.299537718296051
1772031861052951600,4.25295166015625,0.37329453229904175,0.4859970808029175,-0.34453701972961426
1772031861062900700,4.262900634765625,0.3647995889186859,0.449346125125885,-0.355834424495697
1772031861072849700,4.272849609375,0.3114662766456604,0.38062235713005066,-0.3140995502471924
1772031861082798600,4.282798583984375,0.23211607336997986,0.26741644740104675,-0.21659591794013977
1772031861092747800,4.292747802734375,0.12580637633800507,0.11913321912288666,-0.08170080184936523
1772031861102696700,4.30269677734375,-0.008532784879207611,-0.0587875097990036,0.07250820845365524
1772031861112644600,4.31264453125,-0.17888346314430237,-0.22094881534576416,0.20722302794456482
1772031861122593500,4.322593505859375,-0.34997662901878357,-0.30222687125205994,0.3132581114768982
1772031861132542700,4.332542724609375,-0.48752880096435547,-0.2978772521018982,0.37644705176353455
1772031861142491600,4.34249169921875,-0.5461161732673645,-0.159312441945076,0.3751314580440521
1772031861152440800,4.35244091796875,-0.4697279632091522,0.23877672851085663,0.2590045630931854
1772031861162389800,4.3623896484375,-0.2707480192184448,0.7694773077964783,0.014653683640062809
1772031861172338700,4.372338623046875,-0.04291282594203949,1.1907649040222168,-0.2867260277271271
1772031861182287600,4.38228759765625,0.1210598573088646,1.3806142807006836,-0.5682599544525146
1772031861192236500,4.392236572265625,0.2190798670053482,1.3174153566360474,-0.7550523281097412
1772031861202185700,4.402185791015625,0.25848641991615295,1.02339768409729,-0.8288301229476929
1772031861212134700,4.412134765625,0.23449471592903137,0.581722617149353,-0.7855026721954346
1772031861222082300,4.422082275390625,0.1534789651632309,0.12809015810489655,-0.6637319922447205
1772031861232031200,4.43203125,0.024084845557808876,-0.2076994627714157,-0.48465025424957275
1772031861241980400,4.44198046875,-0.12696139514446259,-0.37866508960723877,-0.2784145474433899
1772031861251929300,4.451929443359375,-0.2724018096923828,-0.41248804330825806,-0.05694695934653282
1772031861261878300,4.461878173828125,-0.4021739065647125,-0.3994002044200897,0.17467081546783447
1772031861271827200,4.4718271484375,-0.4867633581161499,-0.36714667081832886,0.39096611738204956
1772031861281776000,4.481776123046875,-0.5190302133560181,-0.27861759066581726,0.5581268668174744
1772031861291725000,4.49172509765625,-0.5113769769668579,-0.15028275549411774,0.6577103137969971
1772031861301674200,4.50167431640625,-0.46153461933135986,-0.013975244015455246,0.6795040369033813
1772031861311623400,4.51162353515625,-0.37640589475631714,0.11810891330242157,0.6323984861373901
1772031861321572400,4.521572265625,-0.26164737343788147,0.21311479806900024,0.5362048745155334
1772031861331521300,4.531521240234375,-0.1259372979402542,0.2419462651014328,0.39622762799263
1772031861341469200,4.54146923828125,0.006181851960718632,0.231414794921875,0.23972779512405396
1772031861351418400,4.55141845703125,0.09837992489337921,0.19008944928646088,0.09710206836462021
1772031861361367300,4.5613671875,0.14374500513076782,0.11287668347358704,-0.018008273094892502
1772031861371316200,4.571316162109375,0.14628833532333374,0.03551584482192993,-0.08568958938121796
1772031861381265200,4.58126513671875,0.13521064817905426,-0.03427974879741669,-0.11003007739782333
1772031861391214300,4.59121435546875,0.11648503690958023,-0.09268894791603088,-0.09523838758468628
1772031861401163300,4.601163330078125,0.09192962199449539,-0.12629590928554535,-0.05360545590519905
1772031861411112200,4.6111123046875,0.0636507123708725,-0.15682482719421387,-0.006111933849751949
1772031861421061400,4.621061279296875,0.038817260414361954,-0.18753241002559662,0.01731402985751629
1772031861431010300,4.63101025390625,0.0209497157484293,-0.20520976185798645,0.011343210935592651
1772031861440959200,4.640959228515625,0.01999124512076378,-0.20201848447322845,-0.026618286967277527
1772031861450908200,4.650908203125,0.035716358572244644,-0.17551758885383606,-0.09352999925613403
1772031861460857000,4.660857177734375,0.0692940279841423,-0.13403646647930145,-0.17029589414596558
1772031861470806300,4.67080615234375,0.11101499944925308,-0.07817401736974716,-0.25346091389656067
1772031861480755500,4.68075537109375,0.14357534050941467,-0.01271990966051817,-0.34531041979789734
1772031861490704400,4.690704345703125,0.15111514925956726,0.06640732288360596,-0.43966540694236755
1772031861500653300,4.7006533203125,0.13967421650886536,0.13431526720523834,-0.5325192213058472
1772031861510602200,4.710602294921875,0.10475751012563705,0.16530433297157288,-0.6174221038818359
1772031861520551200,4.72055126953125,0.06074744090437889,0.17283841967582703,-0.6908443570137024
1772031861530500000,4.7305,0.013925044797360897,0.1750289797782898,-0.7440441250801086
1772031861540449000,4.740448974609375,-0.04666772857308388,0.16504931449890137,-0.7643105387687683
1772031861550398500,4.7503984375,-0.12533162534236908,0.1203216090798378,-0.7374741435050964
1772031861560347400,4.760347412109375,-0.22011752426624298,0.05064665898680687,-0.6612259745597839
1772031861570295300,4.77029541015625,-0.3184697926044464,-0.019087672233581543,-0.5422360301017761
1772031861580244200,4.780244140625,-0.4098833203315735,-0.08513593673706055,-0.39165210723876953
1772031861590193200,4.790193115234375,-0.5101038217544556,-0.14197993278503418,-0.2128777801990509
1772031861600142300,4.800142333984375,-0.5818754434585571,-0.21029454469680786,-0.04500514268875122
1772031861610091300,4.81009130859375,-0.6475831866264343,-0.24489577114582062,0.08902154117822647
1772031861620040200,4.820040283203125,-0.707089900970459,-0.24868330359458923,0.17320886254310608
1772031861629989000,4.829989013671875,-0.7389171123504639,-0.24877604842185974,0.19784067571163177
1772031861639938300,4.839938232421875,-0.7562636137008667,-0.22386351227760315,0.19484221935272217
1772031861649887200,4.84988720703125,-0.7630965113639832,-0.19565926492214203,0.17754875123500824
1772031861659836400,4.85983642578125,-0.7338810563087463,-0.1675911545753479,0.1398506462574005
1772031861669785300,4.869785400390625,-0.6786673665046692,-0.11775418370962143,0.09090924263000488
1772031861679734300,4.879734375,-0.6237133145332336,-0.05425137281417847,0.05321832373738289
1772031861689683200,4.88968310546875,-0.5822320580482483,-0.027825666591525078,0.03203504532575607
1772031861699632000,4.899632080078125,-0.577325165271759,-0.04625660926103592,0.03959043323993683
1772031861709581300,4.909581298828125,-0.5990636944770813,-0.09670004993677139,0.06957799196243286
1772031861719530200,4.9195302734375,-0.6349647045135498,-0.1848059445619583,0.12570758163928986
1772031861729479400,4.9294794921875,-0.6644719243049622,-0.3064842224121094,0.19087186455726624
1772031861739428400,4.939428466796875,-0.6973968148231506,-0.44304338097572327,0.2507895231246948
1772031861749377300,4.949377197265625,-0.7317835092544556,-0.5435689687728882,0.30156072974205017
1772031861759326200,4.959326171875,-0.7377697825431824,-0.5981144905090332,0.3343602418899536
1772031861769275100,4.969275146484375,-0.7252883315086365,-0.588706910610199,0.3571361303329468
1772031861779224000,4.97922412109375,-0.7055593729019165,-0.5439998507499695,0.36515170335769653
1772031861789173200,4.98917333984375,-0.6679602265357971,-0.5285778641700745,0.34238970279693604
1772031861799121200,4.99912109375,-0.6149665713310242,-0.43944689631462097,0.2779396176338196
1772031861809070300,5.0090703125,-0.5322123765945435,-0.23775050044059753,0.18506871163845062
1772031861819019300,5.019019287109375,-0.4403626024723053,-0.0028266776353120804,0.10077513754367828
1772031861828968200,5.02896826171875,-0.37964728474617004,0.18064726889133453,0.06019693240523338
1772031861838917400,5.03891748046875,-0.34850773215293884,0.27574557065963745,0.07510477304458618
1772031861848866300,5.0488662109375,-0.37695246934890747,0.26366719603538513,0.17118941247463226
1772031861858815200,5.058815185546875,-0.4348171055316925,0.1547127664089203,0.3390662968158722
1772031861868764200,5.06876416015625,-0.4881031811237335,0.02144131250679493,0.5442334413528442
1772031861878713300,5.07871337890625,-0.5106915831565857,-0.057891856878995895,0.7480025887489319
1772031861888662300,5.088662353515625,-0.5222380757331848,-0.06878776848316193,0.9015231728553772
1772031861898611200,5.098611083984375,-0.5448280572891235,-0.06540954858064651,0.9847317934036255
1772031861908560400,5.108560302734375,-0.5814634561538696,-0.06766948848962784,1.0018908977508545
1772031861918509300,5.11850927734375,-0.6069262027740479,-0.0632648840546608,0.969938337802887
1772031861928458200,5.128458251953125,-0.6129950284957886,-0.07434991002082825,0.9103903770446777
1772031861938407200,5.1384072265625,-0.6079390048980713,-0.11005597561597824,0.8507918119430542
1772031861948356000,5.148356201171875,-0.5992531776428223,-0.14346787333488464,0.7837542295455933
1772031861958305300,5.15830517578125,-0.588059663772583,-0.15272635221481323,0.7156246900558472
1772031861968254200,5.168254150390625,-0.5676422119140625,-0.14862415194511414,0.6497830748558044
1772031861978203400,5.178203369140625,-0.5526033639907837,-0.14900071918964386,0.5915708541870117
1772031861988152300,5.18815234375,-0.5304600596427917,-0.14575394988059998,0.5472952723503113
1772031861998101200,5.198101318359375,-0.4881938099861145,-0.14168891310691833,0.5272454023361206
1772031862008049200,5.208049072265625,-0.43859294056892395,-0.1217847615480423,0.509324312210083
1772031862017998300,5.217998291015625,-0.37242430448532104,-0.10929692536592484,0.5087487697601318
1772031862027947300,5.227947265625,-0.3094116747379303,-0.12934893369674683,0.5141802430152893
1772031862037896200,5.237896240234375,-0.2565782964229584,-0.16922497749328613,0.5199377536773682
1772031862047845400,5.247845458984375,-0.22245058417320251,-0.24156880378723145,0.5218995213508606
1772031862057794300,5.257794189453125,-0.2141505777835846,-0.35954737663269043,0.5314906239509583
1772031862067743200,5.2677431640625,-0.21334969997406006,-0.48607000708580017,0.5409371256828308
1772031862077692200,5.277692138671875,-0.2122759073972702,-0.580941379070282,0.5337167978286743
1772031862087641300,5.287641357421875,-0.22095702588558197,-0.6252515316009521,0.5030829906463623
1772031862097590300,5.29759033203125,-0.2657005488872528,-0.5927202105522156,0.45182567834854126
1772031862107539200,5.307539306640625,-0.37061044573783875,-0.455520361661911,0.40223851799964905
1772031862117488000,5.317488037109375,-0.5132978558540344,-0.27508291602134705,0.34493765234947205
1772031862127437300,5.327437255859375,-0.6211268305778503,-0.12264487892389297,0.27907267212867737
1772031862137386200,5.33738623046875,-0.6666692495346069,0.036279525607824326,0.1854087859392166
1772031862147335200,5.347335205078125,-0.6096649765968323,0.159768745303154,0.06776547431945801
1772031862157284400,5.357284423828125,-0.5069159269332886,0.2256002277135849,-0.03661073371767998
1772031862167233300,5.3672333984375,-0.3818322718143463,0.23010912537574768,-0.1288374811410904
1772031862177182200,5.37718212890625,-0.23853926360607147,0.21035486459732056,-0.2299441248178482
1772031862187131100,5.387131103515625,-0.09869896620512009,0.12235084921121597,-0.3769901990890503
1772031862197080300,5.397080322265625,0.02799559012055397,-0.05338209122419357,-0.5834834575653076
1772031862207029200,5.407029296875,0.11431171000003815,-0.22398881614208221,-0.7863655090332031
1772031862216978400,5.416978515625,0.14838366210460663,-0.3975086808204651,-0.9592161178588867
1772031862226923300,5.42692333984375,0.1738981455564499,-0.5236445069313049,-1.0880430936813354
1772031862236872200,5.4368720703125,0.19017378985881805,-0.5833222270011902,-1.1599146127700806
1772031862246820000,5.446820068359375,0.19935539364814758,-0.5808532238006592,-1.1711034774780273
1772031862256769500,5.45676953125,0.18889449536800385,-0.5562568306922913,-1.1002793312072754
1772031862266718500,5.466718505859375,0.1704290360212326,-0.5259339809417725,-0.9644760489463806
1772031862276667400,5.47666748046875,0.1599833071231842,-0.463246613740921,-0.785280168056488
1772031862286616300,5.4866162109375,0.16426628828048706,-0.41960424184799194,-0.5817995667457581
1772031862296565200,5.496565185546875,0.16101190447807312,-0.40596964955329895,-0.40173372626304626
1772031862306514200,5.50651416015625,0.13637131452560425,-0.3029140532016754,-0.2556633949279785
1772031862316463400,5.51646337890625,0.12047436833381653,-0.1632336676120758,-0.142987459897995
1772031862326412300,5.526412353515625,0.11216090619564056,-0.06540130078792572,-0.07449919730424881
1772031862336361500,5.536361572265625,0.12861472368240356,0.020977528765797615,-0.05205407738685608
1772031862346310400,5.546310302734375,0.15976232290267944,0.11061207950115204,-0.08010171353816986
1772031862356259300,5.55625927734375,0.1852993667125702,0.210847869515419,-0.13343869149684906
1772031862366208300,5.566208251953125,0.21264176070690155,0.31129133701324463,-0.17982369661331177
1772031862376157200,5.5761572265625,0.22925695776939392,0.33400091528892517,-0.1961078643798828
1772031862386106400,5.5861064453125,0.22514066100120544,0.30206143856048584,-0.19755913317203522
1772031862396055300,5.59605517578125,0.1857125610113144,0.2477518618106842,-0.1609417349100113
1772031862406004200,5.606004150390625,0.08531319350004196,0.2686097025871277,-0.12420661747455597
1772031862415953400,5.615953369140625,-0.023291047662496567,0.41713181138038635,-0.14035096764564514
1772031862425902300,5.62590234375,-0.1440470963716507,0.5969293117523193,-0.19328153133392334
1772031862435851300,5.635851318359375,-0.2522459924221039,0.766869843006134,-0.2600981295108795
1772031862445800200,5.64580029296875,-0.2881697714328766,0.9242311716079712,-0.3342578411102295
1772031862455749400,5.655749267578125,-0.2000678926706314,1.141015887260437,-0.44248124957084656
1772031862465698300,5.6656982421875,0.004136568866670132,1.404686689376831,-0.5915721654891968
1772031862475646200,5.675646240234375,0.25699785351753235,1.578120470046997,-0.7283512949943542
1772031862485595100,5.68559521484375,0.4852100908756256,1.55265212059021,-0.7853193283081055
1772031862495544300,5.69554443359375,0.6766657829284668,1.3215680122375488,-0.7497416734695435
1772031862505493500,5.705493408203125,0.7583674192428589,0.9451901316642761,-0.5804063677787781
1772031862515442400,5.7154423828125,0.7230997085571289,0.4639039635658264,-0.3247016370296478
1772031862525391400,5.725391357421875,0.5932290554046631,0.009117361158132553,-0.027747072279453278
1772031862535340300,5.73534033203125,0.40167665481567383,-0.3512842357158661,0.27451398968696594
1772031862545289200,5.745289306640625,0.1773713380098343,-0.5815196633338928,0.5610631704330444
1772031862555238100,5.755238037109375,-0.029844176024198532,-0.6673266887664795,0.8234697580337524
1772031862565187300,5.765187255859375,-0.18104127049446106,-0.6487186551094055,1.042158603668213
1772031862575136300,5.77513623046875,-0.24386842548847198,-0.55205899477005,1.1955190896987915
1772031862585085400,5.78508544921875,-0.23074141144752502,-0.4228598177433014,1.2667161226272583
1772031862595034400,5.795034423828125,-0.16993185877799988,-0.25126755237579346,1.2435204982757568
1772031862604983300,5.8049833984375,-0.07879997044801712,-0.06821594387292862,1.1227234601974487
1772031862614932200,5.81493212890625,0.04793054237961769,0.08433658629655838,0.9230872988700867
1772031862624881200,5.824881103515625,0.2040116935968399,0.2034069001674652,0.6643766164779663
1772031862634830300,5.834830322265625,0.38350924849510193,0.277351975440979,0.3791835308074951
1772031862644779300,5.844779296875,0.5635079145431519,0.3183790147304535,0.09828269481658936
1772031862654728400,5.854728515625,0.7121661305427551,0.3168700635433197,-0.15118439495563507
1772031862664677400,5.864677490234375,0.820884108543396,0.2672530710697174,-0.3470732271671295
1772031862674626300,5.874626220703125,0.8919066190719604,0.19193249940872192,-0.4886431396007538
1772031862684575200,5.8845751953125,0.9518525004386902,0.07375286519527435,-0.5803917050361633
1772031862694523400,5.8945234375,0.9997861981391907,-0.04835972562432289,-0.6366376876831055
1772031862704472300,5.904472412109375,1.0104033946990967,-0.14594700932502747,-0.6555149555206299
1772031862714421200,5.914421142578125,0.9974085688591003,-0.22820647060871124,-0.6461549997329712
1772031862724370200,5.9243701171875,0.9673497080802917,-0.2947346866130829,-0.6179113388061523
1772031862734319000,5.934319091796875,0.916080117225647,-0.3481401205062866,-0.5658066272735596
1772031862744268500,5.9442685546875,0.8417801856994629,-0.3777655065059662,-0.5038858652114868
1772031862754217500,5.954217529296875,0.7660239338874817,-0.3363434970378876,-0.4413013160228729
1772031862764166400,5.96416650390625,0.6963884234428406,-0.2644718587398529,-0.3906504511833191
1772031862774115300,5.974115234375,0.6478238105773926,-0.18906018137931824,-0.36166512966156006
1772031862784064300,5.984064208984375,0.6003751754760742,-0.08474969118833542,-0.35818952322006226
1772031862794013200,5.99401318359375,0.5457934141159058,0.057939283549785614,-0.36635398864746094
1772031862803962000,6.003962158203125,0.5147584080696106,0.17275357246398926,-0.39120540022850037
1772031862813911300,6.013911376953125,0.47769758105278015,0.2761004567146301,-0.4252834618091583
1772031862823860500,6.023860595703125,0.43085208535194397,0.33917611837387085,-0.4611361622810364
1772031862833809400,6.033809326171875,0.37698084115982056,0.36094000935554504,-0.501075029373169
1772031862843758300,6.04375830078125,0.3006415367126465,0.3694743514060974,-0.5380255579948425
1772031862853707300,6.053707275390625,0.2164992392063141,0.342269629240036,-0.5528098344802856
1772031862863656200,6.06365625,0.12055220454931259,0.2828483283519745,-0.5397186279296875
1772031862873605400,6.07360546875,0.01512911170721054,0.19823624193668365,-0.4878109395503998
1772031862883554300,6.08355419921875,-0.08842632174491882,0.06999309360980988,-0.39547374844551086
1772031862893503200,6.093503173828125,-0.18798299133777618,-0.08560661971569061,-0.27251961827278137
1772031862903452400,6.103452392578125,-0.2702903747558594,-0.20325911045074463,-0.12725991010665894
1772031862913401300,6.1134013671875,-0.33301475644111633,-0.29940134286880493,0.004443517420440912
1772031862923350300,6.123350341796875,-0.3691750466823578,-0.3653046786785126,0.10417505353689194
1772031862933298400,6.13329833984375,-0.3916851580142975,-0.37990519404411316,0.15577992796897888
1772031862943247400,6.143247314453125,-0.4075574278831482,-0.35659724473953247,0.14999140799045563
1772031862953196300,6.1531962890625,-0.424348920583725,-0.30385470390319824,0.10542073100805283
1772031862963145200,6.163145263671875,-0.41826099157333374,-0.2195209115743637,0.03900402784347534
1772031862973094100,6.17309423828125,-0.3959205150604248,-0.10125578939914703,-0.02429824508726597
1772031862983043000,6.18304296875,-0.3735891580581665,0.023284167051315308,-0.061627328395843506
1772031862992992500,6.192992431640625,-0.3463258445262909,0.10363785922527313,-0.05793139338493347
1772031863002941400,6.20294140625,-0.321196973323822,0.10298988223075867,-0.019317496567964554
1772031863012890400,6.212890380859375,-0.31365224719047546,0.02533876895904541,0.0360240563750267
1772031863022839300,6.22283935546875,-0.32814884185791016,-0.10428185015916824,0.08940158784389496
1772031863032788200,6.232788330078125,-0.38790884613990784,-0.2606664001941681,0.13405214250087738
1772031863042737200,6.242737060546875,-0.4662702679634094,-0.4324132204055786,0.17559610307216644
1772031863052686300,6.252686279296875,-0.514352023601532,-0.5294659733772278,0.1894402801990509
1772031863062635300,6.26263525390625,-0.5409356355667114,-0.5394786596298218,0.18737970292568207
1772031863072584400,6.27258447265625,-0.5537382364273071,-0.5548935532569885,0.17546658217906952
1772031863082533400,6.282533447265625,-0.5540127158164978,-0.515062689781189,0.15457262098789215
1772031863092482300,6.292482421875,-0.5256338119506836,-0.37697485089302063,0.1127396821975708
1772031863102431200,6.30243115234375,-0.43118947744369507,-0.15998896956443787,0.02327541448175907
1772031863112380200,6.312380126953125,-0.2854490578174591,0.08041245490312576,-0.13175171613693237
1772031863122329300,6.322329345703125,-0.1388455629348755,0.33420613408088684,-0.33339545130729675
1772031863132278300,6.3322783203125,-0.042118486016988754,0.5256214141845703,-0.49177923798561096
1772031863142227500,6.3422275390625,0.020871128886938095,0.5261186957359314,-0.5329250693321228
1772031863152175000,6.352175048828125,0.03202178329229355,0.35483938455581665,-0.44113922119140625
1772031863162124300,6.362124267578125,0.00934818759560585,0.07458221167325974,-0.2640513479709625
1772031863172073500,6.372073486328125,-0.06794393807649612,-0.19326014816761017,-0.043570902198553085
1772031863182022400,6.3820224609375,-0.2073204219341278,-0.3538868725299835,0.1876266896724701
1772031863191971300,6.391971435546875,-0.3664075434207916,-0.41686639189720154,0.4022361934185028
1772031863201920300,6.401920166015625,-0.45761069655418396,-0.4574992060661316,0.5542238354682922
1772031863211869200,6.411869140625,-0.496273398399353,-0.42669227719306946,0.6283992528915405
1772031863221822200,6.421822265625,-0.5122754573822021,-0.3562094271183014,0.610619068145752
1772031863231771100,6.431771240234375,-0.5206819772720337,-0.267177551984787,0.5164337158203125
1772031863241720300,6.44172021484375,-0.5291399955749512,-0.16077731549739838,0.37486469745635986
1772031863251669200,6.451669189453125,-0.5274598598480225,-0.03651900589466095,0.21264676749706268
1772031863261618200,6.4616181640625,-0.5109540224075317,0.06677363812923431,0.054613467305898666
1772031863271567000,6.471567138671875,-0.4964789152145386,0.10690534114837646,-0.07814671844244003
1772031863281516000,6.48151611328125,-0.4812268614768982,0.09488683938980103,-0.18275246024131775
1772031863291465200,6.49146533203125,-0.4586445689201355,0.08601798117160797,-0.251699298620224
1772031863301414100,6.5014140625,-0.43290287256240845,0.05721235275268555,-0.27607470750808716
1772031863311363300,6.51136328125,-0.40993016958236694,-0.009861488826572895,-0.2589260935783386
1772031863321312300,6.521312255859375,-0.3809770345687866,-0.07841464132070541,-0.23316635191440582
1772031863331261200,6.53126123046875,-0.3482001721858978,-0.12331794202327728,-0.1947249472141266
1772031863341210000,6.541210205078125,-0.32970130443573,-0.1540708839893341,-0.15303274989128113
1772031863351159000,6.551158935546875,-0.3209996819496155,-0.18061168491840363,-0.08551947772502899
1772031863361108000,6.56110791015625,-0.3172934651374817,-0.2530282437801361,-0.009500211104750633
1772031863371057200,6.57105712890625,-0.3201603591442108,-0.32779863476753235,0.06480064988136292
1772031863381005300,6.58100537109375,-0.3320518434047699,-0.3625635504722595,0.11905533820390701
1772031863390954200,6.590954345703125,-0.3322923183441162,-0.3892239034175873,0.1520921140909195
1772031863400903200,6.600903076171875,-0.3232380747795105,-0.4044478237628937,0.15075458586215973
1772031863410852000,6.61085205078125,-0.312438428401947,-0.3808399736881256,0.1338062286376953
1772031863420801300,6.62080126953125,-0.27988845109939575,-0.3343845307826996,0.1112784668803215
1772031863430750200,6.630750244140625,-0.22861488163471222,-0.26768752932548523,0.060567356646060944
1772031863440699100,6.64069921875,-0.1422857642173767,-0.1638069748878479,-0.03544820100069046
1772031863450648000,6.65064794921875,-0.04075673967599869,0.005493377801030874,-0.16920866072177887
1772031863460597200,6.66059716796875,0.04205332323908806,0.16072550415992737,-0.3005051612854004
1772031863470546200,6.670546142578125,0.08814625442028046,0.2428978681564331,-0.38279789686203003
1772031863480495000,6.6804951171875,0.12281077355146408,0.2526412308216095,-0.4200614392757416
1772031863490444300,6.6904443359375,0.14062811434268951,0.22343675792217255,-0.4128008782863617
1772031863500393200,6.700393310546875,0.12565548717975616,0.10639215260744095,-0.3590593636035919
1772031863510342100,6.710342041015625,0.07145404070615768,-0.07425911724567413,-0.25154486298561096
1772031863520291000,6.720291015625,-0.03927820175886154,-0.3454486131668091,-0.1192808449268341
1772031863530240000,6.730239990234375,-0.19387124478816986,-0.630729615688324,0.029856441542506218
1772031863540189200,6.740189208984375,-0.27111729979515076,-0.797881543636322,0.36607152223587036
1772031863550138000,6.75013818359375,-0.17315158247947693,-0.5830941200256348,0.6621604561805725
1772031863560087300,6.76008740234375,-0.025182120501995087,-0.25536948442459106,0.7833433747291565
1772031863570036200,6.7700361328125,0.0368301197886467,0.053288474678993225,0.7489941716194153
1772031863579985200,6.779985107421875,0.09513256698846817,0.23790614306926727,0.6207534670829773
1772031863589933000,6.78993310546875,0.1357841193675995,0.24220874905586243,0.45772671699523926
1772031863599882200,6.79988232421875,0.13607314229011536,0.17305968701839447,0.285262793302536
1772031863609831200,6.8098310546875,0.1152685210108757,0.061662591993808746,0.11819231510162354
1772031863619780000,6.819780029296875,0.07602106779813766,-0.09932298213243484,-0.031347159296274185
1772031863629729300,6.829729248046875,0.0043229106813669205,-0.26244479417800903,-0.15419557690620422
1772031863639678200,6.83967822265625,-0.027359072118997574,-0.3146863281726837,-0.22121447324752808
1772031863649627100,6.849627197265625,-0.00002305489033460617,-0.1834406703710556,-0.26330628991127014
