time,seconds_elapsed,z,y,x
1772045799728745200,0.0607451171875,-0.33769992298185825,0.27912887514019386,-0.17106544558331369
1772045799738730200,0.070730224609375,-0.4283025694489479,0.35683227427937086,-0.5276898492656648
1772045799748716000,0.080716064453125,-0.42029461956024167,0.28188367200735953,-0.49938043123483655
1772045799758702300,0.090702392578125,-0.3962631711095571,0.32650304085873066,-0.33789442264065145
1772045799768687400,0.100687255859375,-0.3268447669684887,0.26686102105099707,-0.2771969389632344
1772045799778673200,0.110673095703125,-0.22468612274229524,0.2598064263643697,-0.16359671713784335
1772045799788659500,0.120659423828125,-0.07926876702606678,0.3017372137188911,-0.07053937099501491
1772045799798644200,0.130644287109375,0.029422493839263913,0.3642265492491424,0.040769963414221996
1772045799808630300,0.14063037109375,0.11984978373944759,0.35745789536442607,0.007345832718163728
1772045799818616000,0.150615966796875,0.1000596261203289,0.27086295016873624,0.05266439934745431
1772045799828601000,0.16060107421875,0.11996551907360553,0.16068915912806986,0.05972177051305771
1772045799838587400,0.17058740234375,0.21143618054687977,0.061361719739809625,0.03797799460813403
1772045799848573200,0.1805732421875,0.27984219277501104,-0.015394479943439364,0.05622282248139381
1772045799858558200,0.19055810546875,0.23541911368072033,-0.016263627460785208,0.19101400863453744
1772045799868544300,0.200544189453125,0.19702070170342922,-0.05795256888344884,0.2768235756061971
1772045799878530300,0.2105302734375,0.12271218743324279,-0.04496821882165968,0.345953079803288
1772045799888515300,0.220515380859375,0.0290483998298645,-0.03049728346392512,0.4294422410033643
1772045799898501000,0.230501220703125,0.056170215511322015,-0.037764169194363054,0.42974283138513564
1772045799908487400,0.2404873046875,0.17430559654831884,0.013346607502922415,0.31237521985024214
1772045799918472200,0.25047216796875,0.37277240540683265,0.09866590673960744,0.21564050036892293
1772045799928458200,0.260458251953125,0.7361094584703445,0.12868980053812265,0.08797945835664868
1772045799938444000,0.270444091796875,1.0536895534873008,0.08959661122970282,-0.001993658035248518
1772045799948429300,0.28042919921875,1.0952350313186645,-0.14553257959373295,-0.14895312862694263
1772045799958415400,0.290415283203125,0.8227367715656757,-0.3055878977976739,-0.3231904822446406
1772045799968401200,0.300401123046875,0.3935246860563755,-0.3933600700791925,-0.4075350912302732
1772045799978386200,0.31038623046875,-0.1893611268609762,-0.26325799159035085,-0.34021015223711726
1772045799988372200,0.320372314453125,-0.7350795309007168,-0.09329787690043449,-0.07880889442935586
1772045799998358300,0.330358154296875,-1.042764254847169,0.03502075223773718,0.17747721232175825
1772045800008343300,0.34034326171875,-1.0504992330133915,0.07110460366234182,0.07571443554535508
1772045800018329000,0.3503291015625,-0.8750164093792439,0.06402176926191896,-0.07811506694629788
1772045800028315400,0.3603154296875,-0.6115338152527808,0.05307586622517556,-0.1448249427810311
1772045800038300200,0.370300048828125,-0.2908142531663179,0.08127524801027029,-0.2079211581632495
1772045800048286200,0.3802861328125,-0.10266425566077232,0.17715203548800199,-0.26121990989148614
1772045800058272000,0.39027197265625,0.04864508070349693,0.17740644864048807,-0.25393048353567715
1772045800068257300,0.40025732421875,0.07931728234291076,0.17655432532317936,-0.2747713192515075
1772045800078243300,0.410243408203125,0.2234375839859247,0.10835121525600552,-0.13429755741730331
1772045800088229000,0.42022900390625,0.464843370860815,0.04966609431430697,0.033062019385397434
1772045800098214100,0.430214111328125,0.7492372355908155,0.025480989671871065,0.10653598252758383
1772045800108200200,0.4402001953125,0.9756529586046934,-0.027926556193083523,0.19715718756467102
1772045800118186200,0.450186279296875,1.005303415980935,-0.13589702850319443,0.22724252922683952
1772045800128171300,0.460171142578125,0.9307903190493583,-0.23085692033171654,0.15914996686205268
1772045800138157000,0.470156982421875,0.6918173122793435,-0.23237791935391722,0.052511108481884
1772045800148143400,0.480143310546875,0.34079262830018997,-0.1735613540522754,-0.009580606032907963
1772045800158128400,0.49012841796875,0.06336567997336387,-0.16812157415114343,-0.10608970006480813
1772045800168114200,0.5001142578125,-0.17843465917706489,-0.16557992684431372,-0.10248831457197666
1772045800178100200,0.510100341796875,-0.2687824541002512,-0.14973156565353274,0.1042060782752931
1772045800188085200,0.520085205078125,-0.16556874786317347,-0.046834231889247895,0.5134754459522665
1772045800198071300,0.5300712890625,0.12157646140158175,0.04405008106343448,0.783179544942081
1772045800208056300,0.540056396484375,0.3883306245446205,-0.034356443110108374,0.738238287192583
1772045800218042000,0.5500419921875,0.5191986459046602,-0.2850798742327839,0.530461798197031
1772045800228028400,0.5600283203125,0.5590367352962493,-0.4819262422826141,0.3968589450456202
1772045800238013200,0.57001318359375,1.0069313094437122,-0.7593785442464053,1.3285964818172156
1772045800247999200,0.579999267578125,0.3534165475517511,-0.8794942854456603,1.4766950394414364
1772045800257985000,0.589985107421875,-0.4366191468954086,-0.7170205809883773,0.4673700397942215
1772045800267971300,0.599971435546875,-0.4214648323833942,-0.9952220938842743,0.3502138059876859
1772045800277956400,0.609956298828125,-0.3874491655349731,-0.6519676785804331,0.12703589585125447
1772045800287942100,0.619942138671875,-0.26244740585982795,-0.21187913854140786,-0.19844927320182323
1772045800297927200,0.62992724609375,-0.000036240357160568236,-0.005358202564902603,-0.3674091978732496
1772045800307913200,0.639913330078125,0.1432289057612419,0.17541600547563282,-0.30575558251477775
1772045800317899300,0.649899169921875,0.1751578294634819,0.2330877846563235,-0.04797105389945209
1772045800327884500,0.659884521484375,0.14122574924528597,0.2099844473686069,0.13492168066501617
1772045800337870300,0.669870361328125,-0.0350134457141161,0.11267558126114308,0.12955248178206383
1772045800347856400,0.6798564453125,-0.4047936835676431,0.10241068275850265,0.033199966551363466
1772045800357841200,0.689841064453125,-0.6516893000304699,0.035801235090941186,-0.12431706534661352
1772045800367827500,0.699827392578125,-0.7212877369135617,-0.028420477189868686,-0.24227760127335785
1772045800377813200,0.709813232421875,-0.6677367639899253,-0.015483802194707096,-0.2401568827923387
1772045800387798300,0.71979833984375,-0.41598669323325155,-0.10748594019617885,-0.012311200040578842
1772045800397784600,0.72978466796875,-0.2176344506651163,-0.26257024678820745,0.21575338615886866
1772045800407770400,0.739770263671875,-0.23845628941953181,-0.23567036676174027,0.3225451700784266
1772045800417755400,0.74975537109375,-0.03809153798520565,-0.3225859770128503,0.6392210097320378
1772045800427741200,0.7597412109375,0.04221066374182701,-0.09878620865102856,0.6147633717585355
1772045800437727500,0.7697275390625,0.051266076856851577,0.15542592310393227,0.46492988010048864
1772045800447712500,0.77971240234375,0.1081593459457159,0.17239859388321638,0.2987263414651155
1772045800457698300,0.7896982421875,0.1940010616213083,0.08193172089131548,0.13891111562736333
1772045800467684400,0.799684326171875,0.30929625079631806,0.032944512219261375,0.016152897095307706
1772045800477669000,0.809669189453125,0.43124505264163016,0.032701405912078915,-0.028337767342478035
1772045800487655400,0.819655517578125,0.6159516316950321,-0.029407296270132062,-0.05991561258472502
1772045800497641200,0.82964111328125,0.8178601054400205,-0.06371104107862338,-0.0441973805796355
1772045800507626200,0.839626220703125,0.8558382461786269,-0.0035764885135926303,0.06492642648406326
1772045800517612500,0.849612548828125,0.6928069078385829,0.13123553949818015,0.07711239270977675
1772045800527598300,0.859598388671875,0.10650164186656474,0.35997776923086494,0.10421871856115758
1772045800537583400,0.869583251953125,-0.5384621493011713,0.5195681002715602,0.08108180779740214
1772045800547569200,0.879569091796875,-1.01154201810956,0.5021007230442017,0.16636245552413165
1772045800557555500,0.889555419921875,-1.278989424213767,0.3220332385009155,0.1943419109482318
1772045800567540500,0.89954052734375,-1.3815356064528226,0.1405091893406119,-0.0449150273296982
1772045800577526300,0.9095263671875,-1.2812690595835448,0.14969902422395534,-0.2774742215346545
1772045800587512300,0.91951220703125,-0.9662404026150703,0.25629911236315966,-0.3622034459237009
1772045800597497300,0.929497314453125,-0.5029992062538862,0.2870983013831079,-0.3107173696406185
1772045800607483400,0.9394833984375,-0.029309096592664716,0.3793187583103776,-0.1459886527981609
1772045800617469200,0.94946923828125,0.2818833432137966,0.36759218975733965,-0.07398498140424489
1772045800627454200,0.9594541015625,0.6605120734333991,0.3478470037911087,-0.08756276731453835
1772045800637440500,0.9694404296875,0.8769616982281208,0.3393389223605394,-0.15331629227250815
1772045800647426300,0.97942626953125,0.9034382017433643,0.3000402553415857,-0.12788790957070886
1772045800657411300,0.989411376953125,0.7339765380948782,0.28831270040785895,-0.09333813584558666
1772045800667397400,0.9993974609375,0.36988662083745,0.28033083480848,-0.042329687011614436
1772045800677383400,1.009383544921875,-0.02072773073017597,0.21394542342144995,0.014065057970583439
1772045800687368400,1.019368408203125,-0.23042788126468658,0.16505354661634192,-0.07848748045526445
1772045800697354200,1.029354248046875,-0.25391338627040383,0.14214157631541602,-0.1715291906375438
1772045800707340300,1.03934033203125,-0.21237842983305452,0.10243641998795792,-0.1415938519053161
1772045800717325600,1.04932568359375,-0.10414426508545875,0.13046517618019132,-0.13464052563607692
1772045800727311400,1.059311279296875,0.09217559487223624,0.19349848239403217,-0.15903481604978442
1772045800737296400,1.06929638671875,0.312884630677104,0.20671830344581976,-0.1532755218707025
1772045800747282200,1.0792822265625,0.48370472319722174,0.19285718881580977,-0.19605740962922572
1772045800757268500,1.0892685546875,0.5308844075232744,0.17832694275258107,-0.11087547303661703
1772045800767254300,1.099254150390625,0.524005169403553,0.21442337966412306,-0.15447028461322188
1772045800777239300,1.1092392578125,0.40292847421765327,0.2299912068804726,-0.11799509578347206
1772045800787225300,1.119225341796875,0.2379606148570776,0.19261274906806647,-0.039846418828517194
1772045800797210400,1.12921044921875,0.05303425557315349,0.10616253697215579,0.024016397012025115
1772045800807196400,1.139196533203125,-0.16090017153024672,0.06450269834639039,0.02717427652105689
1772045800817182200,1.14918212890625,-0.28265257402062416,0.055035900552035305,0.010138093785196542
1772045800827167200,1.159167236328125,-0.41851884205937384,-0.026396606679446995,0.0913064108222723
1772045800837153500,1.169153564453125,-0.4510305340856313,-0.06646322586359456,0.07509995690882205
1772045800847139300,1.179139404296875,-0.3922048356294632,-0.09451855040234514,-0.012381050406396388
1772045800857124400,1.189124267578125,-0.32558979847133157,-0.1477315235432703,-0.0009082008861005306
1772045800867110100,1.199110107421875,-0.19909984606504438,-0.20702397186150773,0.05014028769731521
1772045800877096400,1.209096435546875,-0.09165303230285644,-0.19694949963074176,0.11192527435049414
1772045800887081500,1.21908154296875,-0.002620411631464958,-0.14313288890770637,0.1369108086556196
1772045800897067300,1.2290673828125,0.01672317126393318,-0.15502075810283422,0.18267112770304084
1772045800907053600,1.239053466796875,0.037304771521687506,-0.16842684070803224,0.24612916213497518
1772045800917038300,1.249038330078125,0.08292261335849761,-0.18688728409335015,0.22035671523585915
1772045800927024400,1.2590244140625,0.11790215680301189,-0.19517092738458885,0.20899244065657258
1772045800937010200,1.26901025390625,0.15191022486686706,-0.1914079763881862,0.19775208471789954
1772045800946995200,1.2789951171875,0.19606793102324008,-0.17774748063050208,0.18714169724583624
1772045800956981500,1.2889814453125,0.280084769359231,-0.1306833307092078,0.2016660432912409
1772045800966967300,1.29896728515625,0.36140696178376674,-0.07725813045655376,0.22750863281711933
1772045800976952300,1.308952392578125,0.43032618423104285,-0.05939662107876502,0.26857158782854673
1772045800986938000,1.318938232421875,0.39603170044124125,-0.04114999397406354,0.26730565954595803
1772045800996924400,1.32892431640625,0.29337095191180707,-0.03015262104498688,0.23193302513062952
1772045801006909400,1.338909423828125,0.17154373061954975,-0.07305130815017037,0.1735240907818079
1772045801016895200,1.348895263671875,0.03702829266786575,-0.05607815331369638,0.12194704827964305
1772045801026881500,1.358881591796875,0.009136661657691001,-0.04867436159690842,0.06091916360408067
1772045801036866300,1.3688662109375,-0.023782442125678063,-0.050660411714436485,0.0760305157572031
1772045801046852400,1.378852294921875,0.005090601137280464,-0.04568653229200281,0.09343100176081061
1772045801056838400,1.38883837890625,-0.012382511711120604,-0.040221051694033665,0.10156111672446132
1772045801066823200,1.3988232421875,-0.018524667727947235,-0.07965900845266878,0.11878405420407652
1772045801076809500,1.4088095703125,-0.03019990795254707,-0.07516217195745557,0.11264292110055685
1772045801086795300,1.418795166015625,-0.03253273481428623,-0.08404100466286762,0.11506035750582813
1772045801096780300,1.4287802734375,-0.01497778890132904,-0.10314170044679194,0.11934534134864806
1772045801106766300,1.438766357421875,-0.06670797613859177,-0.061457416932936756,0.11772548506185412
1772045801116752400,1.44875244140625,-0.2023141319364309,-0.09926622898662463,0.17899806521348655
1772045801126737400,1.4587373046875,-0.31525720502734184,-0.10105087478053755,0.23403679247684775
1772045801136723200,1.46872314453125,-0.3844920692950487,-0.09175753385694697,0.21950769719108937
1772045801146709500,1.47870947265625,-0.3913011647880077,-0.06592291757497004,0.1784907002132386
1772045801156694500,1.488694580078125,-0.27067981215417386,-0.06965643241433427,0.16399331523999572
1772045801166680300,1.498680419921875,-0.1076058037161827,0.033679201435670256,-0.013780030484125017
1772045801176666400,1.508666259765625,0.06341185720264911,0.04229242374114692,-0.07183291793689131
1772045801186651400,1.5186513671875,0.20069266821444035,0.045996657687099644,-0.06015884675607085
1772045801196637400,1.528637451171875,0.2503922264069319,0.08437403600951657,-0.07714476060941815
1772045801206622500,1.53862255859375,0.22183716305196283,0.11107541605550796,-0.04561024305224418
1772045801216608300,1.548608154296875,0.13271803314089775,0.08894085073471068,0.014028525352478026
1772045801226594600,1.558594482421875,0.07695756747424602,0.031009288106672465,0.05028188812509179
1772045801236579300,1.568579345703125,0.0761439130038023,0.025579668839951043,0.06911927506402135
1772045801246565400,1.5785654296875,0.09405658631324768,0.012238728459412231,0.05872004612460732
1772045801256551200,1.58855126953125,0.06467793161571025,-0.011719764352915808,0.023337767098098993
1772045801266536200,1.5985361328125,-0.03522854976952076,-0.019706981980847194,0.0263655904866755
1772045801276522500,1.6085224609375,-0.09786416190266609,0.005350667712418362,0.03761968268975615
1772045801286508300,1.61850830078125,-0.10137772298157215,0.021830248611979186,0.030136633457988497
1772045801296493300,1.628493408203125,-0.09589549217820167,0.007168622120888903,-0.016040011305361986
1772045801306479400,1.638479248046875,-0.08279051141142844,-0.050805153947370126,-0.09955518372952937
1772045801316465400,1.64846533203125,-0.034303836140036584,-0.12008655163738875,-0.1831388913452625
1772045801326450400,1.658450439453125,0.021512159106135367,-0.11550559878898783,-0.20338526829928158
1772045801336436200,1.668436279296875,0.06650573156476021,-0.07381597237973474,-0.1189560497701168
1772045801346422300,1.67842236328125,0.10765022737979889,-0.07398013626576866,-0.009142799137532711
1772045801356407000,1.688406982421875,0.14170213458538056,-0.08214673361517488,0.10005348864048719
1772045801366393300,1.698393310546875,0.12448854945600032,-0.08857245581373571,0.18280410643294454
1772045801376379100,1.708379150390625,0.06554828470945358,-0.09470546040972694,0.24259470439851283
1772045801386364200,1.7183642578125,0.0024450550645589825,-0.11706939577329903,0.2568472477652132
1772045801396350200,1.72835009765625,0.008584872993826865,-0.15423826595563442,0.2371970831386745
1772045801406336300,1.738336181640625,-0.02177402491271496,-0.11186129660303704,0.19950959590971468
1772045801416321300,1.7483212890625,-0.07157879704535007,-0.09351789459297433,0.12757380212023853
1772045801426307300,1.758307373046875,-0.04191255757808685,-0.1270706383710727,0.10067074375599622
1772045801436293000,1.768293212890625,0.035989012748003,-0.12746834158492273,0.07788140432089567
1772045801446278400,1.7782783203125,0.11672259162962435,-0.10347281383099034,0.03285392959266901
1772045801456264200,1.78826416015625,0.161270758408308,-0.09040142480656504,0.03300926628485322
1772045801466250200,1.798250244140625,0.13372808696627617,-0.07327497453794349,0.08632803788781165
1772045801476235300,1.8082353515625,0.07182254267334938,-0.03564488461860455,0.14123422481268644
1772045801486221300,1.81822119140625,0.007803951749205589,-0.003343825968611054,0.19385354290939866
1772045801496207400,1.828207275390625,-0.03653729428052902,0.0020196281601442025,0.2088961406752467
1772045801506192100,1.838192138671875,-0.08000584912896155,0.017457924412423744,0.2132558702547103
1772045801516178200,1.84817822265625,-0.0911012436389923,0.04812215280793607,0.2136507147911936
1772045801526164200,1.858164306640625,-0.0857031839877367,0.07081634303918108,0.16800233168564735
1772045801536149200,1.868149169921875,-0.11031973884999752,0.049546559587866065,0.1299173695717007
1772045801546135300,1.87813525390625,-0.09085340635776519,0.013124406986450775,0.08497508890889585
1772045801556120000,1.8881201171875,-0.06723170775175094,0.021671751848328858,0.048100233237072826
1772045801566106400,1.8981064453125,-0.020968553748726842,0.06900171309895813,0.02700038125887513
1772045801576092200,1.908092041015625,-0.001457213070988655,0.0957081437794026,0.04572641677781939
1772045801586077200,1.9180771484375,0.08730477396547794,0.08672999715167097,0.09034881783649325
1772045801596063200,1.928063232421875,-0.011453706428408622,0.21968210390992463,-0.08144917980507016
1772045801606049300,1.93804931640625,-0.18910802888274192,0.19747787088640034,-0.10355579767301679
1772045801616034300,1.948034423828125,-0.27642741589546205,0.10342586941672488,-0.005469809713214636
1772045801626020000,1.95802001953125,-0.2726028891712427,0.1135220876884181,0.04715732636377215
1772045801636006100,1.968006103515625,-0.19844284346103666,0.16537074107304214,-0.015583791970461607
1772045801645991400,1.977991455078125,-0.12263444602191448,0.20231407713750377,-0.055731385702639816
1772045801655977200,1.987977294921875,-0.023847908577322958,0.19684077855926005,-0.0711596948504448
1772045801665963300,1.99796337890625,0.05048983178734779,0.1539155368072912,-0.07005114908665418
1772045801675948000,2.007947998046875,0.13736615120768547,0.12435779008264652,-0.1051268463820219
1772045801685934300,2.017934326171875,0.1697112544953823,0.11977313830666243,-0.163152626632154
1772045801695920000,2.027920166015625,0.22357962280511856,0.07836268503181636,-0.10731062016189098
1772045801705905200,2.0379052734375,0.25566461385190486,0.06517966145961546,-0.060306584663689135
1772045801715891200,2.04789111328125,0.25741934856474397,0.07224998800491449,-0.03309723682925105
1772045801725877200,2.057877197265625,0.21428630928099154,0.06296090313133318,-0.036104309690743686
1772045801735862300,2.0678623046875,0.1703898844093084,0.030290152652421964,-0.05027501999288797
1772045801745848000,2.07784814453125,0.11897533899247646,-0.006207362173567526,-0.07751797783598303
1772045801755834400,2.08783447265625,0.11004676712751388,-0.027942575746122748,-0.14191738477125762
1772045801765819400,2.0978193359375,0.12214227859079838,-0.03611322821613867,-0.16686390224024653
1772045801775805200,2.10780517578125,0.13267477852106094,-0.04258042406940367,-0.13462109028324484
1772045801785791200,2.117791259765625,0.11316869854032993,-0.04475873165628873,-0.06209156838431954
1772045801795776300,2.1277763671875,0.08685410758852959,-0.04151742534723598,-0.03888458805903792
1772045801805762300,2.13776220703125,0.060760465911030764,-0.07748813982014544,-0.05374152705967426
1772045801815748000,2.147748046875,0.06791910549402237,-0.13086585680241697,-0.09068447953164577
1772045801825733000,2.157733154296875,0.06580781242847442,-0.14189844260876996,-0.0748579648464918
1772045801835719400,2.167719482421875,0.029518355429172513,-0.11217468253429978,0.006030073944479227
1772045801845705200,2.177705322265625,0.030003508597612378,-0.06514393255910836,0.07955868988335132
1772045801855690200,2.187690185546875,0.056797407498955725,-0.0480955981611507,0.12335326181575655
1772045801865676300,2.19767626953125,0.03684709088206291,-0.03792954322337173,0.11082155089229345
1772045801875661000,2.2076611328125,0.036839492097496984,-0.061784867922170084,0.08751564023718238
1772045801885647400,2.2176474609375,0.028207857352495192,-0.08930733682638965,0.023700024539232253
1772045801895633200,2.227633056640625,0.015747604230046272,-0.06939931584810838,-0.00869797797948122
1772045801905618200,2.2376181640625,-0.0019008651852607725,-0.0442535449133953,-0.016166852555423973
1772045801915604200,2.247604248046875,-0.026361352702975273,-0.0025567352781072257,0.006697451812028884
1772045801925590300,2.25759033203125,-0.007224690556526183,0.03242117333174683,0.010664163485914467
1772045801935575300,2.2675751953125,0.016990882289409637,0.03894180727214552,0.009631605567783117
1772045801945561000,2.27756103515625,-0.021228665989637373,0.026400141210248692,0.009034370326995849
1772045801955547400,2.28754736328125,-0.029638182416558263,0.020232727454579436,0.001810702683776617
1772045801965532400,2.297532470703125,-0.03596563187241554,0.057634917769022284,0.0015665186643600464
1772045801975518200,2.307518310546875,0.01116144548356533,0.08340582116502336,0.021132950530201196
1772045801985504300,2.317504150390625,0.058171033939719195,0.08071524864048697,0.02235401675775647
1772045801995489000,2.327489013671875,0.09087970984280108,0.08668024885896593,0.008912351382523774
1772045802005475300,2.337475341796875,0.0732937842696905,0.08278652935605496,0.014572861362248658
1772045802015461000,2.347461181640625,0.05529051006734371,0.10723815771387889,0.031526188120245935
1772045802025446100,2.357446044921875,0.062324646487832064,0.1092531964638736,0.01220978549271822
1772045802035432400,2.367432373046875,0.08195347606539725,0.07969519401090219,-0.008044190245866775
1772045802045418200,2.377418212890625,0.07600012061893939,0.04477007503421045,-0.013690963961184023
1772045802055403300,2.3874033203125,0.04705342759788036,0.04477781081609428,-0.018814444454759358
1772045802065389000,2.39738916015625,0.005517302116751671,0.05318141352545935,0.01015212231054902
1772045802075375400,2.407375244140625,0.01699205133318901,0.054584270627284416,0.023235914158821105
1772045802085360400,2.4173603515625,0.07293897948265075,0.07128574151606298,0.02108545812666416
1772045802095346200,2.42734619140625,0.08444587740302086,0.10420435210908763,0.05130903921574354
1772045802105332200,2.437332275390625,0.05607143131196499,0.10783205935326404,0.08574804604277014
1772045802115317200,2.447317138671875,0.022652561312913894,0.05422779447296634,0.06058130995184183
1772045802125303300,2.45730322265625,0.00854629454910755,0.034669308451563116,0.027685002522170543
1772045802135289000,2.4672890625,0.004914660048484802,0.037728577291173855,0.022300971396267414
1772045802145274000,2.477274169921875,-0.0017319383591413496,0.03753467128742486,0.03935366687551141
1772045802155260400,2.487260498046875,-0.022884616503119466,0.05458376830378547,0.05181523517221212
1772045802165245200,2.4972451171875,-0.03850128782987594,0.060319594842311926,0.057459524669498205
1772045802175231200,2.507231201171875,-0.1505307532072067,0.05351783783901483,0.04034516213089227
1772045802185217000,2.517217041015625,-0.26755028195679187,0.034485179489734584,0.025855741268396376
1772045802195202000,2.5272021484375,-0.3664186524659395,0.011751068240054882,0.016265198363363743
1772045802205188400,2.537188232421875,-0.3448760982215404,0.006014065807883161,0.004106558535993099
1772045802215174100,2.547174072265625,-0.2520025842130184,0.037437017315940464,-0.039866146442294116
1772045802225159200,2.5571591796875,-0.14042612330019474,0.06530965821456629,-0.04470540316700935
1772045802235145200,2.567145263671875,-0.029316110855340957,0.0868044506273698,-0.05550166859999299
1772045802245131300,2.57713134765625,0.06859656636416912,0.08209388918308541,-0.07650967757627368
1772045802255116300,2.5871162109375,0.14967150602936743,0.07531096017784439,-0.055591392710059875
1772045802265102000,2.59710205078125,0.17800328202247617,0.07150197808262891,-0.027068331928551195
1772045802275088400,2.60708837890625,0.23648878873884677,0.055277942846715444,0.012741700412333011
1772045802285073400,2.617073486328125,0.27035657154917714,0.07579265188071876,0.013070932366698979
1772045802295059200,2.62705908203125,0.2777782459825277,0.04096515719275921,0.09023965837359428
1772045802305045200,2.637045166015625,0.15591127720177173,0.1019809861043468,0.032048896820098156
1772045802315030300,2.6470302734375,0.04593932887613773,0.09487457903209141,0.006958294705301523
1772045802325016300,2.657016357421875,0.03725158002972603,0.018089911306183783,0.031848551942408085
1772045802335002000,2.667002197265625,0.05192366398274898,0.004596926735667512,0.030055677176266907
1772045802344987100,2.676987060546875,0.040054362490773196,0.028568139748962128,0.08143310545310378
1772045802354973400,2.686973388671875,0.07183247954547405,0.014294514778326264,0.07997077781558036
1772045802364959200,2.696959228515625,0.10128712208867073,0.003775632381462492,0.06273790346384048
1772045802374944300,2.7069443359375,0.10397124660611153,0.007358450171141884,0.06143149704039096
1772045802384930000,2.716929931640625,0.09380407285690306,0.005666935153934173,0.07124021274074911
1772045802394916400,2.726916259765625,0.05725684170424938,-0.021870934532105455,0.07524827933833003
1772045802404901400,2.7369013671875,0.02803717696070671,-0.03384684733686736,0.0758509214065969
1772045802414887200,2.74688720703125,0.015591536885499952,-0.03769226615206571,0.08231032667905092
1772045802424873200,2.756873291015625,0.04689852929711342,-0.043921550179785114,0.08323518643900751
1772045802434858200,2.766858154296875,0.0851800368964672,-0.016758354458457324,0.09203326379209756
1772045802444844300,2.77684423828125,0.11056114639043807,0.009546050742757507,0.11194047191962599
1772045802454829300,2.786829345703125,0.1157446865081787,0.007627695566578768,0.100069709122926
1772045802464815000,2.796815185546875,0.10667407582402229,0.0075772371711093,0.07407558229714632
1772045802474801400,2.806801513671875,0.03653086453974247,0.008359391391591635,0.09117781600654125
1772045802484786200,2.8167861328125,-0.04205108926594257,0.005972114945854991,0.10675327854007483
1772045802494772200,2.826772216796875,-0.05526186849474907,-0.016741807465744205,0.09462269576340913
1772045802504758000,2.836758056640625,-0.06384148079156875,-0.03288382925729966,0.09315598421171307
1772045802514743300,2.846743408203125,-0.05657528918087482,-0.004006463728961534,0.0507835540369153
1772045802524729300,2.856729248046875,-0.06012567513883114,0.001838488023134414,0.04747998244687915
1772045802534715100,2.866715087890625,-0.06778641902506351,-0.021684086173516696,0.05592646988332271
1772045802544700200,2.8767001953125,-0.1332172148346901,-0.014789623085199854,0.03129559423476457
1772045802554686200,2.886686279296875,-0.22161446021199224,-0.026075389068177898,0.03687690149843693
1772045802564672300,2.89667236328125,-0.3010229279696941,-0.040198223374295045,0.06402502066493033
1772045802574657300,2.9066572265625,-0.3355214098989963,-0.027623088867636397,0.09035144818499684
1772045802584643000,2.91664306640625,-0.3150613901942968,0.0015683270289562643,0.09349223042875528
1772045802594629400,2.92662939453125,-0.22086159601807592,0.022548415951849893,0.07646291582509875
1772045802604614100,2.9366142578125,-0.11882628591060637,0.009489333853148854,0.044749534569680685
1772045802614600200,2.94660009765625,-0.020544190856814384,0.025293216581386512,0.0631599282681942
1772045802624586200,2.956586181640625,0.08961012829840183,0.013741817365586757,0.10584887704625726
1772045802634571300,2.9665712890625,0.1685568237632513,0.06904386260709724,0.03927943259552121
1772045802644557300,2.976557373046875,0.2906844893068075,0.06689600039082579,0.07209522213488817
1772045802654543000,2.986543212890625,0.4010802160024643,0.04540176966702565,0.10279182756319641
1772045802664528100,2.996528076171875,0.40853228557407856,0.09138944033007138,0.03851896961703896
1772045802674514200,3.00651416015625,0.361992068195343,0.08807935680085793,0.08787848220020532
1772045802684499200,3.016499267578125,0.3003244243115187,0.034395596943562846,0.1318779290549457
1772045802694485200,3.0264853515625,0.29136487278640266,-0.031068881939956917,0.20840324259176848
1772045802704471000,3.036470947265625,0.22640286353230474,0.016204563350463285,0.15204787977188824
1772045802714456300,3.046456298828125,0.10281155517697334,0.08708864699676633,0.0298652691707015
1772045802724442400,3.0564423828125,-0.0011187748968601225,0.04283371841046028,0.05326572624146938
1772045802734428200,3.06642822265625,-0.04867547584176063,-0.01212176014939323,0.09692015905082225
1772045802744413200,3.0764130859375,-0.0667412938863039,-0.01491585698048584,0.09927212900444865
1772045802754399200,3.086399169921875,-0.08944763121306895,-0.022709104672586543,0.08649608793109655
1772045802764385300,3.09638525390625,-0.14059621917009352,-0.029064812108548357,0.10741773379817604
1772045802774370300,3.106370361328125,-0.12976678211987017,-0.019607585860136896,0.10983195533305407
1772045802784356000,3.116356201171875,-0.07654431049823761,-0.015834542727982626,0.0949573345452547
1772045802794342400,3.12634228515625,-0.0022486557096242903,-0.0013983042242936789,0.08966565787792205
1772045802804327200,3.1363271484375,0.05974865851998329,0.039196202158322556,0.09492460131943226
1772045802814313200,3.146313232421875,0.11095511414408683,0.03499319751053117,0.08134294295161962
1772045802824299300,3.15629931640625,0.12595628392100333,0.030687645803717894,0.08333148642033338
1772045802834284300,3.1662841796875,0.11011048001348972,0.03754489128733985,0.07710808186084031
1772045802844270300,3.176270263671875,0.10033668949604034,0.031076298061432316,0.05994812661483884
1772045802854256000,3.186256103515625,0.08423603404462338,0.020700249068206174,0.031418928353488446
1772045802864241200,3.1962412109375,0.06021393794417381,0.01933494293121621,0.016006255166232584
1772045802874227200,3.206227294921875,0.02664893747270107,0.053284220879385245,0.032042467079311604
1772045802884213200,3.216213134765625,0.0038449849903583523,0.05554994645481929,0.057401364741474385
1772045802894198300,3.2261982421875,0.013540449574589728,0.025752920214738694,0.06980828024148941
1772045802904184300,3.236184326171875,0.015396306574344635,-0.0011290770951658488,0.054667701993882656
1772045802914169300,3.24616943359375,-0.02413841595649719,-0.001667759682284668,0.044047816041111944
1772045802924155100,3.256155029296875,-0.06135492467284202,-0.00836080931383185,0.03798296304419636
1772045802934141200,3.26614111328125,-0.06182955644726753,-0.03057306124703027,0.05630027163177728
1772045802944126200,3.276126220703125,-0.023265140253305432,-0.029045952144451437,0.058832566588371986
1772045802954112300,3.2861123046875,0.022346271842718122,-0.020566950677894054,0.07547098217830062
1772045802964098300,3.296098388671875,0.08494856622815132,-0.018879308118205516,0.07998232212290167
1772045802974083000,3.3060830078125,0.11002572433948517,-0.025427021861774847,0.08670315481051802
1772045802984069400,3.3160693359375,0.0909884309142828,-0.03380800631395541,0.10505421953722834
1772045802994055200,3.32605517578125,0.03945464303195476,-0.0199043220506981,0.11762231694832444
1772045803004040200,3.336040283203125,-0.036952889344096185,-0.02494833496673964,0.13354337804913521
1772045803014026200,3.346026123046875,-0.07036123794913292,-0.045803162675304335,0.12729483904838562
1772045803024012300,3.35601220703125,-0.06099193657934665,-0.049548203555680806,0.1284727967865765
1772045803033997300,3.365997314453125,-0.07567688001394271,-0.05000974751967005,0.12116013568565248
1772045803043983000,3.375983154296875,-0.06257832898795604,-0.05882992710671387,0.11776815515980124
1772045803053969200,3.38596923828125,-0.02393792494833469,-0.055076830784045155,0.1253282151505351
1772045803063954200,3.3959541015625,0.00965220996439457,-0.03586208929955028,0.11744798329472542
1772045803073940200,3.405940185546875,0.03369944050610065,-0.02133092078771442,0.12979498530104755
1772045803083926300,3.41592626953125,0.026194763964414596,-0.028713222191901876,0.12937354501858353
1772045803093911300,3.425911376953125,0.01125906063914299,-0.03614625826948322,0.125068249040097
1772045803103897300,3.4358974609375,-0.0037070378243923186,-0.036691014404362066,0.11469693102091551
1772045803113883100,3.445883056640625,0.0019464578926563262,-0.03627493528360501,0.0990126012854278
1772045803123868200,3.4558681640625,0.01811316431760788,-0.018535992839559912,0.0809369924992323
1772045803133854200,3.465854248046875,0.00751285984814167,-0.010362796786008401,0.0779721513442695
1772045803143839200,3.475839111328125,0.022377836024761198,-0.002150720893638208,0.08691679756119847
1772045803153825300,3.4858251953125,0.04892039051353931,-0.013386866448074578,0.0675514412254095
1772045803163811300,3.495811279296875,0.02946925559043884,-0.003451592625444755,0.0517475767634809
1772045803173796000,3.505796142578125,0.020934651479125023,-0.018650851390883325,0.0445005282446742
1772045803183782400,3.515782470703125,0.031681670942902564,-0.019047522558271884,0.03551233514696359
1772045803193768200,3.525768310546875,0.05966273380219936,0.009841768586589023,0.025451982773095367
1772045803203753200,3.535753173828125,0.06670037735402584,0.004927318600658327,0.042035453305393454
1772045803213739300,3.5457392578125,0.05581131907105445,-0.00937954876916483,0.05349529721364379
1772045803223725300,3.555725341796875,0.017348609685897826,-0.010919270758144558,0.06826981862783432
1772045803233710300,3.56571044921875,-0.019352350723743438,-0.015799763675546273,0.10677972815558313
1772045803243696000,3.575696044921875,-0.06215279705226421,-0.007920691730361432,0.11770327323004602
1772045803253682200,3.58568212890625,-0.0635433746278286,-0.026472905052360145,0.11241466530263423
1772045803263667500,3.59566748046875,-0.012574234890937805,-0.02845968582225032,0.09673998017832636
1772045803273653200,3.6056533203125,-0.0006166705936193465,-0.02814097526189871,0.07061477431878448
1772045803283639300,3.615639404296875,0.008141805401444435,-0.021215623844973743,0.06916194516196847
1772045803293624000,3.6256240234375,0.039487376257777214,-0.03838610961814411,0.07106880169659853
1772045803303610400,3.6356103515625,0.05308510897755622,-0.03490783904832788,0.0697751086242497
1772045803313596200,3.64559619140625,0.023545710760354995,-0.03044028344652615,0.09871858677491545
1772045803323581200,3.655581298828125,-0.0035194062978029248,-0.03234014398478903,0.10902122347205877
1772045803333567500,3.6655673828125,-0.0007838438540697097,-0.04185680880285799,0.09442615027800202
1772045803343553500,3.675553466796875,-0.00040624271333217617,-0.04288145740916952,0.08702142697945237
1772045803353538600,3.68553857421875,0.05365735590755939,-0.04490214044866152,0.1007422015570104
1772045803363524400,3.6955244140625,0.10565057799518107,-0.03372861180165782,0.10152911415100097
1772045803373510400,3.705510498046875,0.16801321840584277,-0.029596964490180833,0.0941992096543312
1772045803383495700,3.71549560546875,0.2291372569322586,-0.03199385129776783,0.08953194849565625
1772045803393481500,3.7254814453125,0.2508043143391609,-0.055774384594149885,0.08590615921393037
1772045803403466500,3.735466552734375,0.21678981653451918,-0.10486888043242507,0.12761486478298903
1772045803413452300,3.745452392578125,0.1320715519309044,-0.1359406119165942,0.17248817186281085
1772045803423438600,3.7554384765625,-0.0124655138194561,-0.1727931096261367,0.20568755389228463
1772045803433423600,3.765423583984375,-0.09567805003523826,-0.21204448517095295,0.20824512942060827
1772045803443409400,3.775409423828125,-0.14607202023267746,-0.2147248102961108,0.19395824539288878
1772045803453395500,3.7853955078125,-0.20225567974746225,-0.23101952701490372,0.17252485061138867
1772045803463380500,3.79538037109375,-0.24259353535473346,-0.20587620833218095,0.16505743734017014
1772045803473366500,3.805366455078125,-0.25281916129291054,-0.15205074758240952,0.13706409952118992
1772045803483352300,3.815352294921875,-0.18975567913651464,-0.09845374355996027,0.11408961277753114
1772045803493337300,3.82533740234375,-0.11114859088957309,-0.06510860551740043,0.11535305684208869
1772045803503323600,3.83532373046875,-0.031070845568180083,-0.004555466780695133,0.10095452913343905
1772045803513309400,3.845309326171875,0.03512918104827404,0.026919580240780488,0.09379662020280957
1772045803523294500,3.85529443359375,0.07487959215641021,0.0670620274403831,0.08731924088224768
1772045803533280300,3.8652802734375,0.08147066098451614,0.1062497037989553,0.054824938382208345
1772045803543266600,3.8752666015625,0.05510697019398212,0.13405781211098655,0.03390183121040463
1772045803553251600,3.88525146484375,0.06455810462832451,0.14156675383583642,0.026311229950934645
1772045803563237400,3.8952373046875,0.06750000329911708,0.1373768004658632,0.019935265178233384
1772045803573223700,3.9052236328125,0.08419687107801437,0.12963274394404142,-0.006564619212597608
1772045803583208400,3.91520849609375,0.07350479667186736,0.11617674864935688,-0.05828253149017691
1772045803593194500,3.925194580078125,0.05724339770078659,0.11128889440940692,-0.08476897187754512
1772045803603180300,3.93518017578125,0.041049218747019764,0.11800103233391418,-0.11172697529941797
1772045803613165300,3.945165283203125,0.04839315176904201,0.11371654168143867,-0.1358548698619008
1772045803623151600,3.955151611328125,0.06759703393280506,0.09522189463241956,-0.1473794495694339
1772045803633136400,3.965136474609375,0.07581482717990874,0.07365422421307302,-0.13765651245638727
1772045803643122400,3.975122314453125,0.060740007644891736,0.07143908718056045,-0.1270537237688899
1772045803653108500,3.9851083984375,0.012283142989873885,0.09614081784193404,-0.105721597404778
1772045803663093500,3.995093505859375,-0.07820961336195469,0.12005761780384927,-0.09111147277206182
1772045803673079600,4.00507958984375,-0.1077361520975828,0.12006982883145101,-0.05269450222477316
1772045803683065300,4.0150654296875,-0.04918868606090546,0.13380797466891817,0.007862988460063934
1772045803693050400,4.02505029296875,0.08688274916112422,0.13875540447584353,0.04357961400747299
1772045803703036700,4.03503662109375,0.2118915230989456,0.14027163599138148,0.06594415215924382
1772045803713022500,4.0450224609375,0.28860826755464075,0.13934568025288172,0.054774377238750456
1772045803723007500,4.055007568359375,0.28899288295805453,0.10498520942162722,0.02709185893461108
1772045803732993300,4.0649931640625,0.2641851894378662,0.07645465032025239,-0.006268705005943774
1772045803742979600,4.0749794921875,0.18373861080408097,0.04354885354302823,-0.01778480914607644
1772045803752964600,4.084964599609375,0.100473467618227,0.011303529968531801,-0.012583294980227946
1772045803762950400,4.094950439453125,0.039899464190006256,-0.0013803849751129746,-0.01946793992742896
1772045803772936700,4.104936767578125,-0.0386427421271801,-0.008082723024813459,0.0006035188511013984
1772045803782921500,4.11492138671875,-0.11787468427419662,-0.027105576932709662,0.04011120724454522
1772045803792907500,4.124907470703125,-0.15827099207043646,-0.05045109807900153,0.054026627611368894
1772045803802892500,4.134892578125,-0.1725660594046116,-0.06844688309463672,0.07480491948500276
1772045803812878300,4.14487841796875,-0.18870587782263754,-0.07694473539213649,0.08607406312674283
1772045803822864600,4.15486474609375,-0.19662205777466296,-0.06626363903773017,0.10294234194979071
1772045803832849400,4.164849365234375,-0.18713702107071875,-0.04006757816537283,0.10438348066881298
1772045803842835500,4.17483544921875,-0.16599661788642406,-0.02600760736186057,0.09661752284243702
1772045803852821500,4.184821533203125,-0.09980535909831523,-0.008908752919640392,0.09990224360153079
1772045803862806500,4.194806640625,-0.025135610300302504,0.01846708318865858,0.09239303701519966
1772045803872792600,4.20479248046875,0.038439913031458856,0.047388952295714985,0.09545067102015017
1772045803882778400,4.2147783203125,0.09736322664320468,0.06142841003416106,0.07851984835490584
1772045803892763400,4.224763427734375,0.1178320141762495,0.06514702869849279,0.028645664247870444
1772045803902749400,4.23474951171875,0.11797522203922271,0.035860244402335956,-0.025126988602429626
1772045803912735500,4.244735595703125,0.08318623273074627,-0.005412517434870824,-0.0575999560534954
1772045803922720500,4.254720458984375,0.03158580935299396,-0.010862435137527063,-0.04964519765675068
1772045803932706600,4.26470654296875,0.017114800930023193,-0.019065195212280377,-0.05296016742363572
1772045803942692600,4.274692626953125,0.037698154753446574,-0.0059028034361544995,-0.04296951928511262
1772045803952677400,4.284677490234375,0.050343116793036456,-0.0029846601002849636,0.007252455346286296
1772045803962663400,4.294663330078125,0.059601359003782266,-0.005462338792812079,0.06408420350626111
1772045803972649500,4.3046494140625,0.06053074880838394,-0.00880896407328546,0.10997852419689297
1772045803982634500,4.314634521484375,0.010049684849381447,-0.024846399829071015,0.11224763817265629
1772045803992620500,4.32462060546875,-0.006102408528327941,-0.050628400007821615,0.09940262351632118
1772045804002605300,4.334605224609375,-0.020264789393544196,-0.024542284049652516,0.0626550474859774
1772045804012591400,4.34459130859375,-0.0036152678877115246,0.025424546776898205,0.05010521638393402
1772045804022577400,4.354577392578125,0.058301382321119304,0.021025928225461392,0.04739186577200889
1772045804032562400,4.3645625,0.12475450691580772,-0.002764130951091647,0.0474418423935771
1772045804042548500,4.374548583984375,0.16338263599574565,-0.007143478546477853,0.05311024341881275
1772045804052534500,4.384534423828125,0.16152970160543917,-0.030662721425015478,0.05892345974221825
1772045804062519600,4.39451953125,0.0904348886847496,-0.04887932785078883,0.08932283578962087
1772045804072505600,4.404505615234375,0.04113222085535526,-0.0703334366267547,0.10619579078778624
1772045804082491400,4.414491455078125,0.006856441766023636,-0.06629711204906925,0.10408303641751408
1772045804092476400,4.424476318359375,-0.019146014496684072,-0.0458148987788707,0.1045746193267405
1772045804102462500,4.43446240234375,-0.040324996125698086,-0.03307065934957936,0.08797302861586212
1772045804112448500,4.444448486328125,-0.053987610775232314,-0.02055191750554368,0.065029959923774
1772045804122433500,4.45443359375,-0.04226210166811943,-0.02271600020425394,0.04046732720583677
1772045804132419600,4.464419677734375,-0.053093876805901524,-0.012298979879822581,0.05202288657352328
1772045804142405600,4.474405517578125,-0.048072249251604075,-0.008895893438067288,0.06937091173753142
1772045804152390400,4.484390380859375,-0.013895254361629486,-0.0011133315367624164,0.052811698863655325
1772045804162376400,4.49437646484375,0.01999181767106056,0.010789232903998344,0.03281637406125665
1772045804172362500,4.504362548828125,0.03523030333518982,0.03134496806813404,0.015776391933113337
1772045804182347500,4.514347412109375,0.0365513228058815,0.06394601887827739,0.007471358793973922
1772045804192333600,4.52433349609375,0.019039046990871427,0.07029661174770445,-0.010609072297811507
1772045804202318300,4.534318359375,0.023007950621843336,0.09410544868996366,-0.013697539832442998
1772045804212304600,4.5443046875,0.049041386544704434,0.09308925738474354,-0.026080343804508445
1772045804222290400,4.55429052734375,0.12728373313248156,0.024041494920663535,-0.021332564755529165
1772045804232275500,4.564275390625,0.20444646779000758,0.0008468443539924919,-0.0033861353069543835
1772045804242261500,4.574261474609375,0.07025076331198216,0.11214403166770934,-0.10360971981734036
1772045804252247600,4.58424755859375,0.007884615769982338,0.09246007436942309,-0.08400237141922116
1772045804262232600,4.594232666015625,0.03710194242596626,0.11070400719353929,-0.048373862546682356
1772045804272218400,4.60421826171875,0.16149521481394766,0.04414859126815572,-0.01638926313444972
1772045804282204400,4.614204345703125,0.30276480320096016,0.04613914403086528,-0.026630525033175943
1772045804292189700,4.624189697265625,0.329466347643733,0.19124999108118934,-0.1424700502179563
1772045804302175500,4.634175537109375,0.271369547984004,0.19507857292601838,-0.06329013051912188
1772045804312161500,4.64416162109375,0.10489712927937507,0.07711774473832919,0.05348784455955028
1772045804322146300,4.654146240234375,0.0636211160391569,0.008848620230238885,0.15502031971141694
1772045804332131800,4.6641318359375,0.022286066088080404,0.026856753270793704,0.19328166130557656
1772045804342118000,4.674117919921875,-0.2249152553230524,0.05876309981504455,0.026883915272355077
1772045804352103000,4.68410302734375,-0.3929869259178638,0.014505513480771332,-0.15447145365700124
1772045804362089000,4.6940888671875,-0.4626952529162168,-0.1286111458113417,-0.06634001960903406
1772045804372074800,4.70407470703125,-0.5994838964968919,-0.9775509011805057,0.6941838952802121
1772045804382059800,4.714059814453125,-0.42863516240417954,-0.6707530430711806,1.0109051815107464
1772045804392046000,4.724046142578125,-0.23320728285014627,-0.15126051052017137,0.8238000168830156
1772045804402030800,4.73403076171875,-0.11118658481240272,0.06746610102951527,0.38056495897918935
1772045804412017000,4.744016845703125,-0.01787000321149826,0.13083989124409853,0.13512553267404437
1772045804422002700,4.754002685546875,-0.033113749572634694,0.12882387524656952,-0.050455783387273544
1772045804431988000,4.763988037109375,-0.07136427751183509,0.1062964564169757,-0.1799646452233195
1772045804441974000,4.77397412109375,-0.06785246999859809,0.19731144654462113,-0.3296547098226845
1772045804451959800,4.783959716796875,-0.011176643052697182,0.32271022444702685,-0.5056972131662071
1772045804461944800,4.79394482421875,0.10489362214803695,0.40742980422489344,-0.588296585919708
1772045804471931000,4.803930908203125,0.23153262763619423,0.3600336641365662,-0.5622485369496047
1772045804481917000,4.8139169921875,0.3283195156961679,0.26316775602363046,-0.4209475305110216
1772045804491902000,4.82390185546875,0.39031975253522394,0.13528127122502773,-0.15059300478845833
1772045804501887700,4.8338876953125,0.4293120387524366,-0.0959483183439821,0.08530351714566349
1772045804511874000,4.8438740234375,0.3593266483783722,-0.17799352781344205,0.2719473478719592
1772045804521858800,4.85385888671875,0.25139994214475153,-0.1149298264613375,0.32413901514112947
1772045804531844900,4.863844970703125,0.2089946326136589,-0.012092040864564477,0.29758360117077826
1772045804541830700,4.87383056640625,0.19596037899553775,0.12052322602160274,0.2647448691472411
1772045804551816000,4.88381591796875,0.15603578036427496,0.22261662299185989,0.19883169664815067
1772045804561802000,4.893802001953125,0.0692336952239275,0.22066490440219638,0.07796162995025516
1772045804571787000,4.903787109375,-0.016193009909987448,0.08057495425380766,-0.03057356357052922
1772045804581772800,4.913772705078125,-0.019763269612193105,-0.264802371488139,-0.22319223092272877
1772045804591758800,4.9237587890625,0.008396656945347785,-0.3232156532185152,-0.2332061138063669
1772045804601744000,4.933743896484375,-0.0076589903205633155,-0.12648834497109054,-0.05449132251366973
1772045804611730000,4.94372998046875,0.045080081698298455,-0.000990180081129074,0.08345160566866397
1772045804621715700,4.9537158203125,0.09434124847352504,0.02976999210268259,0.1977314803212881
1772045804631701000,4.963700927734375,0.11326631369590759,0.0033144217776134607,0.21981486344411968
1772045804641687000,4.97368701171875,0.11395955665707587,-0.047775604392588135,0.1418320445753634
1772045804651672800,4.9836728515625,0.11902677691876888,-0.10531608534380793,0.07849909782782197
1772045804661657900,4.993657958984375,0.1003776060283184,-0.13694540504496544,0.08719897550344467
1772045804671644000,5.003643798828125,0.09758125330805778,-0.10208861119728535,0.07519362654164433
1772045804681630000,5.0136298828125,0.1113356378942728,-0.052702868194319304,0.054481677902489895
1772045804691615000,5.023614990234375,0.15536591827869414,-0.0282652866281569,0.10710501458719372
1772045804701600800,5.033600830078125,0.12832535113990307,-0.03327789062578231,0.1717757127445191
1772045804711587000,5.043587158203125,0.026083704805374145,-0.038980266985855994,0.22226583679281173
1772045804721571800,5.05357177734375,-0.17329495820105076,-0.01955671418942511,0.24309352076612412
1772045804731558000,5.063557861328125,-0.4015443263828754,-0.011960285977367311,0.13204488311968743
1772045804741543000,5.07354296875,-0.550859274059534,0.008628730401862413,-0.14773177013844252
1772045804751529000,5.083529052734375,-0.5957844574570655,-0.025002174912672488,-0.3807824011221528
1772045804761515000,5.093514892578125,-0.4677513672620058,0.025420856982469556,-0.38120975968874987
1772045804771499800,5.103499755859375,-0.20128420436680317,0.06874039528165012,-0.1124218987610191
1772045804781485800,5.11348583984375,0.1188560965269804,0.09601546529605984,0.20528109198324382
1772045804791471900,5.123471923828125,0.3697439974963665,0.09604202450942248,0.4273901307791471
1772045804801457000,5.133456787109375,0.4788602057754993,0.048326881599798796,0.41354996760562057
1772045804811443000,5.14344287109375,0.5117161811947822,-0.08082260887194424,0.2769456676159054
1772045804821429000,5.153428955078125,0.4553472282409668,-0.18327402549963442,0.17258827123641968
1772045804831414000,5.1634140625,0.3391021909952163,-0.12495364621710031,0.08719371480643749
1772045804841399800,5.17339990234375,0.20461364105045796,-0.00750179046485573,0.0001249415539205074
1772045804851385900,5.1833857421875,0.06643441989421844,0.12089059802927075,-0.07871690529696643
1772045804861371000,5.193370849609375,-0.07119944233894347,0.24547387656401842,-0.15137487588115037
1772045804871357000,5.20335693359375,-0.14317454522550105,0.28249336487092075,-0.19605755575969813
1772045804881343000,5.213343017578125,-0.13101999705135822,0.22380974176656454,-0.22907018304541707
1772045804891327700,5.22332763671875,-0.1002601171284914,0.2324917549919337,-0.35378545392937955
1772045804901313800,5.233313720703125,-0.12872808672189712,0.04560107336509973,-0.22512371044196186
1772045804911299000,5.243299072265625,-0.09132219291329384,-0.030271511884033677,-0.07635755575448275
1772045804921284900,5.253284912109375,-0.044404958915710446,-0.015818623639643193,0.018162848678231237
1772045804931271000,5.26327099609375,0.03996668420732021,-0.03428133204728365,0.18007365855574606
1772045804941255700,5.273255615234375,0.08788578872382641,-0.020766711033694443,0.18249511354900896
1772045804951242000,5.283241943359375,0.07571487393677234,-0.009548092002794146,0.148412957335636
1772045804961227800,5.293227783203125,-0.08133855903744697,-0.1252376142576337,0.20903920240774748
1772045804971212800,5.303212890625,-0.18773440244197845,-0.10799096710886806,0.20409568159095942
1772045804981197800,5.31319775390625,-0.18817863907814025,-0.1052376132801175,0.20693689636625348
1772045804991184000,5.323183837890625,-0.19269640876352787,-0.18218517081700264,0.3180048232350498
1772045805001170000,5.333169921875,-0.13619769195020198,-0.17969824937209486,0.32918628859333693
1772045805011155000,5.343155029296875,-0.020256021565198897,-0.14628920664731412,0.24253895562328398
1772045805021140700,5.353140625,0.03194645935893058,-0.14483886170852928,0.2097089914280921
1772045805031127000,5.363126953125,-0.0024906477719545362,-0.09135087101850659,0.1974614312082529
1772045805041112000,5.373112060546875,-0.008072247296571732,-0.05109090295303613,0.19197525488212702
1772045805051097900,5.383097900390625,0.06498305204212665,-0.0808310479067266,0.25041195402070876
1772045805061084000,5.393083984375,0.1625742422223091,-0.043198469202779234,0.3214367704451084
1772045805071069000,5.40306884765625,0.269637025102973,0.09737667064666747,0.3245039029307663
1772045805081055000,5.413054931640625,0.35597266177535053,0.17972879064083097,0.14763605467900634
1772045805091040000,5.4230400390625,0.24241700974404812,0.17749591702222822,-0.0515295500986278
1772045805101025800,5.43302587890625,0.08081658098995685,0.09100943716969341,-0.2574579270094633
1772045805111012000,5.44301220703125,-0.026388240709900854,0.05949746023789048,-0.3556792317867279
1772045805120996900,5.452996826171875,0.010474632263183592,0.09202562847491354,-0.32793548481464385
1772045805130983000,5.46298291015625,0.07290449269115924,0.1754045524998568,-0.2915615644022822
1772045805140968700,5.47296875,0.12008066988587379,0.17118625895138828,-0.232788180655241
1772045805150954000,5.4829541015625,0.17610183231532572,0.18377912547755984,-0.1573706822298467
1772045805160940000,5.49293994140625,0.18800035990178585,-0.0725005150001496,-0.012504530655592679
1772045805170925800,5.50292578125,0.20679098508954047,-0.04675119324829429,0.19786562809497116
1772045805180910800,5.512910888671875,0.1558826356291771,-0.14734109032042322,0.24322730321362612
1772045805190897000,5.52289697265625,0.16233575729131697,-0.004947174078598618,0.28241233552396294
1772045805200883000,5.532883056640625,0.1478513048648834,-0.15652537224581464,0.19852292295992374
1772045805210868000,5.542867919921875,0.12186521521508693,-0.010474431333784014,0.0420532812230289
1772045805220853800,5.552853759765625,0.035173020190000535,-0.21045498748980462,0.04953253106251359
1772045805230840000,5.562840087890625,-0.07786825257837772,0.006194452459644526,0.11372706307545304
1772045805240824800,5.572824951171875,-0.28770576575696466,-0.18879300811681896,0.017837708377093076
1772045805250811000,5.582810791015625,-0.37309155435860153,-0.1196311725527048,0.12327215940356254
1772045805260796000,5.5927958984375,-0.42914895714521406,-0.12609560106014833,0.03868278187662363
1772045805270782000,5.602781982421875,-0.29880349835455416,-0.09171546654719859,0.18009674717038868
1772045805280768000,5.61276806640625,-0.26397359251379965,-0.21048328200252725,0.23494462803676722
1772045805290752800,5.622752685546875,-0.12824293355345726,-0.15729690460758283,0.31904534526392814
1772045805300738800,5.63273876953125,-0.058691842943429946,-0.11005853063054383,0.2447258712083101
1772045805310724900,5.642724853515625,-0.07055822182595729,-0.17434413846042007,0.24054610130563378
1772045805320710000,5.6527099609375,-0.13754443038403988,-0.10059625374767929,0.16368088828995822
1772045805330696000,5.662696044921875,-0.08215162898600101,-0.062337341572623696,0.0863634014621377
1772045805340681500,5.672681396484375,0.04118190521597862,0.011150229969806968,0.08862330921813845
1772045805350666800,5.682666748046875,0.2056786399334669,0.07165144215645268,0.09249006764888763
1772045805360652800,5.69265283203125,0.3376923241972923,0.0910539338985458,0.03341594738960266
1772045805370638600,5.702638671875,0.36686113553643224,0.05971508504394441,-0.0888477656237781
1772045805380624600,5.712624755859375,0.26488018596470353,-0.057427668226510284,-0.13791501726210117
1772045805390609700,5.722609619140625,0.196476511824131,0.0553937147134915,-0.02756751362234354
1772045805400595700,5.732595703125,0.19310966573953628,0.11473479707958176,-0.12237594121620059
1772045805410581500,5.74258154296875,0.3015735475897789,-0.10620174560453742,0.048721653071045874
1772045805420566500,5.75256640625,0.37992286168336864,-0.08445818889532238,0.2327322126843035
1772045805430552800,5.762552734375,0.4063210392653942,-0.07733516861498356,0.304474383597821
1772045805440537600,5.77253759765625,0.37087270926535126,-0.09992246440565213,0.2651695243000984
1772045805450523600,5.782523681640625,0.2913865000963211,-0.08411389636914245,0.18146204417422412
1772045805460509400,5.792509521484375,0.17013620190918444,-0.07405685933036729,0.09223755419254302
1772045805470494700,5.80249462890625,0.024552257454395293,-0.01899580150418915,0.01245396951213479
1772045805480480800,5.812480712890625,-0.11521803228557109,0.04276314652543515,-0.008899491900950669
1772045805490466600,5.822466552734375,-0.2350923659443855,-0.008900971471983939,-0.028770313540846106
1772045805500451600,5.83245166015625,-0.3697907592475414,-0.0462501575241331,-0.05990078034177422
1772045805510437600,5.842437744140625,-0.542241083317995,-0.033480463993176814,-0.07850932696089148
1772045805520423700,5.852423583984375,-0.6904927856773138,0.056958580276882276,-0.08221066569685935
1772045805530408700,5.86240869140625,-0.7242196987122297,0.14985898229232988,-0.04758373508229852
1772045805540394500,5.87239453125,-0.6323498087882995,0.10081490146704017,-0.014083251214399933
1772045805550380800,5.882380859375,-0.42430502424538136,0.04645629282179288,0.018569968174397943
1772045805560365600,5.892365478515625,-0.22732114742100237,0.17934899754300712,0.020286928160116076
1772045805570351600,5.9023515625,-0.1481663621634245,0.25087434736806896,-0.008935293866693972
1772045805580337700,5.912337646484375,-0.13982055862247944,0.026351251434069127,0.08891615468487143
1772045805590322700,5.92232275390625,-0.06331950274407863,0.08570219760704785,0.09614844402596354
1772045805600308700,5.932308837890625,0.01575344944894314,0.23412089056372642,0.023404840984940528
