time,seconds_elapsed,z,y,x
1772045799728745200,0.0607451171875,0.06073674559593201,0.032581523060798645,0.15688231587409973
1772045799738730200,0.070730224609375,-0.03225678578019142,0.04360469430685043,0.2073456346988678
1772045799748716000,0.080716064453125,-0.08510348945856094,0.03745226189494133,0.2630038261413574
1772045799758702300,0.090702392578125,-0.10064909607172012,0.0259802658110857,0.31130826473236084
1772045799768687400,0.100687255859375,-0.10250718146562576,-0.023141473531723022,0.34683775901794434
1772045799778673200,0.110673095703125,-0.09555056691169739,-0.1100180596113205,0.35313844680786133
1772045799788659500,0.120659423828125,-0.11152420938014984,-0.20883280038833618,0.338105708360672
1772045799798644200,0.130644287109375,-0.13543087244033813,-0.2944086790084839,0.29868853092193604
1772045799808630300,0.14063037109375,-0.16843463480472565,-0.3601658344268799,0.25922447443008423
1772045799818616000,0.150615966796875,-0.19163721799850464,-0.38774749636650085,0.22880356013774872
1772045799828601000,0.16060107421875,-0.20253406465053558,-0.3840472996234894,0.21309038996696472
1772045799838587400,0.17058740234375,-0.19128356873989105,-0.34456729888916016,0.1987706869840622
1772045799848573200,0.1805732421875,-0.15760843455791473,-0.29488813877105713,0.19142435491085052
1772045799858558200,0.19055810546875,-0.10638462752103806,-0.24935020506381989,0.19827574491500854
1772045799868544300,0.200544189453125,-0.06133726239204407,-0.21504175662994385,0.20790201425552368
1772045799878530300,0.2105302734375,-0.02538720890879631,-0.2045939862728119,0.22088244557380676
1772045799888515300,0.220515380859375,0.0129740284755826,-0.2032267153263092,0.23183469474315643
1772045799898501000,0.230501220703125,0.035229623317718506,-0.20876888930797577,0.22126078605651855
1772045799908487400,0.2404873046875,0.05270795151591301,-0.22067295014858246,0.18922081589698792
1772045799918472200,0.25047216796875,0.07115858793258667,-0.21184378862380981,0.13603709638118744
1772045799928458200,0.260458251953125,0.07468540966510773,-0.1778048723936081,0.05576223507523537
1772045799938444000,0.270444091796875,0.062365684658288956,-0.11468692868947983,-0.04180552065372467
1772045799948429300,0.28042919921875,0.0172733087092638,-0.0704805850982666,-0.14304772019386292
1772045799958415400,0.290415283203125,-0.04104642570018768,-0.023241525515913963,-0.2375248819589615
1772045799968401200,0.300401123046875,-0.10620784759521484,0.017115218564867973,-0.29610323905944824
1772045799978386200,0.31038623046875,-0.13155105710029602,0.036428555846214294,-0.29036128520965576
1772045799988372200,0.320372314453125,-0.11164392530918121,0.003609621897339821,-0.2160143405199051
1772045799998358300,0.330358154296875,-0.0672496110200882,-0.05431593582034111,-0.09523062407970428
1772045800008343300,0.34034326171875,-0.04812705144286156,-0.11778811365365982,0.031150223687291145
1772045800018329000,0.3503291015625,-0.06045515835285187,-0.15014828741550446,0.11936023831367493
1772045800028315400,0.3603154296875,-0.10263723880052567,-0.1688482165336609,0.16496260464191437
1772045800038300200,0.370300048828125,-0.15041029453277588,-0.19706884026527405,0.1791805773973465
1772045800048286200,0.3802861328125,-0.2024519294500351,-0.20315949618816376,0.18885743618011475
1772045800058272000,0.39027197265625,-0.2521669864654541,-0.17085452377796173,0.1976284235715866
1772045800068257300,0.40025732421875,-0.2922172248363495,-0.10406724363565445,0.2066996842622757
1772045800078243300,0.410243408203125,-0.32052797079086304,-0.04808561131358147,0.20712611079216003
1772045800088229000,0.42022900390625,-0.32539647817611694,0.001188458874821663,0.19536453485488892
1772045800098214100,0.430214111328125,-0.3090524673461914,0.04507552459836006,0.14945875108242035
1772045800108200200,0.4402001953125,-0.2862488925457001,0.0949552059173584,0.06940386444330215
1772045800118186200,0.450186279296875,-0.2614510655403137,0.1417108178138733,-0.021075021475553513
1772045800128171300,0.460171142578125,-0.2447916567325592,0.16175296902656555,-0.10956946760416031
1772045800138157000,0.470156982421875,-0.2360001504421234,0.2049497812986374,-0.1687501221895218
1772045800148143400,0.480143310546875,-0.23713038861751556,0.2745187282562256,-0.1859339028596878
1772045800158128400,0.49012841796875,-0.24725106358528137,0.3449154794216156,-0.15950553119182587
1772045800168114200,0.5001142578125,-0.26893213391304016,0.4096603989601135,-0.10812675952911377
1772045800178100200,0.510100341796875,-0.28274038434028625,0.4578268229961395,-0.05445636436343193
1772045800188085200,0.520085205078125,-0.26212218403816223,0.47583457827568054,-0.024823373183608055
1772045800198071300,0.5300712890625,-0.2064073234796524,0.46339869499206543,-0.030056297779083252
1772045800208056300,0.540056396484375,-0.13710947334766388,0.4424276351928711,-0.06838317215442657
1772045800218042000,0.5500419921875,-0.08350171893835068,0.42301562428474426,-0.12770690023899078
1772045800228028400,0.5600283203125,-0.03206915035843849,0.46920016407966614,-0.19306379556655884
1772045800238013200,0.57001318359375,0.11502017080783844,0.6768295764923096,-0.29783934354782104
1772045800247999200,0.579999267578125,0.21828584372997284,0.5520333051681519,-0.31255197525024414
1772045800257985000,0.589985107421875,0.307488352060318,0.42337241768836975,-0.3104085624217987
1772045800267971300,0.599971435546875,0.4151487648487091,0.41930097341537476,-0.2880702316761017
1772045800277956400,0.609956298828125,0.4319276809692383,0.4498637020587921,-0.2483437955379486
1772045800287942100,0.619942138671875,0.3324969708919525,0.49160289764404297,-0.24723511934280396
1772045800297927200,0.62992724609375,0.2046753466129303,0.4712323248386383,-0.24286077916622162
1772045800307913200,0.639913330078125,0.14754042029380798,0.4482537806034088,-0.250766396522522
1772045800317899300,0.649899169921875,0.1471760869026184,0.39173340797424316,-0.27065756916999817
1772045800327884500,0.659884521484375,0.17142817378044128,0.3091828525066376,-0.290622740983963
1772045800337870300,0.669870361328125,0.1870584785938263,0.19794106483459473,-0.2773374319076538
1772045800347856400,0.6798564453125,0.19109369814395905,0.12106146663427353,-0.23131585121154785
1772045800357841200,0.689841064453125,0.1762852817773819,0.08818342536687851,-0.1659093052148819
1772045800367827500,0.699827392578125,0.1562657654285431,0.0623004287481308,-0.09731907397508621
1772045800377813200,0.709813232421875,0.12949033081531525,0.03593922406435013,-0.03316277638077736
1772045800387798300,0.71979833984375,0.12545005977153778,0.03480445221066475,0.004395786672830582
1772045800397784600,0.72978466796875,0.1352684646844864,-0.01530708558857441,0.015340548008680344
1772045800407770400,0.739770263671875,0.15113744139671326,-0.0411706417798996,0.02102666161954403
1772045800417755400,0.74975537109375,0.20678023993968964,-0.030629117041826248,0.007531559560447931
1772045800427741200,0.7597412109375,0.246558278799057,-0.04677240177989006,0.004463864490389824
1772045800437727500,0.7697275390625,0.2767868638038635,-0.0351017601788044,0.007168191485106945
1772045800447712500,0.77971240234375,0.3103914260864258,-0.024966299533843994,0.010129094123840332
1772045800457698300,0.7896982421875,0.3296491205692291,-0.015392306260764599,0.00486100884154439
1772045800467684400,0.799684326171875,0.34043067693710327,-0.003155080834403634,-0.01019597053527832
1772045800477669000,0.809669189453125,0.3455832898616791,0.021158521994948387,-0.03748933598399162
1772045800487655400,0.819655517578125,0.3354976177215576,0.053938042372465134,-0.1058068722486496
1772045800497641200,0.82964111328125,0.32835766673088074,0.08030650019645691,-0.19803868234157562
1772045800507626200,0.839626220703125,0.3298135995864868,0.10357213765382767,-0.3001653254032135
1772045800517612500,0.849612548828125,0.33964022994041443,0.07311275601387024,-0.38861265778541565
1772045800527598300,0.859598388671875,0.33873820304870605,-0.043570976704359055,-0.41092541813850403
1772045800537583400,0.869583251953125,0.339396208524704,-0.15006384253501892,-0.3517717719078064
1772045800547569200,0.879569091796875,0.35606491565704346,-0.21471421420574188,-0.22992654144763947
1772045800557555500,0.889555419921875,0.3715799152851105,-0.2456853836774826,-0.08103050291538239
1772045800567540500,0.89954052734375,0.36747679114341736,-0.2558309733867645,0.06483802199363708
1772045800577526300,0.9095263671875,0.3315226435661316,-0.24474990367889404,0.18219995498657227
1772045800587512300,0.91951220703125,0.28345391154289246,-0.22683481872081757,0.264184832572937
1772045800597497300,0.929497314453125,0.24091675877571106,-0.20089507102966309,0.3009239733219147
1772045800607483400,0.9394833984375,0.23271796107292175,-0.18974149227142334,0.29416486620903015
1772045800617469200,0.94946923828125,0.2257133573293686,-0.19953931868076324,0.24435865879058838
1772045800627454200,0.9594541015625,0.20747017860412598,-0.21757744252681732,0.19158679246902466
1772045800637440500,0.9694404296875,0.1873563528060913,-0.23714427649974823,0.0965830534696579
1772045800647426300,0.97942626953125,0.16057001054286957,-0.24585415422916412,0.0004677041433751583
1772045800657411300,0.989411376953125,0.1334027647972107,-0.2607290744781494,-0.06859021633863449
1772045800667397400,0.9993974609375,0.1072465181350708,-0.26341700553894043,-0.10353488475084305
1772045800677383400,1.009383544921875,0.08097630739212036,-0.23388566076755524,-0.0934334471821785
1772045800687368400,1.019368408203125,0.0652330294251442,-0.1972123384475708,-0.05226629972457886
1772045800697354200,1.029354248046875,0.04083849489688873,-0.15804128348827362,-0.01005139946937561
1772045800707340300,1.03934033203125,0.017877785488963127,-0.12509611248970032,0.020611438900232315
1772045800717325600,1.04932568359375,0.0045686084777116776,-0.07861774414777756,0.045332156121730804
1772045800727311400,1.059311279296875,-0.0068520912900567055,-0.03319033980369568,0.055866289883852005
1772045800737296400,1.06929638671875,-0.017969898879528046,-0.008789789862930775,0.03698250278830528
1772045800747282200,1.0792822265625,-0.03166840225458145,0.003953436389565468,-0.010666776448488235
1772045800757268500,1.0892685546875,-0.0399620458483696,0.041354428976774216,-0.06016436219215393
1772045800767254300,1.099254150390625,-0.031136061996221542,0.056279316544532776,-0.09611383825540543
1772045800777239300,1.1092392578125,-0.029150675982236862,0.034596655517816544,-0.1320260465145111
1772045800787225300,1.119225341796875,-0.021888770163059235,-0.00041964923730120063,-0.1598171889781952
1772045800797210400,1.12921044921875,-0.010478154756128788,-0.04747099429368973,-0.16984690725803375
1772045800807196400,1.139196533203125,-0.0021768156439065933,-0.08642078936100006,-0.1719721108675003
1772045800817182200,1.14918212890625,0.005930829793214798,-0.13829143345355988,-0.16078199446201324
1772045800827167200,1.159167236328125,0.012105103582143784,-0.15613514184951782,-0.14509038627147675
1772045800837153500,1.169153564453125,0.020591728389263153,-0.16695141792297363,-0.11192365735769272
1772045800847139300,1.179139404296875,0.018616195768117905,-0.18519246578216553,-0.08492346853017807
1772045800857124400,1.189124267578125,0.011167563498020172,-0.20558077096939087,-0.06759421527385712
1772045800867110100,1.199110107421875,0.007813844829797745,-0.22111845016479492,-0.0486583411693573
1772045800877096400,1.209096435546875,0.0034872470423579216,-0.21994347870349884,-0.03530619293451309
1772045800887081500,1.21908154296875,-0.0006766058504581451,-0.21695488691329956,-0.020092353224754333
1772045800897067300,1.2290673828125,0.001115378923714161,-0.20751672983169556,-0.0007451698184013367
1772045800907053600,1.239053466796875,0.0009699705988168716,-0.18310938775539398,0.016244465485215187
1772045800917038300,1.249038330078125,-0.00006434507668018341,-0.1574002206325531,0.02487962320446968
1772045800927024400,1.2590244140625,-0.002925911918282509,-0.11919184774160385,0.027327867224812508
1772045800937010200,1.26901025390625,0.002486931160092354,-0.08239287883043289,0.028881577774882317
1772045800946995200,1.2789951171875,0.012112393975257874,-0.03758332133293152,0.027657588943839073
1772045800956981500,1.2889814453125,0.01803838089108467,0.005233267787843943,0.01642567850649357
1772045800966967300,1.29896728515625,0.0269399955868721,0.04546457901597023,-0.006937435362488031
1772045800976952300,1.308952392578125,0.03784307464957237,0.08759713172912598,-0.03209330886602402
1772045800986938000,1.318938232421875,0.045568108558654785,0.11324869841337204,-0.04948242008686066
1772045800996924400,1.32892431640625,0.05350895971059799,0.13489237427711487,-0.06086233630776405
1772045801006909400,1.338909423828125,0.05779292434453964,0.15482667088508606,-0.05975605919957161
1772045801016895200,1.348895263671875,0.05332637578248978,0.1880727857351303,-0.03927120938897133
1772045801026881500,1.358881591796875,0.04214269667863846,0.23322375118732452,-0.025276830419898033
1772045801036866300,1.3688662109375,0.043091677129268646,0.24677886068820953,-0.021131444722414017
1772045801046852400,1.378852294921875,0.04964891076087952,0.2601732313632965,-0.02536427229642868
1772045801056838400,1.38883837890625,0.05174459144473076,0.24235714972019196,-0.03100331500172615
1772045801066823200,1.3988232421875,0.061359938234090805,0.21840360760688782,-0.04376758262515068
1772045801076809500,1.4088095703125,0.07300646603107452,0.17915686964988708,-0.049559954553842545
1772045801086795300,1.418795166015625,0.08705384284257889,0.14394961297512054,-0.05928156152367592
1772045801096780300,1.4287802734375,0.0981331467628479,0.1144213154911995,-0.07140092551708221
1772045801106766300,1.438766357421875,0.10172921419143677,0.09005365520715714,-0.07261186838150024
1772045801116752400,1.44875244140625,0.11245854943990707,0.0572899654507637,-0.06149312108755112
1772045801126737400,1.4587373046875,0.1268089860677719,0.028597868978977203,-0.03941178694367409
1772045801136723200,1.46872314453125,0.1390324980020523,0.004378476645797491,-0.0024290867149829865
1772045801146709500,1.47870947265625,0.14918313920497894,-0.019032573327422142,0.0328679159283638
1772045801156694500,1.488694580078125,0.15948012471199036,-0.03220236301422119,0.04775109887123108
1772045801166680300,1.498680419921875,0.14661864936351776,-0.030397538095712662,0.05455068126320839
1772045801176666400,1.508666259765625,0.1448383778333664,-0.027496380731463432,0.04191086068749428
1772045801186651400,1.5186513671875,0.14488337934017181,-0.039369285106658936,0.02370283007621765
1772045801196637400,1.528637451171875,0.13537080585956573,-0.033658821135759354,0.005444249138236046
1772045801206622500,1.53862255859375,0.13152199983596802,-0.036186959594488144,0.0009435066021978855
1772045801216608300,1.548608154296875,0.1299525499343872,-0.02733948826789856,0.00028688693419098854
1772045801226594600,1.558594482421875,0.12937091290950775,-0.014558978378772736,0.004255529493093491
1772045801236579300,1.568579345703125,0.12378543615341187,0.0027451221831142902,-0.0029611072968691587
1772045801246565400,1.5785654296875,0.11332400143146515,0.009010208770632744,-0.014364762231707573
1772045801256551200,1.58855126953125,0.0999680683016777,0.007581681478768587,-0.014713944867253304
1772045801266536200,1.5985361328125,0.09201773256063461,0.0017235258128494024,-0.007662693038582802
1772045801276522500,1.6085224609375,0.08430691063404083,0.006396857555955648,0.006253470666706562
1772045801286508300,1.61850830078125,0.0778985470533371,0.004068455658853054,0.016938604414463043
1772045801296493300,1.628493408203125,0.06898799538612366,0.005765467416495085,0.01755881868302822
1772045801306479400,1.638479248046875,0.05694465711712837,0.008472571149468422,0.01863180659711361
1772045801316465400,1.64846533203125,0.04085642844438553,0.014003847725689411,0.02000865340232849
1772045801326450400,1.658450439453125,0.027903877198696136,0.004973335191607475,0.01867147907614708
1772045801336436200,1.668436279296875,0.020694084465503693,-0.018375122919678688,0.022857477888464928
1772045801346422300,1.67842236328125,0.012191141955554485,-0.03516209125518799,0.021928301081061363
1772045801356407000,1.688406982421875,0.008032397367060184,-0.049857478588819504,0.01572093553841114
1772045801366393300,1.698393310546875,0.00009697582572698593,-0.04527657479047775,0.007476853672415018
1772045801376379100,1.708379150390625,0.004420580342411995,-0.02272018976509571,-0.003881796495988965
1772045801386364200,1.7183642578125,0.010239053517580032,0.00989873893558979,-0.008169219829142094
1772045801396350200,1.72835009765625,0.02541765570640564,0.03716845065355301,-0.014627611264586449
1772045801406336300,1.738336181640625,0.03624606877565384,0.040693942457437515,-0.0028527111280709505
1772045801416321300,1.7483212890625,0.04523110017180443,0.0365954227745533,0.01848122477531433
1772045801426307300,1.758307373046875,0.05816154554486275,0.03515997901558876,0.03725331649184227
1772045801436293000,1.768293212890625,0.0728326290845871,0.027201654389500618,0.0423002727329731
1772045801446278400,1.7782783203125,0.07378843426704407,0.030990267172455788,0.03238026425242424
1772045801456264200,1.78826416015625,0.0836801528930664,0.03412111476063728,0.010094053111970425
1772045801466250200,1.798250244140625,0.09622550755739212,0.03861573338508606,-0.005397022236138582
1772045801476235300,1.8082353515625,0.11108135432004929,0.04125683009624481,-0.01236739195883274
1772045801486221300,1.81822119140625,0.12225304543972015,0.03924454376101494,-0.01052927877753973
1772045801496207400,1.828207275390625,0.13668657839298248,0.02301843650639057,-0.005702565424144268
1772045801506192100,1.838192138671875,0.14957255125045776,0.014126407913863659,0.004929306451231241
1772045801516178200,1.84817822265625,0.1676577925682068,0.0030188667587935925,0.010330582037568092
1772045801526164200,1.858164306640625,0.18092380464076996,-0.005767700262367725,0.011224871501326561
1772045801536149200,1.868149169921875,0.18879270553588867,-0.009663142263889313,0.009433440864086151
1772045801546135300,1.87813525390625,0.1966884434223175,-0.012754273600876331,0.010498970746994019
1772045801556120000,1.8881201171875,0.19453774392604828,-0.018308453261852264,0.010382357984781265
1772045801566106400,1.8981064453125,0.1974318027496338,-0.029160302132368088,0.007930651307106018
1772045801576092200,1.908092041015625,0.20470179617404938,-0.03567490726709366,0.005806328728795052
1772045801586077200,1.9180771484375,0.2155110388994217,-0.060022592544555664,-0.007124649360775948
1772045801596063200,1.928063232421875,0.1941642314195633,-0.08103342354297638,-0.0035897609777748585
1772045801606049300,1.93804931640625,0.1784885972738266,-0.09368450939655304,0.021071642637252808
1772045801616034300,1.948034423828125,0.1739235818386078,-0.12129656225442886,0.04888448119163513
1772045801626020000,1.95802001953125,0.1743273288011551,-0.13900364935398102,0.06654123216867447
1772045801636006100,1.968006103515625,0.16765816509723663,-0.1368737667798996,0.07556508481502533
1772045801645991400,1.977991455078125,0.1566169708967209,-0.1411239057779312,0.07435547560453415
1772045801655977200,1.987977294921875,0.14675742387771606,-0.14001749455928802,0.07000673562288284
1772045801665963300,1.99796337890625,0.1370352804660797,-0.14777687191963196,0.056576408445835114
1772045801675948000,2.007947998046875,0.11614056676626205,-0.14312274754047394,0.04954584687948227
1772045801685934300,2.017934326171875,0.09254175424575806,-0.13020268082618713,0.044216860085725784
1772045801695920000,2.027920166015625,0.06909634172916412,-0.12138538062572479,0.0332324355840683
1772045801705905200,2.0379052734375,0.05483910068869591,-0.11182835698127747,0.01656637340784073
1772045801715891200,2.04789111328125,0.03493625670671463,-0.09256701916456223,0.0008602626621723175
1772045801725877200,2.057877197265625,0.016802527010440826,-0.06556656211614609,-0.0055246660485863686
1772045801735862300,2.0678623046875,0.002623889595270157,-0.049167435616254807,-0.007501485291868448
1772045801745848000,2.07784814453125,-0.015693064779043198,-0.028384391218423843,-0.005980020854622126
1772045801755834400,2.08783447265625,-0.03527022898197174,-0.009352232329547405,-0.005456219892948866
1772045801765819400,2.0978193359375,-0.05012214183807373,0.0074400631710886955,-0.0008257818408310413
1772045801775805200,2.10780517578125,-0.06909571588039398,0.02270626835525036,-0.005925197619944811
1772045801785791200,2.117791259765625,-0.0722089484333992,0.032014019787311554,-0.006655170116573572
1772045801795776300,2.1277763671875,-0.07013491541147232,0.035969700664281845,-0.007052559405565262
1772045801805762300,2.13776220703125,-0.07644661515951157,0.04086459055542946,-0.006213663145899773
1772045801815748000,2.147748046875,-0.08226516842842102,0.04244477301836014,-0.005013825837522745
1772045801825733000,2.157733154296875,-0.0867515280842781,0.03843139111995697,-0.0038652047514915466
1772045801835719400,2.167719482421875,-0.0817963033914566,0.03608950600028038,-0.0004270689096301794
1772045801845705200,2.177705322265625,-0.07534213364124298,0.03408734127879143,0.005761851090937853
1772045801855690200,2.187690185546875,-0.06925693154335022,0.029966052621603012,0.007892417721450329
1772045801865676300,2.19767626953125,-0.05921228229999542,0.029313579201698303,0.004164791200309992
1772045801875661000,2.2076611328125,-0.055344972759485245,0.03574664145708084,0.004067232832312584
1772045801885647400,2.2176474609375,-0.056720759719610214,0.03677675127983093,0.004515442531555891
1772045801895633200,2.227633056640625,-0.06060085445642471,0.046058736741542816,0.004679047502577305
1772045801905618200,2.2376181640625,-0.06063733994960785,0.04329650476574898,0.00543511938303709
1772045801915604200,2.247604248046875,-0.05455450713634491,0.03828350082039833,0.010688849724829197
1772045801925590300,2.25759033203125,-0.052784569561481476,0.025623364374041557,0.011558372527360916
1772045801935575300,2.2675751953125,-0.05269778519868851,0.014054805971682072,0.010044893249869347
1772045801945561000,2.27756103515625,-0.05493244528770447,0.00010916314204223454,0.004099652636796236
1772045801955547400,2.28754736328125,-0.05345289409160614,-0.0015643873484805226,0.007098265923559666
1772045801965532400,2.297532470703125,-0.05657545104622841,-0.005736761726438999,0.012584110721945763
1772045801975518200,2.307518310546875,-0.06518039852380753,0.002579078311100602,0.010967911221086979
1772045801985504300,2.317504150390625,-0.06483365595340729,-0.002645777305588126,0.004510011989623308
1772045801995489000,2.327489013671875,-0.06914427876472473,-0.00506783090531826,-0.0037040505558252335
1772045802005475300,2.337475341796875,-0.07114510983228683,-0.005040133837610483,-0.008909465745091438
1772045802015461000,2.347461181640625,-0.07343476265668869,-0.0043126316741108894,-0.011716281995177269
1772045802025446100,2.357446044921875,-0.07370001822710037,0.002013707533478737,-0.012339195236563683
1772045802035432400,2.367432373046875,-0.07696537673473358,0.001274184207431972,-0.019849121570587158
1772045802045418200,2.377418212890625,-0.07465322315692902,0.0038433356676250696,-0.022430522367358208
1772045802055403300,2.3874033203125,-0.0816427618265152,0.011582106351852417,-0.021430272608995438
1772045802065389000,2.39738916015625,-0.08360151201486588,0.024021467193961143,-0.013601644895970821
1772045802075375400,2.407375244140625,-0.08329685032367706,0.036661770194768906,-0.011829089373350143
1772045802085360400,2.4173603515625,-0.08395518362522125,0.04991019889712334,-0.01493433490395546
1772045802095346200,2.42734619140625,-0.0771869570016861,0.06144777685403824,-0.020739948377013206
1772045802105332200,2.437332275390625,-0.07183107733726501,0.062020089477300644,-0.02532937377691269
1772045802115317200,2.447317138671875,-0.06538834422826767,0.06501949578523636,-0.023569628596305847
1772045802125303300,2.45730322265625,-0.06367886066436768,0.06680354475975037,-0.01828591898083687
1772045802135289000,2.4672890625,-0.06852728873491287,0.06564046442508698,-0.01549261249601841
1772045802145274000,2.477274169921875,-0.07043171674013138,0.0675177201628685,-0.017682796344161034
1772045802155260400,2.487260498046875,-0.07311476022005081,0.06055808067321777,-0.01861843280494213
1772045802165245200,2.4972451171875,-0.07690922915935516,0.04820340871810913,-0.012873727828264236
1772045802175231200,2.507231201171875,-0.08109136670827866,0.029614027589559555,-0.008867424912750721
1772045802185217000,2.517217041015625,-0.09194987267255783,0.016260406002402306,0.010327840223908424
1772045802195202000,2.5272021484375,-0.10026673972606659,0.011385234072804451,0.03448861092329025
1772045802205188400,2.537188232421875,-0.10763303935527802,0.008928467519581318,0.0538436658680439
1772045802215174100,2.547174072265625,-0.11676941812038422,-0.0002842781541403383,0.06761715561151505
1772045802225159200,2.5571591796875,-0.12458819150924683,-0.01155131310224533,0.07254719734191895
1772045802235145200,2.567145263671875,-0.13237179815769196,-0.023783983662724495,0.06506945937871933
1772045802245131300,2.57713134765625,-0.1390901654958725,-0.04127083346247673,0.05758624151349068
1772045802255116300,2.5871162109375,-0.14448189735412598,-0.055092621594667435,0.045573096722364426
1772045802265102000,2.59710205078125,-0.14609043300151825,-0.07067131251096725,0.036666154861450195
1772045802275088400,2.60708837890625,-0.14779235422611237,-0.07391540706157684,0.018409419804811478
1772045802285073400,2.617073486328125,-0.1506296843290329,-0.05301705002784729,0.002563611837103963
1772045802295059200,2.62705908203125,-0.14914833009243011,-0.05802363157272339,-0.011221164837479591
1772045802305045200,2.637045166015625,-0.1578265130519867,-0.0648471787571907,-0.020025575533509254
1772045802315030300,2.6470302734375,-0.16771426796913147,-0.0450272336602211,-0.009084435179829597
1772045802325016300,2.657016357421875,-0.16807672381401062,-0.02659629099071026,0.001065138028934598
1772045802335002000,2.667002197265625,-0.16838712990283966,-0.01776786893606186,0.0036379799712449312
1772045802344987100,2.676987060546875,-0.1662382185459137,-0.010681994259357452,0.006675315089523792
1772045802354973400,2.686973388671875,-0.16116027534008026,-0.002603424247354269,0.005321517586708069
1772045802364959200,2.696959228515625,-0.15841402113437653,-0.00014905500574968755,-0.0032408114057034254
1772045802374944300,2.7069443359375,-0.15215560793876648,-0.00025199924129992723,-0.012746360152959824
1772045802384930000,2.716929931640625,-0.1444348394870758,-0.002057356061413884,-0.021198967471718788
1772045802394916400,2.726916259765625,-0.13870519399642944,-0.005043923854827881,-0.021629832684993744
1772045802404901400,2.7369013671875,-0.132853701710701,-0.0031006154604256153,-0.018690768629312515
1772045802414887200,2.74688720703125,-0.1342465579509735,-0.00096132792532444,-0.007632670924067497
1772045802424873200,2.756873291015625,-0.1322350651025772,0.006541063077747822,-0.008171162568032742
1772045802434858200,2.766858154296875,-0.1289445012807846,0.012599700130522251,-0.009831646457314491
1772045802444844300,2.77684423828125,-0.1275673806667328,0.025304045528173447,-0.018388649448752403
1772045802454829300,2.786829345703125,-0.12962229549884796,0.033453553915023804,-0.02463763765990734
1772045802464815000,2.796815185546875,-0.1267455518245697,0.03949892893433571,-0.034534208476543427
1772045802474801400,2.806801513671875,-0.12386555224657059,0.03263444826006889,-0.033973198384046555
1772045802484786200,2.8167861328125,-0.11731044948101044,0.03033454343676567,-0.02890254184603691
1772045802494772200,2.826772216796875,-0.11324682831764221,0.03058965690433979,-0.019933920353651047
1772045802504758000,2.836758056640625,-0.11527722328901291,0.030005624517798424,-0.0132222231477499
1772045802514743300,2.846743408203125,-0.11484471708536148,0.028282705694437027,-0.010403044521808624
1772045802524729300,2.856729248046875,-0.11928660422563553,0.02306690625846386,-0.01482895202934742
1772045802534715100,2.866715087890625,-0.11830354481935501,0.01404984574764967,-0.01171050313860178
1772045802544700200,2.8767001953125,-0.12008386850357056,0.0022938537877053022,-0.006669672206044197
1772045802554686200,2.886686279296875,-0.12812645733356476,-0.01931215077638626,0.008410515263676643
1772045802564672300,2.89667236328125,-0.13393667340278625,-0.04089467227458954,0.026784462854266167
1772045802574657300,2.9066572265625,-0.13535623252391815,-0.06220874562859535,0.0451270267367363
1772045802584643000,2.91664306640625,-0.13993607461452484,-0.07660658657550812,0.058895569294691086
1772045802594629400,2.92662939453125,-0.1423521190881729,-0.08923840522766113,0.06437521427869797
1772045802604614100,2.9366142578125,-0.1437060683965683,-0.08839072287082672,0.06755555421113968
1772045802614600200,2.94660009765625,-0.13798359036445618,-0.11519867926836014,0.07209282368421555
1772045802624586200,2.956586181640625,-0.1340080201625824,-0.1191854327917099,0.0674557238817215
1772045802634571300,2.9665712890625,-0.13966378569602966,-0.10088939964771271,0.06745447218418121
1772045802644557300,2.976557373046875,-0.13806961476802826,-0.08461321890354156,0.05762234702706337
1772045802654543000,2.986543212890625,-0.13244156539440155,-0.06634727120399475,0.033802811056375504
1772045802664528100,2.996528076171875,-0.13531191647052765,-0.04427739605307579,0.01301976852118969
1772045802674514200,3.00651416015625,-0.13522684574127197,-0.02122318744659424,-0.0004261885769665241
1772045802684499200,3.016499267578125,-0.12657450139522552,-0.0011330984998494387,-0.012671668082475662
1772045802694485200,3.0264853515625,-0.11151870340108871,0.018707163631916046,-0.03224331885576248
1772045802704471000,3.036470947265625,-0.10536839812994003,0.01497021596878767,-0.0550953708589077
1772045802714456300,3.046456298828125,-0.1108424961566925,0.022671867161989212,-0.05536644905805588
1772045802724442400,3.0564423828125,-0.11059322208166122,0.041700419038534164,-0.047944750636816025
1772045802734428200,3.06642822265625,-0.10491959750652313,0.045143112540245056,-0.03901159018278122
1772045802744413200,3.0764130859375,-0.09582197666168213,0.03931904584169388,-0.03201546519994736
1772045802754399200,3.086399169921875,-0.08621978759765625,0.027143854647874832,-0.025348322466015816
1772045802764385300,3.09638525390625,-0.08175047487020493,0.018319470807909966,-0.01628025993704796
1772045802774370300,3.106370361328125,-0.0731605663895607,0.00935416016727686,-0.0027809240855276585
1772045802784356000,3.116356201171875,-0.06859217584133148,0.007135480642318726,0.005921753589063883
1772045802794342400,3.12634228515625,-0.06464333087205887,0.004916929639875889,0.004918121267110109
1772045802804327200,3.1363271484375,-0.0637197494506836,0.001104881288483739,0.0024099559523165226
1772045802814313200,3.146313232421875,-0.0628964751958847,-0.0004534631734713912,-0.005966597236692905
1772045802824299300,3.15629931640625,-0.06447786092758179,0.0009681322262622416,-0.011189056560397148
1772045802834284300,3.1662841796875,-0.06642241775989532,0.0007108626305125654,-0.012513221241533756
1772045802844270300,3.176270263671875,-0.0703849345445633,0.011060172691941261,-0.01720544323325157
1772045802854256000,3.186256103515625,-0.07774420082569122,0.017938217148184776,-0.021118419244885445
1772045802864241200,3.1962412109375,-0.08433232456445694,0.032380808144807816,-0.029202444478869438
1772045802874227200,3.206227294921875,-0.09162283688783646,0.046114709228277206,-0.025997942313551903
1772045802884213200,3.216213134765625,-0.0946258157491684,0.0515129379928112,-0.02677238918840885
1772045802894198300,3.2261982421875,-0.0991571694612503,0.04988349601626396,-0.026602020487189293
1772045802904184300,3.236184326171875,-0.10395964980125427,0.043757159262895584,-0.03369082137942314
1772045802914169300,3.24616943359375,-0.10976143926382065,0.03943844139575958,-0.029035767540335655
1772045802924155100,3.256155029296875,-0.11259956657886505,0.03068542666733265,-0.02479947917163372
1772045802934141200,3.26614111328125,-0.1156872808933258,0.03085741400718689,-0.01535538025200367
1772045802944126200,3.276126220703125,-0.11611498147249222,0.028791332617402077,-0.011078344658017159
1772045802954112300,3.2861123046875,-0.11896535009145737,0.035943396389484406,-0.01196205336600542
1772045802964098300,3.296098388671875,-0.11833497881889343,0.038414012640714645,-0.020485766232013702
1772045802974083000,3.3060830078125,-0.11457668989896774,0.03930743783712387,-0.029203401878476143
1772045802984069400,3.3160693359375,-0.11275188624858856,0.04093436524271965,-0.0379851758480072
1772045802994055200,3.32605517578125,-0.10959046334028244,0.03761843591928482,-0.033018261194229126
1772045803004040200,3.336040283203125,-0.10472513735294342,0.037161704152822495,-0.026586459949612617
1772045803014026200,3.346026123046875,-0.09541036933660507,0.04030463844537735,-0.015375731512904167
1772045803024012300,3.35601220703125,-0.08891305327415466,0.034848619252443314,-0.008808642625808716
1772045803033997300,3.365997314453125,-0.08252575248479843,0.03230154514312744,-0.002241940936073661
1772045803043983000,3.375983154296875,-0.07691074162721634,0.02885914221405983,0.0046907998621463776
1772045803053969200,3.38596923828125,-0.06883033365011215,0.02174600400030613,0.002722465433180332
1772045803063954200,3.3959541015625,-0.06302624195814133,0.010400672443211079,-0.0015910568181425333
1772045803073940200,3.405940185546875,-0.05199461057782173,0.002516144886612892,-0.0077476040460169315
1772045803083926300,3.41592626953125,-0.04173718020319939,-0.006745264399796724,-0.005001085344702005
1772045803093911300,3.425911376953125,-0.03701339662075043,-0.013334527611732483,-0.004071994684636593
1772045803103897300,3.4358974609375,-0.030079059302806854,-0.015168113633990288,-0.003903683042153716
1772045803113883100,3.445883056640625,-0.026909928768873215,-0.013236167840659618,-0.0011617932468652725
1772045803123868200,3.4558681640625,-0.024150094017386436,-0.009961279109120369,-0.0011540697887539864
1772045803133854200,3.465854248046875,-0.022074943408370018,-0.009577490389347076,0.001214694930240512
1772045803143839200,3.475839111328125,-0.022163625806570053,-0.007308476604521275,0.0010463830549269915
1772045803153825300,3.4858251953125,-0.02395782619714737,-0.010977299883961678,-0.0015305252745747566
1772045803163811300,3.495811279296875,-0.02498314157128334,-0.01207052730023861,-0.0018114889971911907
1772045803173796000,3.505796142578125,-0.02793368697166443,-0.011794387362897396,0.0026643688324838877
1772045803183782400,3.515782470703125,-0.03306879475712776,-0.007312021683901548,0.003036678768694401
1772045803193768200,3.525768310546875,-0.033969081938266754,-0.0024784812703728676,-0.00401430344209075
1772045803203753200,3.535753173828125,-0.03422927483916283,-0.0035091242752969265,-0.01125570572912693
1772045803213739300,3.5457392578125,-0.03587046638131142,-0.00222768890671432,-0.015529625117778778
1772045803223725300,3.555725341796875,-0.035016655921936035,-0.006655992940068245,-0.015446800738573074
1772045803233710300,3.56571044921875,-0.034258682280778885,-0.012252037413418293,-0.013344764709472656
1772045803243696000,3.575696044921875,-0.033424846827983856,-0.018377840518951416,-0.00773987639695406
1772045803253682200,3.58568212890625,-0.03042694739997387,-0.014826277270913124,-0.0009462726302444935
1772045803263667500,3.59566748046875,-0.031183285638689995,-0.023868240416049957,-0.000008839881047606468
1772045803273653200,3.6056533203125,-0.0316305011510849,-0.027998648583889008,0.0025195323396474123
1772045803283639300,3.615639404296875,-0.030656050890684128,-0.030270591378211975,0.0009695726912468672
1772045803293624000,3.6256240234375,-0.029013771563768387,-0.03437305986881256,-0.0029765861108899117
1772045803303610400,3.6356103515625,-0.025618772953748703,-0.0410567969083786,-0.003154218662530184
1772045803313596200,3.64559619140625,-0.017744001001119614,-0.04774734750390053,-0.007453327998518944
1772045803323581200,3.655581298828125,-0.01620655693113804,-0.049162283539772034,-0.0029917333740741014
1772045803333567500,3.6655673828125,-0.011973349377512932,-0.046338632702827454,-0.00042550452053546906
1772045803343553500,3.675553466796875,-0.0073240031488239765,-0.04071057587862015,0.003194530261680484
1772045803353538600,3.68553857421875,-0.0035988930612802505,-0.029861969873309135,0.0032398418989032507
1772045803363524400,3.6955244140625,-0.009318564087152481,-0.011254996061325073,-0.0017708959057927132
1772045803373510400,3.705510498046875,-0.01070786640048027,0.004570536781102419,-0.012554223649203777
1772045803383495700,3.71549560546875,-0.012357162311673164,0.020053623244166374,-0.027112126350402832
1772045803393481500,3.7254814453125,-0.011105208657681942,0.0316409133374691,-0.04374787211418152
1772045803403466500,3.735466552734375,-0.005736276041716337,0.0403025783598423,-0.05692945420742035
1772045803413452300,3.745452392578125,0.0001115771010518074,0.03697388619184494,-0.06484227627515793
1772045803423438600,3.7554384765625,0.015343527309596539,0.04829365387558937,-0.056590206921100616
1772045803433423600,3.765423583984375,0.030165597796440125,0.053420476615428925,-0.03920736908912659
1772045803443409400,3.775409423828125,0.05098991468548775,0.0391661711037159,-0.025365326553583145
1772045803453395500,3.7853955078125,0.06858409941196442,0.016344094648957253,-0.00887777004390955
1772045803463380500,3.79538037109375,0.08567120879888535,-0.008109848946332932,0.00536827789619565
1772045803473366500,3.805366455078125,0.10164617002010345,-0.022451652213931084,0.027790304273366928
1772045803483352300,3.815352294921875,0.11281093955039978,-0.03457675874233246,0.04649794474244118
1772045803493337300,3.82533740234375,0.12058237940073013,-0.045232098549604416,0.05667928606271744
1772045803503323600,3.83532373046875,0.12921874225139618,-0.056969448924064636,0.060275353491306305
1772045803513309400,3.845309326171875,0.13328656554222107,-0.06662656366825104,0.054159365594387054
1772045803523294500,3.85529443359375,0.13029690086841583,-0.06807798147201538,0.04654885083436966
1772045803533280300,3.8652802734375,0.12247276306152344,-0.06118858605623245,0.037549301981925964
1772045803543266600,3.8752666015625,0.10726024955511093,-0.049413952976465225,0.030613897368311882
1772045803553251600,3.88525146484375,0.09157863259315491,-0.0341036319732666,0.0295359306037426
1772045803563237400,3.8952373046875,0.07321853935718536,-0.01677471026778221,0.022236205637454987
1772045803573223700,3.9052236328125,0.0573202483355999,-0.013442976400256157,0.015475047752261162
1772045803583208400,3.91520849609375,0.03752763941884041,-0.019280359148979187,0.00689247902482748
1772045803593194500,3.925194580078125,0.016476187855005264,-0.018958060070872307,0.005564628168940544
1772045803603180300,3.93518017578125,-0.00247140321880579,-0.027337696403265,0.007134561892598867
1772045803613165300,3.945165283203125,-0.017857123166322708,-0.03480376675724983,0.005955011583864689
1772045803623151600,3.955151611328125,-0.03596049174666405,-0.04393121972680092,0.0032359238248318434
1772045803633136400,3.965136474609375,-0.048739537596702576,-0.05042952671647072,-0.0018684444949030876
1772045803643122400,3.975122314453125,-0.059502169489860535,-0.055825889110565186,-0.009867515414953232
1772045803653108500,3.9851083984375,-0.06817029416561127,-0.07190815359354019,-0.013095876201987267
1772045803663093500,3.995093505859375,-0.07707802951335907,-0.07492444664239883,-0.0014434815384447575
1772045803673079600,4.00507958984375,-0.08697881549596786,-0.059138886630535126,0.016569001600146294
1772045803683065300,4.0150654296875,-0.09383991360664368,-0.03810017928481102,0.03181932866573334
1772045803693050400,4.02505029296875,-0.0987686812877655,-0.01724676974117756,0.029698191210627556
1772045803703036700,4.03503662109375,-0.09937481582164764,0.009067391976714134,0.015516860410571098
1772045803713022500,4.0450224609375,-0.0950230285525322,0.027411380782723427,-0.0023291693069040775
1772045803723007500,4.055007568359375,-0.09306880086660385,0.04668813943862915,-0.02098328061401844
1772045803732993300,4.0649931640625,-0.09354251623153687,0.06146958842873573,-0.03279329836368561
1772045803742979600,4.0749794921875,-0.0949968621134758,0.07225032895803452,-0.040064793080091476
1772045803752964600,4.084964599609375,-0.09181655198335648,0.08470028638839722,-0.048190366476774216
1772045803762950400,4.094950439453125,-0.09060028940439224,0.08852218836545944,-0.045525871217250824
1772045803772936700,4.104936767578125,-0.0879310816526413,0.0867052674293518,-0.04538020119071007
1772045803782921500,4.11492138671875,-0.08249690383672714,0.07399799674749374,-0.039646416902542114
1772045803792907500,4.124907470703125,-0.07512660324573517,0.058759238570928574,-0.025385944172739983
1772045803802892500,4.134892578125,-0.06642499566078186,0.037659015506505966,-0.014506399631500244
1772045803812878300,4.14487841796875,-0.05805479735136032,0.01178050134330988,-0.00024939398281276226
1772045803822864600,4.15486474609375,-0.053688280284404755,-0.009592697024345398,0.013810764998197556
1772045803832849400,4.164849365234375,-0.04513208568096161,-0.02254406362771988,0.031085433438420296
1772045803842835500,4.17483544921875,-0.04182124510407448,-0.0307343490421772,0.04536823183298111
1772045803852821500,4.184821533203125,-0.03603207319974899,-0.02380255237221718,0.0530102476477623
1772045803862806500,4.194806640625,-0.035932473838329315,-0.012254553847014904,0.05548352003097534
1772045803872792600,4.20479248046875,-0.032432883977890015,-0.005375186912715435,0.05285974591970444
1772045803882778400,4.2147783203125,-0.025828510522842407,0.009781128726899624,0.0448249876499176
1772045803892763400,4.224763427734375,-0.0246037058532238,0.013100520707666874,0.03959735110402107
1772045803902749400,4.23474951171875,-0.02406388521194458,0.01353115402162075,0.03512537106871605
1772045803912735500,4.244735595703125,-0.02719688042998314,0.0070328135043382645,0.038261398673057556
1772045803922720500,4.254720458984375,-0.03510354086756706,0.0054357158951461315,0.04073414206504822
1772045803932706600,4.26470654296875,-0.04022236540913582,0.007398398593068123,0.044657208025455475
1772045803942692600,4.274692626953125,-0.05225878581404686,0.015957532450556755,0.04325638711452484
1772045803952677400,4.284677490234375,-0.05764767900109291,0.026324568316340446,0.04295483976602554
1772045803962663400,4.294663330078125,-0.06015317887067795,0.027811678126454353,0.0418030209839344
1772045803972649500,4.3046494140625,-0.055470943450927734,0.00958640594035387,0.03899083659052849
1772045803982634500,4.314634521484375,-0.05528026074171066,-0.006779517978429794,0.03786405548453331
1772045803992620500,4.32462060546875,-0.05588342994451523,-0.003953847568482161,0.044095322489738464
1772045804002605300,4.334605224609375,-0.057605162262916565,0.003021770156919956,0.04865092411637306
1772045804012591400,4.34459130859375,-0.06458355486392975,0.01849018968641758,0.05369274318218231
1772045804022577400,4.354577392578125,-0.06782515347003937,0.034879546612501144,0.04878640174865723
1772045804032562400,4.3645625,-0.0725952684879303,0.04693640395998955,0.04291747882962227
1772045804042548500,4.374548583984375,-0.069928377866745,0.056309930980205536,0.032792672514915466
1772045804052534500,4.384534423828125,-0.06940730661153793,0.056155040860176086,0.032090093940496445
1772045804062519600,4.39451953125,-0.06440082937479019,0.044718097895383835,0.033411554992198944
1772045804072505600,4.404505615234375,-0.05617227777838707,0.042736589908599854,0.03098488040268421
1772045804082491400,4.414491455078125,-0.05106007307767868,0.03606989607214928,0.033898379653692245
1772045804092476400,4.424476318359375,-0.04986405372619629,0.026514064520597458,0.03155966475605965
1772045804102462500,4.43446240234375,-0.04429645091295242,0.017408449202775955,0.03279883414506912
1772045804112448500,4.444448486328125,-0.042891837656497955,0.01105490978807211,0.03311103209853172
1772045804122433500,4.45443359375,-0.04066916182637215,0.008274302817881107,0.03623918443918228
1772045804132419600,4.464419677734375,-0.03642111271619797,-0.001907705096527934,0.04021501913666725
1772045804142405600,4.474405517578125,-0.0300617516040802,-0.01699184812605381,0.041928764432668686
1772045804152390400,4.484390380859375,-0.02345331758260727,-0.02828502096235752,0.04337972775101662
1772045804162376400,4.49437646484375,-0.017819134518504143,-0.03839624300599098,0.04328838363289833
1772045804172362500,4.504362548828125,-0.01806427724659443,-0.04343140870332718,0.04202695190906525
1772045804182347500,4.514347412109375,-0.019130606204271317,-0.04092058166861534,0.03789852187037468
1772045804192333600,4.52433349609375,-0.021448060870170593,-0.03541819378733635,0.0404994823038578
1772045804202318300,4.534318359375,-0.025313906371593475,-0.028273198753595352,0.044907014816999435
1772045804212304600,4.5443046875,-0.03239631652832031,-0.02357177622616291,0.047327522188425064
1772045804222290400,4.55429052734375,-0.02811635285615921,-0.003545604646205902,0.03562665730714798
1772045804232275500,4.564275390625,-0.03587745502591133,-0.01977468840777874,0.019920699298381805
1772045804242261500,4.574261474609375,-0.06052447855472565,-0.03660719469189644,0.008434220217168331
1772045804252247600,4.58424755859375,-0.08454910665750504,-0.021380960941314697,0.007793390192091465
1772045804262232600,4.594232666015625,-0.09217853099107742,0.007257609628140926,0.005669252946972847
1772045804272218400,4.60421826171875,-0.087155781686306,0.039349265396595,-0.014154138043522835
1772045804282204400,4.614204345703125,-0.08977260440587997,0.041176993399858475,-0.04945167526602745
1772045804292189700,4.624189697265625,-0.1119285374879837,0.05498198792338371,-0.08706308156251907
1772045804302175500,4.634175537109375,-0.12347812950611115,0.058301884680986404,-0.12056111544370651
1772045804312161500,4.64416162109375,-0.11641106009483337,0.07534347474575043,-0.12820591032505035
1772045804322146300,4.654146240234375,-0.10203398764133453,0.08667203038930893,-0.13048849999904633
1772045804332131800,4.6641318359375,-0.08410585671663284,0.03868639096617699,-0.13123951852321625
1772045804342118000,4.674117919921875,-0.08388960361480713,-0.0326455794274807,-0.11073210835456848
1772045804352103000,4.68410302734375,-0.10035986453294754,-0.0685688704252243,-0.0786517933011055
1772045804362089000,4.6940888671875,-0.09381888061761856,-0.04922446981072426,-0.030063480138778687
1772045804372074800,4.70407470703125,0.06386710703372955,0.0320371575653553,0.07448004186153412
1772045804382059800,4.714059814453125,0.18577861785888672,0.011894071474671364,0.1411253958940506
1772045804392046000,4.724046142578125,0.247418612241745,-0.07060776650905609,0.1441952884197235
1772045804402030800,4.73403076171875,0.2420446276664734,-0.18858127295970917,0.11497242003679276
1772045804412017000,4.744016845703125,0.21921540796756744,-0.2128479927778244,0.08573281764984131
1772045804422002700,4.754002685546875,0.201970636844635,-0.20638449490070343,0.08073459565639496
1772045804431988000,4.763988037109375,0.18457652628421783,-0.17503191530704498,0.09538673609495163
1772045804441974000,4.77397412109375,0.15061989426612854,-0.15062937140464783,0.11261099576950073
1772045804451959800,4.783959716796875,0.08830122649669647,-0.1343005746603012,0.12557780742645264
1772045804461944800,4.79394482421875,0.00510807242244482,-0.10688281059265137,0.1221841499209404
1772045804471931000,4.803930908203125,-0.07845591008663177,-0.07480653375387192,0.10735645890235901
1772045804481917000,4.8139169921875,-0.13194362819194794,-0.03780537098646164,0.08415766060352325
1772045804491902000,4.82390185546875,-0.15019549429416656,-0.011880398727953434,0.06421858072280884
1772045804501887700,4.8338876953125,-0.12609654664993286,0.004638124257326126,0.04040752351284027
1772045804511874000,4.8438740234375,-0.07174239307641983,0.01539145689457655,0.02104109525680542
1772045804521858800,4.85385888671875,-0.01105534192174673,0.03184899315237999,0.013964278623461723
1772045804531844900,4.863844970703125,0.02657092735171318,0.052854251116514206,0.009018025361001492
1772045804541830700,4.87383056640625,0.04225801303982735,0.06868914514780045,-0.0009027826599776745
1772045804551816000,4.88381591796875,0.03671573847532272,0.0815730094909668,-0.00672193942591548
1772045804561802000,4.893802001953125,0.012614130973815918,0.090354785323143,-0.00563829904422164
1772045804571787000,4.903787109375,-0.017261214554309845,0.1061117872595787,-0.0013109694700688124
1772045804581772800,4.913772705078125,-0.06126701831817627,0.11800546199083328,0.011441843584179878
1772045804591758800,4.9237587890625,-0.07033556699752808,0.13357572257518768,0.011296852491796017
1772045804601744000,4.933743896484375,-0.055397894233465195,0.15295687317848206,0.013561604544520378
1772045804611730000,4.94372998046875,-0.03427118435502052,0.15608373284339905,0.016772273927927017
1772045804621715700,4.9537158203125,-0.020426474511623383,0.14899785816669464,0.012856895104050636
1772045804631701000,4.963700927734375,-0.010741337202489376,0.13788345456123352,0.002913330914452672
1772045804641687000,4.97368701171875,0.0008170483633875847,0.1321004033088684,-0.006345148663967848
1772045804651672800,4.9836728515625,0.015498676337301731,0.13990075886249542,-0.01380918174982071
1772045804661657900,4.993657958984375,0.025916963815689087,0.14343823492527008,-0.01803375408053398
1772045804671644000,5.003643798828125,0.03324068337678909,0.13825099170207977,-0.025675395503640175
1772045804681630000,5.0136298828125,0.04297533631324768,0.14078710973262787,-0.02589697204530239
1772045804691615000,5.023614990234375,0.05105171352624893,0.14473988115787506,-0.03380522504448891
1772045804701600800,5.033600830078125,0.059904858469963074,0.13682736456394196,-0.045347098261117935
1772045804711587000,5.043587158203125,0.06817676872015,0.10333233326673508,-0.05533889681100845
1772045804721571800,5.05357177734375,0.08131574094295502,0.059571798890829086,-0.05019553378224373
1772045804731558000,5.063557861328125,0.08551135659217834,0.013285081833600998,-0.02157975360751152
1772045804741543000,5.07354296875,0.079362653195858,-0.02997583895921707,0.02728978544473648
1772045804751529000,5.083529052734375,0.056659698486328125,-0.04381661117076874,0.09046848863363266
1772045804761515000,5.093514892578125,0.01799166202545166,-0.023624258115887642,0.15604056417942047
1772045804771499800,5.103499755859375,-0.00694981450214982,0.012942558154463768,0.2004196047782898
1772045804781485800,5.11348583984375,-0.006052861455827951,0.03210027515888214,0.20012879371643066
1772045804791471900,5.123471923828125,0.01896033249795437,0.0150251230224967,0.1615074723958969
1772045804801457000,5.133456787109375,0.05346078425645828,-0.03352723270654678,0.08748890459537506
1772045804811443000,5.14344287109375,0.08762583136558533,-0.0679950937628746,0.011629819869995117
1772045804821429000,5.153428955078125,0.12241230905056,-0.08345554769039154,-0.05184262990951538
1772045804831414000,5.1634140625,0.13993419706821442,-0.08249619603157043,-0.09213989973068237
1772045804841399800,5.17339990234375,0.1329231560230255,-0.07267552614212036,-0.10726053267717361
1772045804851385900,5.1833857421875,0.09878060221672058,-0.04192468523979187,-0.0928993672132492
1772045804861371000,5.193370849609375,0.04445745050907135,0.002838524989783764,-0.06414680927991867
1772045804871357000,5.20335693359375,-0.010467316955327988,0.041092704981565475,-0.03491755202412605
1772045804881343000,5.213343017578125,-0.04693611338734627,0.07491298764944077,-0.009521381929516792
1772045804891327700,5.22332763671875,-0.1041695773601532,0.08348129689693451,-0.0017893845215439796
1772045804901313800,5.233313720703125,-0.10458555817604065,0.08823850005865097,0.013173852115869522
1772045804911299000,5.243299072265625,-0.10532890260219574,0.0723956823348999,0.027839420363307
1772045804921284900,5.253284912109375,-0.08357194066047668,0.06480967253446579,0.03751868009567261
1772045804931271000,5.26327099609375,-0.075914166867733,0.047916486859321594,0.030419986695051193
1772045804941255700,5.273255615234375,-0.0592355877161026,0.02489292435348034,0.016782205551862717
1772045804951242000,5.283241943359375,-0.0650760605931282,0.0002664279309101403,0.0009697643108665943
1772045804961227800,5.293227783203125,-0.03353730961680412,-0.014362315647304058,0.004654513671994209
1772045804971212800,5.303212890625,-0.014502419158816338,-0.02640027366578579,0.018757089972496033
1772045804981197800,5.31319775390625,0.01780492067337036,-0.03409335017204285,0.038329191505908966
1772045804991184000,5.323183837890625,0.0502888485789299,-0.053004711866378784,0.040474601089954376
1772045805001170000,5.333169921875,0.07570179551839828,-0.08660821616649628,0.03544894978404045
1772045805011155000,5.343155029296875,0.09008027613162994,-0.1262340545654297,0.022270752117037773
1772045805021140700,5.353140625,0.11444314569234848,-0.1602306365966797,0.017419271171092987
1772045805031127000,5.363126953125,0.132955864071846,-0.17391791939735413,0.01646357960999012
1772045805041112000,5.373112060546875,0.148666113615036,-0.16122663021087646,0.016496602445840836
1772045805051097900,5.383097900390625,0.16493210196495056,-0.16044841706752777,-0.00036447937600314617
1772045805061084000,5.393083984375,0.16955508291721344,-0.17485691606998444,-0.035618338733911514
1772045805071069000,5.40306884765625,0.15432487428188324,-0.19482482969760895,-0.08233482390642166
1772045805081055000,5.413054931640625,0.1278780847787857,-0.20130270719528198,-0.11452711373567581
1772045805091040000,5.4230400390625,0.0990159660577774,-0.18719357252120972,-0.11303263157606125
1772045805101025800,5.43302587890625,0.06469181925058365,-0.12215971201658249,-0.0871214047074318
1772045805111012000,5.44301220703125,0.030743036419153214,-0.05298696085810661,-0.05554445460438728
1772045805120996900,5.452996826171875,-0.024533003568649292,-0.0064618028700351715,-0.03740673139691353
1772045805130983000,5.46298291015625,-0.07196284830570221,0.04042673110961914,-0.02814231812953949
1772045805140968700,5.47296875,-0.130518838763237,0.10616499185562134,-0.025279687717556953
1772045805150954000,5.4829541015625,-0.10670680552721024,0.11012136936187744,-0.03137923404574394
1772045805160940000,5.49293994140625,-0.1032649353146553,0.12592457234859467,-0.04943440109491348
1772045805170925800,5.50292578125,-0.05816927179694176,0.09038349241018295,-0.07051397114992142
1772045805180910800,5.512910888671875,-0.05169406160712242,0.09348501265048981,-0.08865568786859512
1772045805190897000,5.52289697265625,-0.017022116109728813,0.07822760939598083,-0.11188077181577682
1772045805200883000,5.532883056640625,-0.04173571616411209,0.09767267853021622,-0.1371011734008789
1772045805210868000,5.542867919921875,-0.020249448716640472,0.06448710709810257,-0.15481004118919373
1772045805220853800,5.552853759765625,-0.041879378259181976,0.05157956853508949,-0.15411338210105896
1772045805230840000,5.562840087890625,-0.01758434996008873,-0.00024914395180530846,-0.13384678959846497
1772045805240824800,5.572824951171875,-0.030182965099811554,-0.01665128581225872,-0.09618410468101501
1772045805250811000,5.582810791015625,-0.01624310202896595,-0.08097397536039352,-0.05582522973418236
1772045805260796000,5.5927958984375,-0.014185276813805103,-0.1151476576924324,-0.026981862261891365
1772045805270782000,5.602781982421875,0.019087783992290497,-0.13526363670825958,-0.004838285967707634
1772045805280768000,5.61276806640625,0.03650911897420883,-0.17159128189086914,-0.005520587787032127
1772045805290752800,5.622752685546875,0.047379765659570694,-0.2411089837551117,-0.014854020439088345
1772045805300738800,5.63273876953125,0.05933495983481407,-0.25172221660614014,-0.020611774176359177
1772045805310724900,5.642724853515625,0.07062739878892899,-0.23690755665302277,-0.008444510400295258
1772045805320710000,5.6527099609375,0.07560085505247116,-0.21726301312446594,0.013758528977632523
1772045805330696000,5.662696044921875,0.06295284628868103,-0.17533691227436066,0.02623707428574562
1772045805340681500,5.672681396484375,0.04136686399579048,-0.1510707288980484,0.013273338787257671
1772045805350666800,5.682666748046875,0.0280289426445961,-0.1351393163204193,-0.02058122307062149
1772045805360652800,5.69265283203125,0.008306104689836502,-0.08297464996576309,-0.04147452116012573
1772045805370638600,5.702638671875,0.028868502005934715,-0.03466178849339485,-0.041953735053539276
1772045805380624600,5.712624755859375,0.013582756742835045,0.08406859636306763,-0.0053254165686666965
1772045805390609700,5.722609619140625,-0.002782166935503483,0.17135745286941528,0.021649397909641266
1772045805400595700,5.732595703125,0.013738752342760563,0.20850162208080292,0.005836878903210163
1772045805410581500,5.74258154296875,0.04135831445455551,0.2237762063741684,-0.030430808663368225
1772045805420566500,5.75256640625,0.06527908891439438,0.24202312529087067,-0.06701278686523438
1772045805430552800,5.762552734375,0.08886271715164185,0.2627182900905609,-0.1020922064781189
1772045805440537600,5.77253759765625,0.1068318635225296,0.28051379323005676,-0.12765349447727203
1772045805450523600,5.782523681640625,0.12090868502855301,0.2899269461631775,-0.14507347345352173
1772045805460509400,5.792509521484375,0.1324572116136551,0.29229074716567993,-0.13784565031528473
1772045805470494700,5.80249462890625,0.12688550353050232,0.35008731484413147,-0.07152806222438812
1772045805480480800,5.812480712890625,0.11429408192634583,0.29620009660720825,-0.02994493395090103
1772045805490466600,5.822466552734375,0.10693008452653885,0.21024832129478455,-0.0030004004947841167
1772045805500451600,5.83245166015625,0.0942092314362526,0.1101483628153801,0.0005727626848965883
1772045805510437600,5.842437744140625,0.07751130312681198,0.039055418223142624,0.027941688895225525
1772045805520423700,5.852423583984375,0.06595637649297714,0.0003389121266081929,0.0722966343164444
1772045805530408700,5.86240869140625,0.06173532083630562,-0.04399358481168747,0.11220505088567734
1772045805540394500,5.87239453125,0.05963941290974617,-0.08400971442461014,0.12618719041347504
1772045805550380800,5.882380859375,0.04482842981815338,-0.12824933230876923,0.11260190606117249
1772045805560365600,5.892365478515625,0.03911328688263893,-0.09087825566530228,0.13701191544532776
1772045805570351600,5.9023515625,0.03512176126241684,-0.025092702358961105,0.20915207266807556
1772045805580337700,5.912337646484375,0.030690524727106094,-0.04334467649459839,0.2336624711751938
1772045805590322700,5.92232275390625,0.03612951934337616,-0.044051699340343475,0.23988871276378632
1772045805600308700,5.932308837890625,0.03980840742588043,-0.028988590463995934,0.25053709745407104
