time,seconds_elapsed,z,y,x
1772043717229258500,0.050258544921875,0.02527648007571697,-0.007100187394022941,0.0137551061054226
1772043717239244500,0.06024462890625,0.01974047325849533,-0.0037909167155623434,0.014201927424315362
1772043717249231400,0.0702314453125,0.023788287344574926,-0.006559577711299062,0.01854493419784121
1772043717259218400,0.080218505859375,0.029923429098725318,-0.0012944237247109413,0.008041715160990134
1772043717269204500,0.09020458984375,0.017956512451171875,-0.004173595890216529,0.011607179957069455
1772043717279191600,0.100191650390625,0.01765431463420391,0.0006838906109333038,0.014943996229581534
1772043717289177300,0.11017724609375,0.021990298011898994,-0.002041077373549342,0.017667521175649015
1772043717299164400,0.120164306640625,0.023185060754418372,-0.00647248394973576,0.01478413862590678
1772043717309150500,0.130150390625,0.02946925559043884,-0.0077684420444071286,0.006808419639524072
1772043717319137300,0.14013720703125,0.03215864080488682,-0.003609532266668975,0.012385562184732407
1772043717329124400,0.150124267578125,0.03380290088057518,-0.0071403732739388935,0.014674504238972439
1772043717339110400,0.1601103515625,0.03050970455408096,-0.006968560370989143,0.017662068682396784
1772043717349097500,0.170097412109375,0.03094984953701496,0.00055350569691509,0.01646820098902099
1772043717359083500,0.18008349609375,0.024810616129636764,-0.005044241244904697,0.011455176866287366
1772043717369070600,0.190070556640625,0.028393735313415526,-0.004713730648905038,0.014334412963874638
1772043717379056400,0.200056396484375,0.025102877074480057,-0.006070771281048655,0.014988273762725293
1772043717389043500,0.21004345703125,0.027495325168967244,-0.003190503136999905,0.014682660145964473
1772043717399029500,0.220029541015625,0.027040567138791084,0.002781593542546034,0.014371274375542998
1772043717409016300,0.230016357421875,0.031229251000285146,-0.0005841565635055303,0.016510176967224104
1772043717419003400,0.24000341796875,0.02091068608164787,-0.0006542261250317096,0.01731486267992295
1772043717428989400,0.249989501953125,0.027197219005227088,-0.0015640344463288783,0.010019472374208272
1772043717438976500,0.2599765625,0.025852818658947944,-0.0004067907026037574,0.023335803469875824
1772043717448962600,0.269962646484375,0.026151509344577786,-0.006532616639137268,0.013296393419336527
1772043717458949600,0.27994970703125,0.023600071296095846,-0.0038305180735886094,0.010086920720385388
1772043717468935400,0.289935302734375,0.023591887989640233,-0.012819186095334589,0.013555053488677367
1772043717478922200,0.299922119140625,0.02494447164237499,-0.004385302412137389,0.011556810609856619
1772043717488909600,0.30990966796875,0.025243162328004835,-0.006323430867865681,0.013682186999684199
1772043717498895400,0.319895263671875,0.025993103912472722,0.0031268998488783836,0.021025544632971287
1772043717508882400,0.32988232421875,0.025096447333693504,0.0013339154848828912,0.01731850680857897
1772043717518868500,0.339868408203125,0.023898177459836006,0.001222052608244121,0.00839328681132756
1772043717528855600,0.34985546875,0.02030161427259445,-0.008263385954499243,0.014699200288811698
1772043717538841600,0.359841552734375,0.02493278120458126,-0.0018461027907207606,0.0077041355033870785
1772043717548828400,0.369828369140625,0.02313888352513313,-0.00020355974808335304,0.008191307098977267
1772043717558814500,0.379814453125,0.024784312644600865,0.0013350845286622642,0.011572866695513948
1772043717568801300,0.38980126953125,0.026427988198399543,0.0030410116637125608,0.01345212283716537
1772043717578788600,0.39978857421875,0.03076689418554306,0.0009922259077429771,0.007878368692286312
1772043717588774400,0.4097744140625,0.021492285361886024,-0.007566928122937679,0.004335745915677398
1772043717598761500,0.419761474609375,0.028070494708418846,-0.0011596183639019726,0.0097820468891412
1772043717608747500,0.42974755859375,0.03061433397233486,-0.0032112536640837787,0.01061415033172816
1772043717618734300,0.439734375,0.025377017840743064,-0.006502623359672725,0.011524086517188697
1772043717628720600,0.449720703125,0.029268180060386655,-0.008001812408864498,0.014170363242272287
1772043717638707500,0.45970751953125,0.02778174089491367,-0.002048785755969584,0.007725497951824218
1772043717648694500,0.469694580078125,0.02315115848481655,0.0037694355361163616,0.007044128091540187
1772043717658680300,0.479680419921875,0.024355273577570915,-0.009379384372383356,0.006744569756230339
1772043717668667600,0.489667724609375,0.02495323947072029,-0.005172251538746058,0.00760481244791299
1772043717678653400,0.4996533203125,0.025094109246134755,-0.00501165414955467,0.010906950132688506
1772043717688640300,0.50964013671875,0.02435410453379154,-0.007395882404968142,0.015049264968652278
1772043717698626600,0.51962646484375,0.013733341798186301,-0.006130611709505319,0.010146176626952365
1772043717708613400,0.52961328125,0.02944353662729263,0.002322013206779957,0.00742573868711479
1772043717718600400,0.539600341796875,0.028243513187766075,0.0005963584579527378,0.000597710164822638
1772043717728586500,0.54958642578125,0.01955751790702343,-0.016179967765323818,0.0059694297984242434
1772043717738573600,0.559573486328125,0.027034721919894217,-0.0011003259247168897,0.0064202057732269165
1772043717748559400,0.569559326171875,0.024791326907277107,-0.002914864533394575,0.017777986679645256
1772043717758546400,0.57954638671875,0.035414427730441095,-0.010065138146840036,0.005899405902670696
1772043717768532500,0.589532470703125,0.0286737212985754,0.007580043332837521,0.0015175558229442686
1772043717778519300,0.599519287109375,0.021942367216944692,0.0055976008113473655,0.008091819646721706
1772043717788506600,0.609506591796875,0.02568564539849758,-0.006131598090194166,0.013388793543679639
1772043717798492400,0.619492431640625,0.029126141241192817,0.0040567280448973175,0.012690646078530697
1772043717808479500,0.6294794921875,0.016408698487281798,0.003267002439312637,0.014394445188576355
1772043717818465500,0.639465576171875,0.023297873479127883,-0.0032436215637251732,0.009746610249578952
1772043717828452400,0.649452392578125,0.025244915893673895,0.0015457316046580672,0.00730115332622081
1772043717838438400,0.6594384765625,0.02868599625825882,-0.0023274200342595576,0.010989166789734736
1772043717848425500,0.669425537109375,0.030932898402214047,-0.0030802842281758783,0.009621540831495076
1772043717858412500,0.67941259765625,0.025704934620857236,-0.001126885138079524,0.010341132943471894
1772043717868398300,0.6893984375,0.024361118796467778,0.005455854253098368,0.005834852766478434
1772043717878385700,0.6993857421875,0.03633680327236652,-0.004599054760672152,0.011250676403287797
1772043717888371500,0.709371337890625,0.03124970926642418,-0.011294351148232818,-0.0003889079860411584
1772043717898358300,0.719358154296875,0.017785247537493706,-0.006221103004552424,0.015268963000783696
1772043717908344600,0.729344482421875,0.022417583513259887,-0.007916070354171096,0.0103919772147201
1772043717918331400,0.739331298828125,0.011940613162517547,-0.004129062628746033,0.006792774545820429
1772043717928318500,0.749318359375,0.018980010280013084,-0.0023042218217626215,0.01803277429146692
1772043717938304500,0.759304443359375,0.03484101175665855,-0.0003424932947382331,0.017228006380377338
1772043717948291600,0.76929150390625,0.005811901149153709,0.0013034838140010834,0.005061539439577609
1772043717958278000,0.77927783203125,0.03333762145638466,0.004898768359608948,0.006531493261130526
1772043717968264700,0.7892646484375,0.03871288475394249,-0.015970562798343597,0.021278971404768525
1772043717978251000,0.7992509765625,0.031523850032687185,0.0012322817413136361,-0.012838804111257195
1772043717988237800,0.80923779296875,0.01730710863173008,0.010830204235203563,0.030853604354616253
1772043717998225000,0.819224853515625,0.024495558831095693,-0.020532646549493074,-0.011173409915994852
1772043718008211000,0.8292109375,0.03960486515760422,-0.0014467647422105074,0.022603132680617272
1772043718018197800,0.83919775390625,0.01566226403415203,-0.005288388731703162,0.0019033402701374143
1772043718028184000,0.84918408203125,0.01341711545586586,-0.0037508769661188123,0.006422644325485453
1772043718038171000,0.8591708984375,0.03510755373835563,-0.0027330416930839417,0.00901989427707158
1772043718048157000,0.869156982421875,0.02538286305963993,-0.006473981787078083,0.002249623824004084
1772043718058143700,0.879143798828125,0.029426000970602034,-0.00427932128701359,0.01715128788235597
1772043718068131000,0.889131103515625,0.031075521743297575,-0.009404263085313141,-0.0009546064442489295
1772043718078116900,0.899116943359375,0.028520576563477514,-0.00947736485414207,0.009746710714278742
1772043718088103700,0.909103759765625,0.027019524350762367,-0.003553235502168536,0.010005297718383372
1772043718098090000,0.919090087890625,0.023573183289170265,0.002539163088798523,0.009773753984831273
1772043718108076800,0.929076904296875,0.03075286566019058,-0.0005418152591213583,-0.002240344539005309
1772043718118062800,0.939062744140625,0.02835164973735809,-0.00546842147372663,0.0011983520722482354
1772043718128050000,0.9490498046875,0.024009236618876457,0.001008994379453361,0.0025925189775414764
1772043718138037000,0.959037109375,0.024599603727459906,-0.0031797990798950195,0.0060143649186939
1772043718148022800,0.969022705078125,0.025489246043562886,0.000863229233212769,0.011872781223850324
1772043718158009900,0.979009765625,0.020853402936458588,0.005608779792487621,0.01438151264176704
1772043718167996000,0.988995849609375,0.0253448691368103,0.001381225225329399,0.004769835617160424
1772043718177982700,0.998982666015625,0.029835166293382644,0.00031366905905306336,0.0008609733440447598
1772043718187970000,1.008969970703125,0.022650807747244834,0.008843706593103707,0.007628987907944247
1772043718197955800,1.018955810546875,0.021594576692581177,-0.003298310893028974,0.008826006539631634
1772043718207943000,1.02894287109375,0.03041735009551048,-0.012332717752642929,0.013259321945114061
1772043718217929000,1.038928955078125,0.020388123512268066,-0.007352116328477859,0.0029010552037507294
1772043718227915800,1.048915771484375,0.02487783614695072,0.006396824897639453,-0.002462709452258423
1772043718237901800,1.05890185546875,0.02293371634185314,0.0031171456398442388,0.006075200860993936
1772043718247889000,1.068888916015625,0.030267712491750715,0.004149776623211801,0.013762348696961997
1772043718257875000,1.078875,0.02128770270049572,0.005665368817932903,0.004531642947113141
1772043718267861800,1.08886181640625,0.04044540763497352,-0.0051786447469145055,0.01569359075417742
1772043718277848800,1.098848876953125,0.04538754021227359,-0.01690941455103457,-0.0066826652348507196
1772043718287835000,1.1088349609375,0.02562251703441143,0.016106792931258676,0.012570207169791682
1772043718297821700,1.11882177734375,0.028007366344332693,0.012095146137103437,-0.0011996215807273984
1772043718307808000,1.12880810546875,0.03488952707350254,-0.004779343231022358,0.015796009949035943
1772043718317794800,1.138794921875,0.028754969841241835,-0.00013210194706916807,0.0038562735693529245
1772043718327780900,1.14878076171875,0.019324878194928168,0.008476663378998637,0.004926103891106322
1772043718337768000,1.158767822265625,0.022914427119493482,0.0016148878507316112,0.022318744514975696
1772043718347755000,1.168755126953125,0.027103110980987548,-0.0007213365444913506,0.0019420922447927296
1772043718357740800,1.17874072265625,0.02799626042842865,0.013569967930018901,0.017981245033629238
1772043718367727900,1.188727783203125,0.024705986711382865,-0.0075401497138664125,-0.007414002583548426
1772043718377714000,1.1987138671875,0.029497312641143796,-0.0020495529409497973,0.018569420185126362
1772043718387700700,1.20870068359375,0.03293897752761841,0.011461086017265915,-0.0051095706992316985
1772043718397687000,1.21868701171875,0.032335750937461855,0.008105382381193339,0.006256110385851934
1772043718407673900,1.228673828125,0.034275779089331625,-0.007935797967948018,0.0019102358018048106
1772043718417661000,1.238660888671875,0.029639935982227323,-0.007202259529009461,0.008018453016411513
1772043718427647000,1.24864697265625,0.02724164266884327,0.0030545652650296688,0.0076582322687376286
1772043718437633800,1.2586337890625,0.03606733868122101,-0.008685776085034012,0.0055858190420083696
1772043718447619800,1.268619873046875,0.021848259192705152,-0.003509907817095518,0.011275043659564107
1772043718457607000,1.27860693359375,0.02813420759439468,0.009967230730317533,0.004242551206890493
1772043718467593000,1.288593017578125,0.033678397718071934,0.0020510507782921196,-0.0017890753738582133
1772043718477579800,1.298579833984375,0.025900164932012557,-0.00141282593999058,0.004742554884590208
1772043718487566800,1.30856689453125,0.019910569128394125,-0.0007419044084846973,0.009716781366895884
1772043718497553000,1.318552978515625,0.021707389417290685,0.002976568125374615,0.010911160516925155
1772043718507539700,1.328539794921875,0.03248246593177318,0.005959565991535782,0.00949514710600488
1772043718517526000,1.338526123046875,0.02574877376258373,0.00952354208342731,0.013089764931332319
1772043718527512800,1.348512939453125,0.020814824491739273,-0.0036850086556747554,0.004963348895264789
1772043718537499000,1.358498779296875,0.0311398191511631,0.012961188381910323,0.011505692343972623
1772043718547486000,1.36848583984375,0.02007072812616825,0.012305574017390608,0.004798504589218646
1772043718557473000,1.37847314453125,0.01992342860996723,0.005993322130665182,0.0047572957959957415
1772043718567458800,1.388458740234375,0.024705986711382865,0.0007007686804980039,0.007815861382707952
1772043718577446000,1.39844580078125,0.025301029995083806,0.004364734548144043,0.009421305551659315
1772043718587432000,1.408431884765625,0.02724105814695358,0.0008926014581695198,-0.005966525455284863
1772043718597418800,1.418418701171875,0.029634090763330456,-0.004596424412168562,0.006911213293718173
1772043718607405000,1.428405029296875,0.039053661015629765,0.004950498546846211,0.008978941212175413
1772043718617391900,1.438391845703125,0.026336802783608435,0.0014605375392362475,0.0071834543638397
1772043718627379000,1.44837890625,0.02499415600299835,0.0069470061263069505,0.0006144421039149165
1772043718637365000,1.458364990234375,0.029788989064097403,0.011320179709233344,0.008799712187750264
1772043718647352000,1.46835205078125,0.025751111850142477,-0.0003964154390618205,0.004911837903736159
1772043718657337900,1.478337890625,0.020970307314395902,-0.00621365035045892,-0.0014009528391063213
1772043718667324700,1.48832470703125,0.019325462716817853,0.005103351020999253,0.001313776879152283
1772043718677311000,1.49831103515625,0.023209610673785207,0.0028118425503373145,0.00036086920164525506
1772043718687297800,1.5082978515625,0.03024316257238388,-0.004527670024894178,0.011152275796420872
1772043718697284900,1.518284912109375,0.03472819903194904,0.002714592720940709,-0.000025718963146209716
1772043718707271000,1.52827099609375,0.03277414235472679,-0.0053590428151190275,0.006143471191078424
1772043718717258000,1.538258056640625,0.029183424386382103,-0.008339118071831762,0.0075440221713855855
1772043718727243800,1.548243896484375,0.031276012751460074,0.0036890637762844562,0.009268544409051538
1772043718737230800,1.55823095703125,0.036507483664155,0.0004983779761940241,-0.0029638456411194055
1772043718747217000,1.568216796875,0.02753039648234844,-0.00791866417005658,0.005308646068442613
1772043718757203700,1.57820361328125,0.033818682971596715,-0.007841799541562795,0.010632243110844864
1772043718767190000,1.58818994140625,0.02977963671386242,-0.0015733867965638637,0.004735421890905127
1772043718777176800,1.5981767578125,0.028885318222641943,0.0012365560576319693,0.0068144292552024125
1772043718787164000,1.608163818359375,0.01915712041258812,0.012519399431161581,0.0053234143793117255
1772043718797150000,1.61814990234375,0.03607143033444881,-0.006127141110785305,0.0028689886982087042
1772043718807136800,1.62813671875,0.02006371386349201,-0.000672017510049045,0.004155767972581088
1772043718817122800,1.638122802734375,0.023497195443511008,0.008604308346658944,0.0019249767132103442
1772043718827110000,1.64810986328125,0.024535306319594382,0.00010879413671791553,0.0023254016071092335
1772043718837096000,1.658095947265625,0.025132687690854073,-0.0033048867642879484,0.000781651896983385
1772043718847082800,1.668082763671875,0.0270791455835104,0.002520896779745817,0.005410005817376077
1772043718857070000,1.678070068359375,0.021242694514989852,-0.0022721096504479646,0.010991139551112427
1772043718867055900,1.688055908203125,0.02857435257732868,-0.004942388305626809,-0.0016357571088243274
1772043718877042700,1.698042724609375,0.030808395239710806,0.004075250082276762,0.006305064094113186
1772043718887029000,1.708029052734375,0.03335223450362682,-0.0005675707548856735,0.003956793068069965
1772043718897015800,1.718015869140625,0.015848141995072364,-0.010646664361841977,0.011344647430209442
1772043718907001900,1.728001953125,0.03050970455408096,0.01020929585788399,0.00911214827094227
1772043718916989000,1.737989013671875,0.020483400580286977,0.00362326853107661,0.010096346135856584
1772043718926976000,1.74797607421875,0.018839140504598617,-0.007048311076313257,0.007022573846857994
1772043718936961800,1.7579619140625,0.01943944448530674,0.0024811492912471295,0.0011112583106849341
1772043718946948900,1.767948974609375,0.030664602854847907,0.003946984060108662,0.006305447686603292
1772043718956935200,1.77793505859375,0.028873043262958524,0.0008878887504339218,-0.001831407545087859
1772043718966922200,1.787922119140625,0.01840074908733368,-0.00017831570897251366,0.005795799397723749
1772043718976908300,1.797908203125,0.01945464205443859,0.004669343517906963,0.0019247757838107644
1772043718986895400,1.807895263671875,0.026639585122466086,0.003556961829215288,-0.0002385945288464427
1772043718996881200,1.817881103515625,0.03891396028399467,-0.0023336305793374775,0.002821121835336089
1772043719006868200,1.8278681640625,0.031277181795239445,-0.0038826866522431373,0.010425313228741288
1772043719016855300,1.837855224609375,0.0377145213663578,-0.00032970687840133906,0.006139562200941145
1772043719026841000,1.847841064453125,0.023051205241680143,0.0017572554634883999,0.001747035463573411
1772043719036828200,1.857828125,0.024841011267900465,-0.006960778923332691,0.001108098239218816
1772043719046814200,1.867814208984375,0.025436639073491096,-0.00017477204501628875,0.00801287265899591
1772043719056801300,1.87780126953125,0.027836101430654524,-0.0009929565601050853,0.0009670092680957168
1772043719066787300,1.887787353515625,0.025747604718804357,0.004433050544001162,0.00900845043445006
1772043719076774400,1.8977744140625,0.026640754166245458,-0.0013129822947084903,0.004668128808354959
1772043719086761200,1.90776123046875,0.03202770790159702,0.004662256189994514,0.006538735852669924
1772043719096747300,1.917747314453125,0.026487609431147575,-0.0021588220017030833,-0.0018451346763409674
1772043719106734300,1.927734375,0.030670448073744774,0.0011215148432180285,0.006022173765813932
1772043719116720000,1.93772021484375,0.034712416940927505,-0.005489500794373452,0.000034404593100771307
1772043719126707200,1.947707275390625,0.02828326067626476,0.004729147413745523,0.002581303463783115
1772043719136693200,1.957693359375,0.025294600254297254,0.004368497407808899,0.0031403621186502275
1772043719146680300,1.967680419921875,0.02859188823401928,-0.0003601020166650414,0.0035111590592656282
1772043719156666400,1.977666259765625,0.025450083076953886,0.00726078478321433,0.006671075261756777
1772043719166653200,1.987653076171875,0.02694353650510311,0.005520188193581998,0.004108732226770371
1772043719176640300,1.99764013671875,0.02350070257484913,-0.004604498120769858,0.010081093767797573
1772043719186626300,2.007626220703125,0.02619242587685585,0.0024396482370793817,0.005409384762868285
1772043719196613400,2.01761328125,0.025597382593154906,-0.0010582403486594557,0.008849588344618678
1772043719206599200,2.02759912109375,0.0208048876196146,-0.015645532095059752,0.0010384305364917962
1772043719216586200,2.037586181640625,0.03337619990110397,0.00440535881947726,0.007909448817139491
1772043719226572300,2.047572265625,0.018564999738335607,0.005533559131808578,0.003003173004509881
1772043719236559000,2.05755908203125,0.028888240832090375,-0.005657916163839399,0.0018408786263316868
1772043719246545400,2.06754541015625,0.026042788273096085,-0.0027677111476659775,0.005542600954789668
1772043719256532200,2.0775322265625,0.028138883769512176,0.003495440900325775,-0.00015079751438461242
1772043719266519300,2.087519287109375,0.03083645229041576,0.0022317045748233796,-0.0019965806446969507
1772043719276505300,2.09750537109375,0.03383329601883888,0.007567731840535998,0.009690395683469251
1772043719286492400,2.107492431640625,0.03322597777545452,0.009838051392696797,0.011602796042896806
1772043719296478200,2.117478271484375,0.02902794156372547,0.011160641765967011,0.005589207442337647
1772043719306465000,2.127465087890625,0.007944821524620055,0.018992760163731873,0.018675766636431217
1772043719316451300,2.137451416015625,0.08723638490438461,-0.0383497870625928,-0.01166489236052148
1772043719326438100,2.147438232421875,0.017657237243652344,-0.01263111617732793,0.03294418342569843
1772043719336424400,2.157424560546875,-0.015452420675754546,0.022904965171404182,-0.020850361596001312
1772043719346411300,2.167411376953125,0.010890811848640441,0.013312303374521434,0.006993630880163982
1772043719356398300,2.1773984375,0.07001637003421783,-0.02907346120588481,0.023712518694624304
1772043719366384400,2.18738427734375,0.03201251033246517,0.0014995178427547216,-0.022967381149437277
1772043719376371200,2.19737109375,-0.022143442746996877,0.028779410162754353,0.02489701577145606
1772043719386357200,2.207357177734375,0.03218143715858459,-0.0479589981354773,-0.007272420422080904
1772043719396344000,2.217343994140625,0.05986380933225154,0.013720263120904564,0.021378413191251455
1772043719406330400,2.227330322265625,0.034282793352007866,0.028112689882330594,0.009662018972355873
1772043719416317200,2.237317138671875,0.021864041283726692,-0.018629224080964922,0.005656948049459606
1772043719426303200,2.24730322265625,0.022313538616895674,0.003954838573001325,0.006864332811534405
1772043719436290300,2.257290283203125,0.031140988194942473,0.026724852253124116,0.013268327235477044
1772043719446277000,2.267277099609375,0.02814823611974716,-0.02176843542214483,0.0049413288597017525
1772043719456263400,2.277263427734375,0.013927403065562248,-0.009985497039370237,0.00558484179447405
1772043719466250200,2.287250244140625,0.023198504757881162,0.024550576953962445,-0.000057073082635179157
1772043719476236300,2.297236328125,0.03187222507894039,-0.0010968553259968756,0.012218251926964149
1772043719486223000,2.30722314453125,0.01945113492310047,-0.010349033122137188,0.008596536032157018
1772043719496209200,2.317209228515625,0.021254384952783582,0.01258804422058165,0.005289767838036641
1772043719506196200,2.3271962890625,0.021702128720283508,0.005862827618792653,0.003407397290691733
1772043719516182300,2.337182373046875,0.02859013466835022,-0.015935528017580507,0.006366237963130697
1772043719526169300,2.34716943359375,0.020064298385381697,0.0009303761852905154,0.011927214824827387
1772043719536155100,2.357155029296875,0.028152327772974967,0.0018433628443628549,0.008847569917468354
1772043719546142500,2.367142578125,0.03220481803417206,-0.002541610774211585,0.01138078732267022
1772043719556129300,2.37712939453125,0.02263444113433361,0.0008043386528268456,0.0046690512569621204
1772043719566115000,2.387114990234375,0.02323357607126236,0.006355981430597603,0.01273399202991277
1772043719576102100,2.39710205078125,0.02085457198023796,-0.0016776508886367082,0.005550702062854543
1772043719586088200,2.407088134765625,0.032084991046786304,0.002999912468343973,0.0076597392392344765
1772043719596075300,2.4170751953125,0.031038112342357635,0.004472505771555006,0.0003685136519838124
1772043719606061300,2.427061279296875,0.031335633984208106,-0.003730309102125466,0.010260998645657674
1772043719616048400,2.43704833984375,0.017716273954510687,-0.0005426189767196774,0.006950403659790754
1772043719626034200,2.4470341796875,0.02490180154442787,0.002408960837870836,0.010929024967178702
1772043719636021200,2.457021240234375,0.029849779340624806,-0.0041689197150990365,0.0008466251582838595
1772043719646008300,2.46700830078125,0.02865852372944355,-0.0032219942538067696,0.0002010846632067114
1772043719655994000,2.476994140625,0.01907762543559074,0.0007351824067533015,0.005343516452424228
1772043719665981200,2.486981201171875,0.01802723959982395,-0.005189860260672867,0.008875636101327836
1772043719675967200,2.49696728515625,0.023564415460824967,-0.0044603769423440095,0.007568535558134317
1772043719685954300,2.506954345703125,0.022816227442026136,-0.0008668824950233101,-0.0005070544729940593
1772043719695940400,2.5169404296875,0.023563246417045592,-0.0038421354461461305,0.008934115689760073
1772043719705927200,2.52692724609375,0.025802549776434897,-0.00866294319871813,0.008403853871114551
1772043719715913200,2.536913330078125,0.020562895557284355,-0.003229191179573536,0.005387702654022723
1772043719725900300,2.546900390625,0.024149521872401235,-0.005703947262652218,0.005448776058340445
1772043719735886300,2.55688623046875,0.030435470274090767,0.000280789702758193,0.0023822280945722013
1772043719745873200,2.566873046875,0.027743162450194356,0.0014670768778771162,0.0012175590962171553
1772043719755860200,2.576860107421875,0.0253536369651556,-0.007429784674569964,-0.001242236879747361
1772043719765846300,2.58684619140625,0.030889059260487555,0.0015750307643786071,0.00033853863882832226
1772043719775833000,2.5968330078125,0.01651800408065319,0.008890943268314003,-0.0027843060894403603
1772043719785819400,2.6068193359375,0.019958499923348427,0.0038329292263835665,0.0006208353120833635
1772043719795806200,2.61680615234375,0.021606267130374907,0.002164192296564579,-0.006308169366652146
1772043719805792300,2.626792236328125,0.022508184406161307,-0.004802906769700348,-0.003595037950435653
1772043719815779300,2.636779296875,0.02878828758895397,-0.005460493895597756,-0.004064189832145348
1772043719825765000,2.64676513671875,0.029088147318363188,0.003354096200875938,-0.00045551608200184997
1772043719835752200,2.656752197265625,0.028493104034662244,-0.0035713191481307146,0.007093940316326916
1772043719845738200,2.66673828125,0.02295242104232311,-0.0016870763041079043,0.0060922433273401105
1772043719855725300,2.676725341796875,0.01965805567204952,-0.004333097300864756,0.005774391283513978
1772043719865712000,2.686712158203125,0.025496844828128813,-0.005873239414952695,0.003333583135809749
1772043719875698400,2.696698486328125,0.02385258475244045,0.003964738912507891,0.0075111062824726104
1772043719885685200,2.706685302734375,0.029839842468500136,-0.0005253755809739232,-0.004467299873474985
1772043719895671000,2.716671142578125,0.032843115937709805,0.003644238253869116,0.0007855882865842431
1772043719905658400,2.726658447265625,0.021928338691592216,0.0026006840176880357,0.0007133450342807919
1772043719915644200,2.73664404296875,0.030757541835308072,-0.00669303136523813,-0.0036141993086319414
1772043719925631200,2.74663134765625,0.03211012548804283,0.003787409584224224,0.0015075093529652802
1772043719935617300,2.7566171875,0.027930209454894064,-0.003723075643740594,-0.0022478611251804978
1772043719945604400,2.766604248046875,0.022698154020309447,-0.0035312428660690784,0.0028830720224883406
1772043719955590100,2.776590087890625,0.02135258463025093,-0.005196180403605103,0.007346097579644993
1772043719965577200,2.7865771484375,0.02420212884247303,-0.006798172240145504,0.003866246974095702
1772043719975564300,2.796564208984375,0.028843817168474197,-0.00026599399242550133,0.009941858827043324
1772043719985550000,2.806550048828125,0.02929506806731224,0.008822554207220673,0.005777396091353148
1772043719995537400,2.816537353515625,0.025548867276310918,0.004460523072816431,0.0035043000602163372
1772043720005523200,2.826523193359375,0.025403905847668645,-0.0005564648389816284,0.0037689423457719384
1772043720015510300,2.83651025390625,0.025700258445739744,-0.003939677536487579,0.005810111050866544
1772043720025496300,2.846496337890625,0.018513561812043187,-0.0006055646777153015,0.003936389600858092
1772043720035483400,2.8564833984375,0.020603812089562416,0.0027580665364861485,0.00711701979781501
1772043720045469200,2.86646923828125,0.02554068396985531,0.005037957634590566,0.0012256693374365568
1772043720055456300,2.876456298828125,0.024492051699757576,-0.004949292970448732,-0.001689112997567281
1772043720065442300,2.8864423828125,0.030022797819972035,0.0010059987047687173,0.00870952228680253
1772043720075429000,2.89642919921875,0.028069910186529157,0.00008541326113045214,0.005022312540886923
1772043720085416200,2.906416259765625,0.02283259405493736,0.0040029520310461515,-0.0030274671955499797
1772043720095402200,2.91640234375,0.017747253614664078,0.011729893021285534,0.004463025557156652
1772043720105389300,2.926389404296875,0.016246785923838613,0.004787161211296916,0.0011209485876373946
1772043720115375400,2.936375244140625,0.028217794224619865,-0.0008824088577181101,0.0025320666277315468
1772043720125362200,2.946362060546875,0.026874562922120093,0.0032758433328941463,0.0074357851570937775
1772043720135348200,2.95634814453125,0.02208499055802822,0.00030486469808965917,0.0017322762858588247
1772043720145335300,2.966335205078125,0.028521161085367203,-0.000022869418933987616,0.0016983557499479502
1772043720155321300,2.9763212890625,0.02882745055556297,0.004960873810388147,0.0006432024075184017
1772043720165308200,2.98630810546875,0.020297522619366643,-0.0030944223513826724,0.0005681735430844128
1772043720175294200,2.996294189453125,0.027630349725484848,0.0015279767522588372,0.002089090366894379
1772043720185281300,3.00628125,0.01999181767106056,0.005413038024678826,0.0016851126758847385
1772043720195267300,3.016267333984375,0.019538813206553457,-0.0007824556145817041,-0.003575474733440205
1772043720205254400,3.02625439453125,0.028066987577080725,-0.0019679025394842026,0.001223577845050022
1772043720215241200,3.0362412109375,0.02402735679745674,0.0026848917024210094,-0.002785411201138049
1772043720225227300,3.046227294921875,0.03345452583432197,0.0056745019724592565,0.0023268903112970292
1772043720235214300,3.05621435546875,0.024476854130625725,-0.005732479237392544,0.0040904476514086125
1772043720245200100,3.0662001953125,0.023283260431885718,0.005299421582370996,0.003341985637973994
1772043720255187200,3.076187255859375,0.02283785475194454,0.0016696137126535177,-0.0032010975962504743
1772043720265173200,3.08617333984375,0.015654665249586103,0.00002272328846156597,-0.004371072957385331
1772043720275160300,3.096160400390625,0.0201426243185997,0.0009423223514109849,0.003725249334517866
1772043720285146000,3.10614599609375,0.025531916141510007,-0.003882613587006926,0.00023226525275968013
1772043720295133400,3.116133544921875,0.015507365733385086,-0.0016627455804497002,-0.0006432663396000862
1772043720305119200,3.126119140625,0.026426234632730482,-0.00022767127603292464,0.003073964085243642
1772043720315106000,3.13610595703125,0.020738836646080016,-0.0037952640971168875,0.005000886160368099
1772043720325092400,3.14609228515625,0.022837270230054853,-0.004759725215099752,-0.0022793065762147305
1772043720335079200,3.1560791015625,0.030320903983712195,-0.0004233765112236142,0.00158348806547001
1772043720345065500,3.1660654296875,0.023591887989640233,-0.007544204834476113,0.002187719302624464
1772043720355052300,3.17605224609375,0.0292792859762907,-0.0008196458198130131,-0.0013324541801586747
1772043720365039400,3.186039306640625,0.02239478715956211,0.0017638678673654793,0.0012688417588826268
1772043720375025200,3.196025146484375,0.017606968361139296,-0.005279182511940598,0.0004700286645442247
1772043720385012200,3.20601220703125,0.018798223972320557,-0.0024659151894971727,0.0002522029290907085
1772043720394998300,3.215998291015625,0.021491700839996335,-0.0016988763397559523,-0.000394771471247077
1772043720404985000,3.225985107421875,0.02268938619196415,-0.002922499850578606,0.001012154450919479
1772043720414971400,3.235971435546875,0.028826281511783597,0.00048413025513291354,-0.007503215236961841
1772043720424958200,3.245958251953125,0.02747369785904884,-0.004938333185017109,0.0022219686320982873
1772043720434944300,3.2559443359375,0.015502689558267592,-0.003608180559799075,0.0011218253704719245
1772043720444931300,3.265931396484375,0.027322891211509704,0.005407850392907858,0.001130045209545642
1772043720454917000,3.275917236328125,0.0324076471298933,0.007577960973605513,0.004932853292301297
1772043720464904200,3.285904296875,0.0258241770863533,0.003674706457369029,-0.0030340887325815856
1772043720474890200,3.29589013671875,0.02986497690975666,0.0045811537778005,0.001366109854588285
1772043720484877300,3.305877197265625,0.02134206323623657,0.005522489748522639,0.0066614671831950545
1772043720494864100,3.315864013671875,0.025376433318853378,-0.004401742090284824,0.0011918036004528402
1772043720504850200,3.32585009765625,0.026571196061372756,0.003841477859020233,0.0007462243905756622
1772043720514837200,3.335837158203125,0.01849485711157322,-0.010308372318185864,0.003176657274737954
1772043720524823300,3.3458232421875,0.025531916141510007,-0.006364237802289426,0.003441993680037558
1772043720534810400,3.355810302734375,0.015959201154112816,0.0020990911711007356,0.0028379907717462627
1772043720544796200,3.365796142578125,0.028678397473692892,0.007170512683875858,0.0036318445631768554
1772043720554783200,3.375783203125,0.02434182957410812,0.0036798210239037867,0.00556157964989543
1772043720564769300,3.385769287109375,0.021947627913951873,-0.004402655405737459,-0.0011516359868459403
1772043720574756000,3.395756103515625,0.02224398051202297,0.002399973813816905,0.006421639678487554
1772043720584742400,3.405742431640625,0.03167348763644695,-0.004667991811037064,0.0014403441345784813
1772043720594729200,3.415729248046875,0.03212824566662311,-0.000429660121537745,0.01738843937278725
1772043720604715300,3.42571533203125,0.004745733222365379,0.002249678622931242,-0.023958447146555407
1772043720614702300,3.435702392578125,0.022852467799186704,0.0360679597357288,0.016511483008321375
1772043720624688000,3.445688232421875,0.016128127980232238,-0.024533589286543426,-0.006679404698684811
1772043720634675200,3.45567529296875,0.029742227312922476,-0.0077052406150847665,0.0025034889872185885
1772043720644662000,3.465662109375,0.015682137778401373,0.015685096920467913,0.002816180798737332
1772043720654648300,3.4756484375,0.021375380983948707,-0.019738938888534903,-0.0018153697257395833
1772043720664635100,3.48563525390625,0.03170388277471065,-0.006175729492865502,0.01771498617972247
1772043720674621400,3.495621337890625,0.022280805391073227,0.020117599475197492,-0.014926277909800409
1772043720684608300,3.505608154296875,0.02917173394858837,0.01397811033949256,0.004880310254311189
1772043720694594000,3.515593994140625,0.026329788520932196,-0.032123131100088353,-0.001469506296981126
1772043720704581400,3.525581298828125,0.035006431451439855,0.011629172593168913,0.010414928832044824
1772043720714567200,3.535567138671875,0.026471827340126035,0.012339074428193271,-0.008678807488130404
1772043720724554200,3.54555419921875,0.03215864080488682,-0.021208134658262132,-0.0004818560996558517
1772043720734540300,3.555540283203125,0.02856733831465244,0.007346563370525836,-0.0022724932429380716
1772043720744527400,3.56552734375,0.022135843962430953,0.01448416016548872,0.005745694911992177
1772043720754513200,3.57551318359375,0.02453179918825626,-0.015292371275834738,0.0030004239249974488
1772043720764500200,3.585500244140625,0.024833412483334538,-0.0025981632670387623,-0.005301914933556691
1772043720774486300,3.595486328125,0.024233108502626416,0.007917385528422891,0.0006380695746745913
1772043720784473000,3.60547314453125,0.02123451120853424,-0.0061953840414062135,0.003462442813022062
1772043720794459400,3.61545947265625,0.028572599011659622,-0.006596073796786368,-0.003710718485666439
1772043720804446200,3.6254462890625,0.031418051570653915,0.01177395135872066,-0.003660212141135707
1772043720814433300,3.635433349609375,0.027829087167978286,-0.007567768373154103,0.0031985677124466744
1772043720824419300,3.64541943359375,0.03560731995403767,-0.002995199760608375,0.003938882952043786
1772043720834406100,3.65540625,0.03321136472821235,0.003923383988812566,-0.0027872469651978463
1772043720844392200,3.66539208984375,0.03665536770224571,-0.011524725838005541,0.0007485259455163032
1772043720854379300,3.675379150390625,0.022742577683925628,-0.003486746137216687,0.001330883277580142
1772043720864365300,3.685365234375,0.026485855865478514,0.002172192939929664,-0.00006710128630511462
1772043720874352000,3.69535205078125,0.0158639240860939,-0.0056623000780120485,-0.0027595369743648917
1772043720884338200,3.705338134765625,0.02469312722980976,-0.009105828128010035,-0.0057733409707434475
1772043720894325200,3.7153251953125,0.020798457878828048,-0.003929046544618904,0.0020510233788285405
1772043720904311300,3.725311279296875,0.018102058401703834,0.0006285802271217108,-0.003985416374355555
1772043720914298400,3.73529833984375,0.033959552747011186,-0.006456921054422855,-0.004279266488086432
1772043720924284200,3.7452841796875,0.03275894478559494,0.0013968246532604098,-0.0035866811140440403
1772043720934271200,3.755271240234375,0.02976385462284088,-0.00036262276731431484,0.0005248184585478156
1772043720944257300,3.76525732421875,0.03275543765425682,-0.00348122971188277,0.0041088600909337395
1772043720954244000,3.775244140625,0.022428689429163932,0.004909764677658677,0.0007979089120402932
1772043720964230000,3.78522998046875,0.02047989344894886,-0.0010110767386853695,-0.005353014933131635
1772043720974216700,3.795216796875,0.027666590082645416,-0.0003475713286548853,0.00025323497555218636
1772043720984202500,3.805202392578125,0.022879940328001974,0.0012676087830215692,-0.004866628788830712
1772043720994189800,3.81518994140625,0.023932664251327514,-0.0034580314993858333,-0.006132447473565116
1772043721004177000,3.825177001953125,0.021993220621347426,0.0031795433515682814,-0.00005158405676484108
1772043721014162700,3.83516259765625,0.025738252368569373,0.0017472089935094118,-0.004176125774020329
1772043721024149800,3.845149658203125,0.023489012137055395,0.007078596616722643,0.003366142831696197
1772043721034135800,3.8551357421875,0.02020049198567867,-0.000019289222359657286,0.005039610735559836
1772043721044122600,3.86512255859375,0.022600538864731786,0.000020458266139030454,-0.005091286123869941
1772043721054109000,3.87510888671875,0.02783551690876484,-0.0013193755028769374,-0.0013057853689417242
1772043721064095700,3.885095703125,0.025585692155361175,-0.003927110315859317,0.001601452980423346
1772043721074081500,3.89508154296875,0.01436170282959938,0.0052025736117735505,0.003333546603191644
1772043721084068900,3.90506884765625,0.01376432145833969,-0.004691701480187475,0.0030583920567762105
1772043721094054700,3.9150546875,0.011677578312158585,-0.0021359160501509904,0.005545468765310943
1772043721104041700,3.925041748046875,0.017363807255029676,-0.000190152277238667,0.007780826601944863
1772043721114027800,3.93502783203125,0.019610709398984908,-0.0005456511840224266,-0.0023068156376481056
1772043721124014800,3.945014892578125,0.011837152788043022,-0.005491546620987355,0.004188647328875959
1772043721134001000,3.9550009765625,0.020521394503116606,-0.00048654140792787074,0.005742041650181636
1772043721143987700,3.96498779296875,0.02172083342075348,-0.003955715355835855,0.0025513467169366775
1772043721153973800,3.974973876953125,0.02621931388378143,-0.000400543624907732,0.004875277886167168
1772043721163960600,3.984960693359375,0.03729892630279064,0.007269041154906153,-0.006279536927212029
1772043721173947000,3.99494677734375,0.025327333480119705,-0.0021379618767648936,-0.0013822664049454032
1772043721183933700,4.00493359375,0.028024317479133604,-0.00218384684510529,0.0048055736508220434
1772043721193919700,4.014919677734375,0.021587562429904936,-0.0013665025802329183,-0.0016454108531586825
1772043721203906800,4.02490673828125,0.024722937846183776,-0.0006266074657440185,-0.003846802488109097
1772043721213893600,4.0348935546875,0.024572131198644636,0.004204392887279391,0.010287713122647256
1772043721223880000,4.0448798828125,0.028164018210768697,-0.000592741728760302,-0.0013994824012275784
1772043721233866800,4.05486669921875,0.016633154892921446,0.004798047931492328,-0.00450139393932186
1772043721243852800,4.064852783203125,0.026359599137306212,-0.0013455693900585174,0.0027178715234156695
1772043721253839600,4.074839599609375,0.025319150173664092,0.002708199512772262,0.002007010707166046
1772043721263825700,4.08482568359375,0.009611877954006195,-0.005454977470263838,0.003762722667539492
1772043721273812700,4.094812744140625,0.022931378254294393,-0.003098550537228584,0.005605099131213501
1772043721283798800,4.104798828125,0.02412789456248283,0.00782886699475348,0.005640782365947962
1772043721293785900,4.114785888671875,0.012907996889948843,0.004941036598756909,-0.00006806940068490802
1772043721303771600,4.124771728515625,0.022934885385632514,-0.0005985504150390625,0.0011339176670648156
1772043721313759000,4.134759033203125,0.01590367157459259,-0.0030290654975920913,-0.0030294399569276717
1772043721323744800,4.144744873046875,0.018146482065320015,0.0037293227214366194,0.0009395002066623419
1772043721333731600,4.154731689453125,0.02921440404653549,0.0011270678011700511,0.001424863437656313
1772043721343718000,4.1647177734375,0.026520927178859708,0.002158164414577186,0.002072011367930099
1772043721353704700,4.17470458984375,0.023376199412345883,0.0029514702167361974,-0.004365885325614363
1772043721363690800,4.184690673828125,0.017840192595124243,-0.0004753258941695094,0.00032332280338741835
1772043721373677800,4.194677734375,0.026064415583014488,-0.004272599285282195,-0.00395828177225776
1772043721383663600,4.20466357421875,0.018880641558766363,0.007270356329157948,0.0005172014076728373
1772043721393650700,4.214650634765625,0.027854806131124496,-0.0035869185760617254,-0.007007577207125723
1772043721403636700,4.22463671875,0.018714637342095376,-0.0003759206403046846,-0.000569397385790944
1772043721413623800,4.234623779296875,0.008840309059619904,-0.0017523600926622747,0.0036558738927356896
1772043721423609900,4.24460986328125,0.021115268743038176,0.003232917506620288,0.0009105115741956978
1772043721433597000,4.254596923828125,0.021563597032427786,0.0021724121356382965,-0.0025722159750293937
1772043721443582700,4.264582763671875,0.027253917628526685,-0.001500613821297884,-0.001616878878418356
1772043721453569500,4.274569580078125,0.02889291700720787,0.0036957492453977463,0.0025308793176431208
1772043721463556900,4.284556884765625,0.02110942352414131,0.0023820728309452534,0.003221537596080452
1772043721473542700,4.294542724609375,0.02828209163248539,0.001507993410155177,0.002806472255475819
1772043721483529700,4.30452978515625,0.0294710091561079,0.0016578502096235752,0.0005238777436316014
1772043721493515800,4.314515869140625,0.01300970369875431,0.00268138457108289,-0.0020252404836006463
1772043721503502800,4.3245029296875,0.018691256466507912,-0.0035285394523292776,-0.003904834551969543
1772043721513489000,4.334489013671875,0.012854220876097678,-0.0003479366548359394,0.0009453819581773131
1772043721523475700,4.344475830078125,0.0371001888602972,-0.006126264327950775,-0.001292971553141251
1772043721533461800,4.354461669921875,0.023780688560009002,-0.0022007614472880957,-0.004906056616920978
1772043721543448600,4.364448486328125,0.018243512699007987,-0.0020540099203586576,0.0010339918233919889
1772043721553435000,4.374434814453125,0.029471593677997586,0.0012715177731588481,0.004579966467712074
1772043721563421700,4.384421630859375,0.02932195607423782,-0.0077158716069534415,0.006560509293060749
1772043721573407700,4.39440771484375,0.03320785759687424,-0.004504289149306714,0.005069832343887537
1772043721583394800,4.404394775390625,0.02497252869307995,-0.00007595131304115057,-0.00016484430604614316
1772043721593380600,4.414380615234375,0.02212590709030628,-0.005839592873677611,-0.0012044256200082599
1772043721603367700,4.42436767578125,0.02166881097257137,-0.0019486498497426508,-0.00029183168658055363
1772043721613353700,4.434353759765625,0.02390752981007099,0.011126593365892768,0.0062766417172271756
1772043721623340800,4.4443408203125,0.033033085551857945,-0.0024633213736116885,0.002308797532180324
1772043721633326800,4.454326904296875,0.02629822433888912,-0.009777955235913396,0.0025175631783436983
1772043721643313700,4.464313720703125,0.025237901630997657,0.00898866802174598,-0.006804464983614161
1772043721653299700,4.4742998046875,0.024189269360899924,0.00528155713211745,0.0026090591203887016
1772043721663286800,4.484286865234375,0.018800562059879303,-0.0015993249554187058,0.0018411617541220038
1772043721673272800,4.49427294921875,0.02014437788426876,-0.005151391413807869,-0.002385041106166318
1772043721683259600,4.504259765625,0.021055062988400458,0.0044811640020459885,0.003493733000429347
1772043721693245700,4.51424560546875,0.02989186491668224,0.0013306640818715094,0.011863922063959762
1772043721703232800,4.524232666015625,0.023306056785583496,0.0036151582898572084,-0.0009044380264356732
1772043721713218800,4.53421875,0.017920272094011307,-0.004922770289704203,0.00232308178585954
1772043721723206000,4.544205810546875,0.021371873852610586,-0.007665456593967974,0.008386720073223114
1772043721733191700,4.554191650390625,0.03169862207770347,-0.0011054404912516475,0.006286194996861741
1772043721743178800,4.5641787109375,0.025415011763572692,0.00004924596920609474,0.0020194591967854646
1772043721753164800,4.574164794921875,0.023012042275071143,0.00573434240091592,-0.0031359416718594727
1772043721763151600,4.584151611328125,0.02404956862926483,0.004108933156169951,-0.0036516817748080935
1772043721773138700,4.594138671875,0.023898177459836006,0.0032544352186843753,0.0032143589366227386
1772043721783124700,4.604124755859375,0.02404430793225765,0.003150828713737428,0.0003007730448618531
1772043721793111800,4.61411181640625,0.03137245886325836,-0.0003533800149336457,0.0011561477651819585
1772043721803097600,4.62409765625,0.021645430096983907,-0.004819273382611572,0.0013965506586246191
1772043721813085000,4.6340849609375,0.023138299003243445,-0.007584609910100698,0.002068129777256399
1772043721823070700,4.64407080078125,0.030917700833082196,-0.0016131708176806568,-0.0014525551621802151
1772043721833057500,4.6540576171875,0.028970658418536185,-0.0039908232018351555,0.006613125396287068
1772043721843043800,4.6640439453125,0.024176994401216505,-0.0037182533381506797,-0.0004071286293212324
1772043721853030700,4.67403076171875,0.02357552137672901,-0.0011281637797132134,0.0003573346708435565
1772043721863017000,4.684016845703125,0.01923427730202675,0.0012922317676246165,0.005341872484609485
1772043721873003800,4.694003662109375,0.01983399676084518,-0.0015749211665242908,0.007778196253441273
1772043721882989600,4.703989501953125,0.024019758012890816,0.0007396393861621618,-0.00015641440441831945
1772043721892976600,4.7139765625,0.020580431213974952,0.008640366040728986,0.002922499850578606
1772043721902962700,4.723962646484375,0.020880875465273854,0.004278955960832536,0.002609853704832494
1772043721912949800,4.73394970703125,0.02163315513730049,0.0025728461626917123,0.004332704575220123
1772043721922935800,4.743935791015625,0.02957388500869274,-0.001488010068051517,0.0027407044097315517
1772043721932923000,4.7539228515625,0.031073768177628514,-0.006033581075817346,0.006728230542782694
1772043721942908700,4.76390869140625,0.030185879427194594,-0.0026174524893984195,0.004420181929273531
1772043721952895700,4.773895751953125,0.028097382715344427,0.0017682517815381287,0.0030005517891608176
1772043721962882300,4.78388232421875,0.03212649210095406,0.00045654812846332785,-0.0006100673228967934
1772043721972869400,4.793869384765625,0.03063303867280483,0.00039605011288076637,-0.004180409223493189
1772043721982855400,4.80385546875,0.031686347118020056,-0.003602335340902209,0.012729471118422224
1772043721992842500,4.813842529296875,0.02584288178682327,0.0041469636116176845,-0.0001223842706531286
1772043722002828300,4.823828369140625,0.03437631685435772,-0.000727766285277903,-0.003805328833404928
1772043722012815400,4.8338154296875,0.023152327528595924,-0.0008458762396126985,-0.004478150061052293
1772043722022801400,4.843801513671875,0.02404138532280922,-0.006241780466400087,0.007884378307964653
1772043722032788200,4.853788330078125,0.02269406236708164,-0.0015960004871711133,0.014672102219332009
1772043722042774500,4.8637744140625,0.028979426246881483,-0.004886347269453108,-0.0002015504540875554
1772043722052761300,4.87376123046875,0.02987316021621227,-0.00885992707554251,0.0039029896547552196
1772043722062747100,4.8837470703125,0.02119184111058712,-0.004756875670887529,0.0052453533075749875
1772043722072734500,4.893734375,0.03286006707251072,0.0010125745760276913,0.0024845650910399852
1772043722082720300,4.90372021484375,0.02986614595353603,0.0007331000475212931,0.0005422445173840969
1772043722092707300,4.913707275390625,0.02941840218603611,0.003102094201184809,0.004417697711242363
1772043722102693400,4.923693359375,0.030019290688633918,0.0014278043134137988,-0.0020788521006703375
1772043722112680400,4.933680419921875,0.02492927407324314,0.002205839481204748,0.0003970912924967706
1772043722122666200,4.943666259765625,0.023738602983951567,-0.0037457989322021604,-0.005164597955252975
1772043722132653300,4.9536533203125,0.021043957072496414,-0.0010230594374239445,-0.0005609218183904885
1772043722142639400,4.963639404296875,0.02492752050757408,0.004961823658458888,-0.004102868741564452
1772043722152626200,4.973626220703125,0.02956862431168556,0.0004405103091150522,0.0004449490222148597
1772043722162612500,4.983612548828125,0.019994740280508995,0.0002442570846527815,0.0017467980015557257
1772043722172599300,4.993599365234375,0.020744681864976883,0.0009186857474967837,0.005441378203174099
1772043722182585300,5.00358544921875,0.026720249143242836,0.00037698008622974157,0.004267137658875435
1772043722192572400,5.013572509765625,0.02252805815041065,-0.0013936828481033443,0.00539247016068548
1772043722202558200,5.02355810546875,0.022371406283974646,-0.002445091597177088,0.0011510423318017273
1772043722212545300,5.033545166015625,0.02446165656149387,0.0003075315792113542,0.0068054239648394285
1772043722222531300,5.04353125,0.0264081144541502,0.0040344066152349116,0.0018347685459535567
1772043722232518400,5.053518310546875,0.02057517051696777,0.004142981556244194,0.007118216241057962
1772043722242505200,5.063505126953125,0.01727788253724575,-0.0011239990612491966,0.002405618103314191
1772043722252491300,5.0734912109375,0.016681670209765433,0.004693162784911692,0.004475638443557545
1772043722262478300,5.083478271484375,0.02326104860007763,0.0010243746116757391,-0.0009740600633900612
1772043722272464400,5.09346435546875,0.018466215538978575,0.00264587486628443,0.00752838621083647
1772043722282451500,5.103451416015625,0.01577156962752342,0.002807531701400876,0.0038585477248299863
1772043722292437200,5.113437255859375,0.02459901920557022,-0.00045687692202627656,-0.0035269502834416925
1772043722302424300,5.12342431640625,0.02474281159043312,0.003563355037383735,-0.0006590849632397294
1772043722312410400,5.133410400390625,0.018603578183054924,0.002152392260916531,-0.0011631072289310395
1772043722322397200,5.143397216796875,0.019648703321814537,0.004579034885950386,0.00010030030300840734
1772043722332383500,5.153383544921875,0.029676760861277577,0.0005086071092635393,0.005255472842790186
1772043722342370300,5.163370361328125,0.03266834389269352,-0.005027874631993472,0.0047537886646576225
1772043722352356400,5.1733564453125,0.023091537252068518,0.0039547289751470085,0.0044407589264214035
1772043722362343400,5.183343505859375,0.017253332617878914,-0.0025845000678673385,0.003256033520726487
1772043722372329200,5.1933291015625,0.026227497190237044,-0.0017642697261646388,0.008068548368988558
1772043722382316300,5.20331640625,0.020392215165495872,0.0013674889609217643,0.004940059351222589
1772043722392302300,5.21330224609375,0.024873744493722913,-0.0010294526455923913,0.003663253481592983
1772043722402289400,5.223289306640625,0.021577041035890577,0.005795534536242485,0.008866055422229692
1772043722412275200,5.233275146484375,0.025767478463053703,-0.0037561376631259917,0.00013413864052854476
1772043722422262500,5.243262451171875,0.016936521753668783,-0.0007188157938420772,0.001948311923025176
1772043722432248300,5.253248291015625,0.01799158376455307,0.0026015242679044604,0.006336043754266575
1772043722442235100,5.263235107421875,0.023822774136066434,-0.0025477847866714,0.0033087866212707013
1772043722452221400,5.273221435546875,0.027260931891202926,-0.00023779081124812362,-0.003910341844148933
1772043722462208300,5.283208251953125,0.03235620920360088,0.00024681436792016025,-0.0038759920499753203
1772043722472194600,5.293194580078125,0.031463644278049464,0.00329085823893547,0.007331174005148932
1772043722482181400,5.303181396484375,0.025776830813288687,0.0010631722521036863,0.005350603780336678
1772043722492167200,5.313167236328125,0.022484803530573843,0.0010567059786990285,-0.002523454063013196
1772043722502154200,5.323154296875,0.020090601870417595,0.0058749564480036496,0.00460812398311682
1772043722512140300,5.333140380859375,0.020535423028469085,-0.0030018121644854543,-0.0028573165267240254
1772043722522127400,5.34312744140625,0.018738018217682836,-0.0022155571576207875,-0.00260580771737732
1772043722532113400,5.353113525390625,0.021276012262701986,0.003124196435138583,0.004142680162144825
1772043722542100500,5.3631005859375,0.022320552879571912,0.004372004539147019,-0.0011713453343138098
1772043722552086300,5.373086181640625,0.021421558213233948,0.0055991351813077924,-0.0027714648741763086
1772043722562073300,5.3830732421875,0.02276595855951309,0.006244045488722622,0.0030947054791729896
1772043722572059400,5.393059326171875,0.02919920647740364,0.0016244593966752289,0.0035249866552185265
1772043722582046200,5.403046142578125,0.02815875751376152,-0.0035953576108440754,0.005201294970139861
1772043722592032500,5.413032470703125,0.028909868142008778,0.002053425398468971,0.003128288088366389
1772043722602019300,5.423019287109375,0.027711598268151283,-0.004515066271647811,-0.0025243491121567786
1772043722612005000,5.433005126953125,0.03189268334507942,-0.0017975509412586689,-0.006900545769231393
1772043722621992400,5.442992431640625,0.017083821269869803,0.006947261854633688,0.0018256536577362565
1772043722631978200,5.452978271484375,0.03669862232208252,0.004319068775512278,0.009645780223608017
1772043722641965300,5.46296533203125,0.008422375908493995,-0.008183927510119975,-0.010003891212586312
1772043722651951400,5.472951416015625,0.03205693399608135,0.01680997276455164,0.034678916530124844
1772043722661938400,5.4829384765625,0.0497182628929615,-0.006429265862517059,-0.017406084627332164
1772043722671924500,5.492924560546875,0.03505553129017353,0.005366422403976321,0.005458119275420904
1772043722681911300,5.502911376953125,-0.01014671548306942,0.014586707224510609,-0.010597774585662408
1772043722691897300,5.5128974609375,0.024091654205322263,0.012518559180945157,0.01057786430879496
1772043722701884200,5.52288427734375,0.08645955531299114,0.02083404064886272,0.0627213450546842
1772043722711870500,5.532870361328125,0.015616086804866789,0.0063613517254590985,-0.03832307258560322
1772043722721857300,5.542857177734375,0.12257424026727676,0.03140668992642313,0.15247536620264873
1772043722731843300,5.55284326171875,-0.08676116860806941,0.02661218565888703,-0.06471340478789062
1772043722741830400,5.562830322265625,-0.04319499860405922,-0.032994543639756735,-0.11004165256097913
1772043722751816200,5.572816162109375,0.002611643803119659,-0.1450651447450742,-0.03585419825403951
1772043722761803300,5.58280322265625,0.060979077097773546,-0.06622567251436412,0.044843816123856226
1772043722771789300,5.592789306640625,0.03973579806089401,0.06207428845595568,-0.006837335206754505
1772043722781776400,5.6027763671875,0.04451835616230965,0.106305571305193,-0.017820738975983113
1772043722791762400,5.612762451171875,0.03478080600202083,0.059647865026630456,-0.013427344588935375
1772043722801749200,5.622749267578125,0.04763035070300102,-0.011885850767977536,0.055278874428477134
1772043722811735300,5.6327353515625,0.027863573959469794,-0.02049070710390806,0.01094447826463729
1772043722821722400,5.642722412109375,0.03339548912346363,-0.04480469882301986,0.01773359041549265
1772043722831709400,5.65270947265625,0.016932430100440977,-0.10655918074008076,-0.004050115641020239
1772043722841695200,5.6626953125,0.017224106523394584,-0.06963833050206303,0.028447054669540374
1772043722851682300,5.672682373046875,0.02620119370520115,0.019239574531652034,0.002126253172662109
1772043722861668400,5.68266845703125,0.00959200420975685,0.06994049178641289,-0.03326588052758016
1772043722871655200,5.6926552734375,0.014676760128140448,0.11442837974522262,-0.04024065144364722
1772043722881641500,5.702641357421875,0.04444587544798851,0.05203830333836376,0.02756012490033172
1772043722891628300,5.712628173828125,0.017963526713848113,-0.08360248538143933,-0.0018538294394500553
1772043722901614300,5.7226142578125,0.018416531178355216,-0.07184530249442905,0.013480408216733485
1772043722911601400,5.732601318359375,0.016012392646074295,0.06745258396081626,-0.00718793874271214
1772043722921587200,5.742587158203125,0.024091654205322263,0.072237260954082,0.007443703602068126
1772043722931574300,5.75257421875,0.019307927060127256,-0.05803082175143063,-0.03920492432089522
1772043722941560300,5.762560302734375,0.027087913411855697,-0.007893456663563846,0.0074050520921126
1772043722951547400,5.77254736328125,0.02259878529906273,0.05702796485181898,-0.014797838357696309
1772043722961533200,5.782533203125,0.01616144572794437,0.01488287715949118,-0.010620397409424186
1772043722971520000,5.79252001953125,0.016159692162275315,-0.0028399726662784812,-0.0006972798154689371
1772043722981506000,5.802506103515625,0.02049859814941883,0.010816248775087297,-0.005093761208746582
1772043722991492900,5.812492919921875,0.023196166670322416,0.023327611030265687,0.007111649502953514
1772043723001479000,5.82247900390625,0.0142214175760746,0.013235438746027648,-0.0015921645622700453
1772043723011466000,5.832466064453125,0.013325930041074753,-0.009538958848267793,-0.002282941571716219
1772043723021452000,5.8424521484375,0.027238135537505148,-0.017338124824501575,-0.005547797719715163
1772043723031439000,5.852439208984375,0.02887888848185539,-0.004208630670979619,0.0043324853795114904
1772043723041425000,5.8624248046875,0.0318850845605135,0.011909487371891736,0.007362199331074953
1772043723051412200,5.872412109375,0.028888240832090375,0.011823526121489703,-0.003516620685672387
1772043723061398000,5.88239794921875,0.026946459114551544,-0.0008161386884748935,-0.004564093045145273
1772043723071384800,5.892384765625,0.02979424976110458,-0.0207589661186561,-0.0028318258924409745
1772043723081371100,5.90237109375,0.025153730478882787,-0.005761632266640663,-0.0013363266376778483
1772043723091358000,5.91235791015625,0.02276245142817497,0.007047763087041675,-0.003735213606106117
1772043723101344000,5.922343994140625,0.023366262540221214,0.00027169308084994554,-0.0004342814977280795
1772043723111331000,5.9323310546875,0.026505729609727857,-0.009104074562340974,0.003866685365512967
1772043723121316900,5.94231689453125,0.022020693150162696,-0.00572232316955924,0.0012793631528969854
1772043723131304000,5.952303955078125,0.019771452918648718,0.004696377655304968,0.0006018748832866549
1772043723141290000,5.9622900390625,0.016022329518198965,-0.014287541614845394,0.0021280067383311688
1772043723151277000,5.972277099609375,0.021266075390577316,-0.021708668058924376,0.010527714157290756
1772043723161263000,5.98226318359375,0.03487900567948818,-0.00579772649332881,-0.0022136757277883587
1772043723171250200,5.992250244140625,0.020222119295597075,0.006763977709598839,-0.0032941735740285366
1772043723181236000,6.002236083984375,0.01932838532626629,0.015652181031554937,0.005769468513224274
1772043723191222800,6.012222900390625,0.027404724276065825,0.003186849875189364,0.0009469071949832141
1772043723201209000,6.022208984375,0.03383563410639763,-0.011536818134598434,0.0039323892791755495
1772043723211196000,6.03219580078125,0.0194715931892395,0.009982026440650224,0.00336062640636228
1772043723221182200,6.04218212890625,0.02964695024490356,0.022113230271823704,0.003017639921279624
1772043723231169000,6.0521689453125,0.019766776743531226,-0.0024697876470163465,0.005096391557250172
1772043723241154800,6.06215478515625,0.020961539486050604,-0.009450586445070802,0.0004016122039873153
1772043723251142100,6.07214208984375,0.015574001228809356,-0.002389963876456022,-0.004496854761522263
1772043723261128000,6.0821279296875,0.022457331001758573,0.015869330913573503,-0.0033536486763041462
1772043723271115000,6.092114990234375,0.02963525980710983,0.010553469653055071,0.0014061861366499214
1772043723281101000,6.10210107421875,0.026488778474926946,-0.005392104834504426,-0.0002068020179402083
1772043723291088100,6.112088134765625,0.04325754244625568,0.004782411970943212,0.002649893454276025
1772043723301074000,6.122073974609375,0.011242694026231764,0.007491817060112952,-0.004995908591151237
1772043723311061000,6.13206103515625,0.036975101175904274,0.02285776502881199,0.006460793511942029
1772043723321047000,6.142047119140625,0.014968436551094054,-0.006424041698127984,-0.003914643559930846
1772043723331033900,6.152033935546875,0.024543489626049995,-0.0006854980461299419,0.006291994549985975
1772043723341020200,6.162020263671875,0.022443302476406097,0.010047785153239964,-0.0006542809239588678
1772043723351007000,6.172007080078125,0.0043278000712394715,0.0030194208864122627,0.005685297361109405
1772043723360993000,6.181992919921875,0.02931201920211315,0.0032522432615980502,0.00307897818707861
1772043723370980000,6.19197998046875,0.016584055054187773,0.0037081703355535864,-0.002270255620079115
1772043723380966000,6.2019658203125,0.029748657053709028,0.0013791063334792852,0.009422008804557845
1772043723390952200,6.2119521484375,0.029897125613689422,-0.003716244044154882,-0.005404507658351212
1772043723400939000,6.22193896484375,0.024952070426940916,-0.000587590629607439,-0.002848914024559781
1772043723410924800,6.2319248046875,0.024803601866960526,0.003566533375158906,0.004530766164278611
1772043723420912000,6.241912109375,0.020015198546648023,0.004304492260888219,-0.0027511436053551733
1772043723430899000,6.25189892578125,0.022264438778162,0.0019961787858977912,-0.003015237901639193
1772043723440885000,6.261885009765625,0.028255203625559805,0.004160809473879635,-0.0005423906478565186
1772043723450871000,6.27187109375,0.026021745485067367,0.0011156330917030572,-0.0016130794861353933
1772043723460858000,6.281858154296875,0.02767418886721134,-0.006921725554578006,-0.01442017328487709
1772043723470844000,6.291843994140625,0.019291560447216034,0.002566233758814633,0.0014209361812099813
1772043723480831000,6.3018310546875,0.0391916081815958,-0.00997011680714786,0.005419623029092327
1772043723490817000,6.311817138671875,0.02049158388674259,0.000001790098287165165,-0.0010366221718955783
1772043723500803800,6.321803955078125,0.03245791601240635,0.010573014603741467,0.0032081301252357658
1772043723510790100,6.3317900390625,0.01749707824587822,-0.008757233886048198,-0.010413905918737873
1772043723520777000,6.34177685546875,0.024087562552094457,0.0049071708617731925,0.0019323563020676373
1772043723530763000,6.351762939453125,0.022441548910737037,0.006541603663191199,-0.007295417705178261
1772043723540750000,6.36175,0.021245617124438284,0.009243629163503646,-0.001022867641178891
1772043723550736000,6.37173583984375,0.024388006803393363,0.0019469328166916964,-0.004213918767450377
1772043723560723000,6.381722900390625,0.021544892331957815,0.0031411841025575996,-0.0024441143496427686
1772043723570709000,6.391708984375,0.030822423765063285,0.009876191445998847,-0.004700752436323091
1772043723580696000,6.401696044921875,0.027683541217446327,0.015972572092339394,-0.009135273418202996
1772043723590682000,6.41168212890625,0.019600772526860235,0.004497421017102897,-0.0024252269860822705
1772043723600669000,6.4216689453125,0.026478257080912587,-0.003334953108988702,-0.0004556348130106926
1772043723610655000,6.431655029296875,0.021392332118749618,-0.004430748989060521,-0.0023194650566671043
1772043723620642000,6.44164208984375,0.018999884024262427,-0.003276062528602779,-0.007467815130017697
1772043723630628000,6.451628173828125,0.019889526340365407,-0.005546382080763578,0.001941973513783887
1772043723640615000,6.461614990234375,0.018071078741550443,-0.0031576237807050345,0.005370769785530865
1772043723650601000,6.47160107421875,-0.03443184643387794,-0.5288310551900416,0.05001158328372985
1772043723660588000,6.481588134765625,0.09172843562662601,-0.9046597063623368,-0.09291226598317734
1772043723670573800,6.49157373046875,0.00013736264407634735,1.946227737162262,-0.03965564549677074
1772043723680561200,6.50156103515625,0.05623509744107723,1.1955367956317962,0.029374690908472983
1772043723690547000,6.511546875,0.02960135753750801,-0.9803376092895865,-0.012719515979988499
1772043723700534000,6.521533935546875,-0.015123334851860999,-1.5304671077698468,0.04472582490053027
1772043723710520000,6.53152001953125,0.022297756525874138,-0.18542283756397662,0.036572045933501794
1772043723720507000,6.5415068359375,0.03350537923872471,1.0293124334041028,-0.030662520495615898
1772043723730493200,6.5514931640625,0.04053016330897808,0.6196090582240372,-0.021555715120071543
1772043723740480000,6.56147998046875,0.023916297638416288,-0.3439848119376227,0.025749394817091525
1772043723750466000,6.571466064453125,0.013899930536746978,-0.5702754837997257,-0.0038722657229285683
1772043723760452900,6.581452880859375,0.025266543203592298,-0.037776224958337844,0.030641541639668864
1772043723770439000,6.59143896484375,0.027503508475422857,0.34410160671770573,-0.018502072303649038
1772043723780426000,6.601426025390625,0.026295886251330374,0.17895766013786196,0.0012931816156953573
1772043723790412000,6.611412109375,0.01252045887708664,-0.09623170186262577,-0.00010104922167956828
1772043723800399000,6.621399169921875,0.014170564171671866,-0.13056308359671384,-0.011415968233905732
1772043723810385000,6.631385009765625,0.03166939598321915,0.00874327842593193,0.013694461959367616
1772043723820372200,6.641372314453125,0.03286123611629009,0.057927397909574206,-0.014336769317742436
1772043723830358000,6.65135791015625,0.021324527579545973,0.02362725156396627,-0.016386020864592864
1772043723840344800,6.6613447265625,0.018478490498661994,-0.019726663928851484,0.0004321534727234393
1772043723850331100,6.6713310546875,0.021329788276553154,0.00988316917605698,-0.009212138046696782
1772043723860318000,6.68131787109375,0.008166355320811272,0.018925722809508442,0.005791780809732154
1772043723870304000,6.691303955078125,0.01624210974872112,-0.004499868702515959,0.0010777670330367982
1772043723880291000,6.701291015625,0.024170564660429952,-0.004174911064468324,0.0034623514814767983
1772043723890276900,6.71127685546875,0.027158640560507773,0.012973463341593742,-0.01664133819937706
1772043723900263200,6.72126318359375,0.01669043803811073,0.029024507497623562,-0.0012630604720674453
1772043723910250000,6.73125,0.02014087075293064,0.03560154780037701,0.0009876319310162217
1772043723920236000,6.741236083984375,0.023140052568912505,-0.036498861966282124,-0.001989648580411449
1772043723930223000,6.75122314453125,0.026430910807847974,-0.03737984605189413,0.012528633050387724
1772043723940209000,6.761208984375,0.01970072576999664,0.025090784777887166,-0.003856081773107871
1772043723950196000,6.771196044921875,0.030330840855836868,0.03593446954917162,0.0018655838093254713
1772043723960181800,6.781181640625,0.019705401945114134,-0.016710530978068707,-0.0001657302220351994
1772043723970168800,6.7911689453125,0.022108371433615683,-0.009380443818308413,-0.001241926352493465
1772043723980155000,6.80115478515625,0.020162498062849043,0.020376031215675175,0.008958501212345435
1772043723990142000,6.811141845703125,0.018229484173655507,0.01478734436314553,-0.005092062442004681
1772043724000127700,6.821127685546875,0.023624621215462684,0.0018174246855080128,0.005069284354615956
1772043724010114800,6.83111474609375,0.017799276062846182,-0.02066770763862878,-0.0009187131469603628
1772043724020100900,6.841100830078125,0.022744915771484374,-0.0007354746676981449,-0.0022305446641985326
1772043724030087700,6.851087646484375,0.025439561682939527,0.011662928732298313,-0.0042979620554018765
1772043724040074000,6.861073974609375,0.021250293299555776,0.010289594552479684,-0.0011037965234369038
1772043724050060800,6.871060791015625,0.01571370196044445,0.01015077060367912,-0.009059376904089003
1772043724060046800,6.881046875,0.022006664624810216,-0.0004386471455916762,-0.004475519712548703
1772043724070033700,6.89103369140625,0.027098434805870056,-0.009024287324398755,-0.003432549998257309
1772043724080019700,6.901019775390625,0.022169161710143086,-0.002728292452730238,-0.0011592073719482868
1772043724090006800,6.9110068359375,0.022321721923351287,0.004111198178492486,-0.002889319100184366
1772043724099992800,6.920992919921875,0.024271102425456045,0.002559146430902183,-0.002388484305422753
1772043724109980000,6.93097998046875,0.02218377475738525,0.008558679106645286,-0.005740068888803944
1772043724119965700,6.940965576171875,0.026981530427932738,0.01453311387374997,0.0026062643751036375
1772043724129953000,6.950953125,0.02055003607571125,0.011946969838067888,-0.0006086242844816297
1772043724139938800,6.960938720703125,0.021146832925081252,0.0029866511279717086,-0.0017298559999093413
1772043724149925600,6.970925537109375,0.023985855743288993,-0.017152685254998506,-0.0019664960336871445
1772043724159912000,6.980911865234375,0.017554361391067502,-0.0011835106961429118,0.0009749825119972228
1772043724169898800,6.990898681640625,0.02234510279893875,0.017778890861943362,0.005468631536280736
1772043724179884800,7.000884765625,0.020701427245140073,0.019221015961654483,0.0010371153622400016
1772043724189871900,7.010871826171875,0.027880525094270706,0.0037200799690559503,-0.005213387266732752
1772043724199857700,7.020857666015625,0.03207154704332352,-0.009629486675933004,0.0018426047925371675
1772043724209844700,7.0308447265625,0.01860065557360649,-0.02062788708489388,0.005278470125887543
1772043724219830800,7.040830810546875,0.016059154397249222,-0.006906710648536682,-0.01041786970780231
1772043724229817900,7.05081787109375,0.020095862567424773,0.006904116832651197,-0.006749063268257305
1772043724239804000,7.060803955078125,0.02308744559884071,-0.0002728255920112133,0.00009175167037174105
1772043724249789700,7.070789794921875,0.01665478220283985,-0.00869359406530857,-0.0007616868211887776
1772043724259776800,7.08077685546875,0.026531448572874067,-0.003173917328380048,0.006012574820406734
1772043724269762800,7.0907626953125,0.02443593759834766,-0.003934051513299346,-0.0005876728279981762
1772043724279750000,7.10075,0.022647300615906713,0.01583871657960117,-0.005658729014592245
1772043724289735700,7.110735595703125,0.029975451546907422,0.01186016833744943,-0.007350956417853012
1772043724299723000,7.120722900390625,0.020689152285456657,0.0054453328590840094,-0.0024816698810551313
1772043724309708800,7.130708740234375,0.019786065965890883,-0.002681421103700995,0.0007578874289058149
1772043724319695600,7.140695556640625,0.014838672691583633,0.002275434118695557,0.00007229805123060941
1772043724329682000,7.150681884765625,0.019622399836778638,0.008053323400393128,-0.00792442719056271
1772043724339668700,7.160668701171875,0.03128828771114349,-0.0017098361251875758,-0.005394515987299383
1772043724349655000,7.170655029296875,0.027096681240200995,-0.0012168284438550472,-0.006673267218843102
1772043724359641900,7.180641845703125,0.033084523478150364,0.010591061717085539,-0.0015951237043365836
1772043724369627600,7.190627685546875,0.02514671621620655,0.002058138106204569,-0.008434075479442252
1772043724379614700,7.20061474609375,0.01616203024983406,-0.002767674615047872,0.004876456063101068
1772043724389600800,7.210600830078125,0.0258808757096529,0.0035050855115056037,-0.0014021401491947471
1772043724399587800,7.220587890625,0.02753039648234844,0.0038760377157479524,0.0015367080479860304
1772043724409574000,7.230573974609375,0.03186053464114666,0.0030053192958235738,-0.0011782956649083643
1772043724419561000,7.24056103515625,0.026162615260481834,0.006070405954867601,-0.003477914376789704
1772043724429546800,7.250546630859375,0.024064181676506993,0.004640994206257164,-0.013824390215659513
1772043724439533800,7.260533935546875,0.02346446221768856,0.002407426467910409,-0.0059769007188268004
1772043724449519900,7.270519775390625,0.01912789431810379,0.00474843663610518,-0.007791265797568485
1772043724459506700,7.280506591796875,0.025407412979006765,0.008122077787667513,-0.0007887757575139403
1772043724469493000,7.290492919921875,0.02540507489144802,0.0017023469384759664,-0.001540708369668573
1772043724479479800,7.300479736328125,0.018965981754660605,0.006419913512282073,-0.00026739136506803333
1772043724489465600,7.310465576171875,0.01822597704231739,0.01376552703473717,-0.011019771990552544
1772043724499452000,7.320451904296875,0.03393500282764435,0.019652831507660447,-0.0009438110555987805
1772043724509438700,7.330438720703125,0.022414660903811452,0.01242657004855573,-0.002221082716109231
1772043724519425000,7.340425048828125,0.020629531052708625,0.0068348509887233375,-0.0051699773832689965
1772043724529411800,7.350411865234375,0.01943944448530674,0.005958323882520198,-0.002317720624152571
1772043724539397600,7.360397705078125,0.02348141335248947,-0.0008030965438112616,0.00648004620168358
1772043724549385000,7.370385009765625,0.025282909816503524,-0.0034613194350153207,0.0036795835618861016
1772043724559370800,7.380370849609375,0.024095161336660384,0.008035020558722317,-0.0013999025263357907
1772043724569357800,7.39035791015625,0.02709434315264225,0.0010492898572236299,-0.0007288622638210654
1772043724579344000,7.40034375,0.01572597692012787,0.00456873268764466,-0.003264134628791362
1772043724589331000,7.4103310546875,0.018722820648550985,0.0033148236364126202,0.0014224979506339878
1772043724599316700,7.420316650390625,0.028005028256773947,0.003669701488688588,-0.00032236382216215134
1772043724609303800,7.4303037109375,0.029652210941910742,0.0005216857865452766,-0.0052276806535664945
1772043724619289900,7.440289794921875,0.019327216282486914,0.0044086102224886415,-0.003581438683345914
1772043724629276700,7.450276611328125,0.01424012227654457,0.0042156084010377525,0.0047004510422237215
1772043724639263000,7.460262939453125,0.025766893941164014,0.006960157868824899,-0.00002006554049439728
1772043724649249800,7.470249755859375,0.02397591887116432,0.007785137450881302,-0.0024388171200174836
1772043724659235800,7.48023583984375,0.035652912661433216,-0.003996741485968232,-0.002992359349550679
1772043724669223000,7.490222900390625,0.02622808171212673,-0.003437463635392487,-0.006176222683209926
1772043724679208700,7.500208740234375,0.020240823996067046,0.006482895745895802,0.0021466840393375604
1772043724689195800,7.51019580078125,0.033110242441296574,0.00810457866359502,-0.002583997744368389
1772043724699181800,7.520181884765625,0.029070027139782902,0.008413900341093539,-0.0020348302958533167
1772043724709169000,7.5301689453125,0.022335165926814077,0.003066073039732873,-0.0020972736733499914
1772043724719155000,7.540155029296875,0.027123569247126576,0.0009616115737706422,0.0012342362363822758
1772043724729141800,7.550141845703125,0.026077275064587593,0.008119703167490661,0.00002667794437147677
1772043724739127800,7.5601279296875,0.021585808864235875,-0.003038819706626236,0.0009975688031408935
1772043724749113900,7.57011376953125,0.02591886963248253,0.0024309169413521885,0.0017704528717789798
1772043724759101000,7.580100830078125,0.02934942860305309,0.005478906335122883,-0.006455651545943692
1772043724769086700,7.590086669921875,0.024264088162779807,-0.0019169395372271537,-0.004068838607799261
1772043724779073800,7.60007373046875,0.030851649859547612,0.014750665614567697,-0.004806660496210679
1772043724789059800,7.610059814453125,0.019330723413825034,0.0010886354869231582,0.001437878182856366
1772043724799046700,7.620046630859375,0.02487783614695072,-0.0007331000475212931,0.0028471878583543
1772043724809033000,7.630032958984375,0.02443301498889923,0.00009673837274312972,-0.003953888724930584
1772043724819019800,7.640019775390625,0.025482816302776334,-0.0023242051638662814,0.0018179818079341202
1772043724829005800,7.650005859375,0.01575169588327408,0.0004558905413374305,-0.005497072179475799
1772043724838993000,7.659992919921875,0.020230302602052688,0.005752279916405678,-0.001257872840296477
1772043724848978700,7.669978759765625,0.024570962154865265,0.0035263840278610585,0.004147228473098948
1772043724858965800,7.6799658203125,0.0369955594420433,0.001663330102339387,-0.003110816363757476
1772043724868951800,7.689951904296875,0.02083937441110611,-0.0015596139995381236,-0.001204453019471839
1772043724878939000,7.69993896484375,0.007968786922097206,0.003693703418783843,-0.001253735521296039
1772043724888925000,7.709925048828125,0.03191021900177002,0.0056419148771092295,-0.00403588618626818
1772043724898911700,7.719911865234375,0.0179945063740015,-0.0008138371335342526,-0.0007097374382428824
1772043724908897800,7.729897705078125,0.016346154645085334,0.0008597221018746495,0.005245609035901725
1772043724918884900,7.739884765625,0.02009644708931446,0.0005416691286489367,-0.007395617543486878
1772043724928871000,7.749870849609375,0.024589666855335233,-0.006404277551732957,0.0018097345693968234
1772043724938857700,7.759857666015625,0.015015782824158668,0.000864032950811088,0.0020670246655587108
1772043724948843800,7.76984375,0.023545126238465306,0.005194244174845516,-0.007475824906537309
1772043724958829800,7.779829833984375,0.02938917609155178,-0.0021506752278655766,-0.0017327603430487214
1772043724968817000,7.78981689453125,0.026996143475174903,-0.004247537909261882,0.0024927209980320185
1772043724978803000,7.799802978515625,0.02190904946923256,0.006212883165478706,-0.007636120901629328
1772043724988790000,7.8097900390625,0.01622398957014084,0.003964629314653575,-0.001303556879237294
1772043724998776000,7.819776123046875,0.01876782883405685,0.0003825330441817641,-0.0012181253517977893
1772043725008763000,7.829762939453125,0.025202245795726774,-0.005447451750934124,0.00693626553658396
1772043725018749000,7.8397490234375,0.03358779682517052,-0.002248071187734604,-0.00705433895830065
1772043725028736000,7.849736083984375,0.010386953979730605,0.013452734758518636,-0.00006122866794466973
1772043725038722000,7.85972216796875,0.025650574085116385,0.002379588612914085,-0.0057957080661784855
1772043725048708900,7.869708984375,0.03387947324812412,-0.0012006079614162444,0.00008874686253257095
1772043725058695000,7.87969482421875,0.03417816393375397,0.0047903030164539815,0.0032769758440554142
1772043725068682000,7.889681884765625,0.02833645216822624,0.003700608083605766,0.001329723366955295
1772043725078667800,7.899667724609375,0.02428746903836727,-0.00046856735982000824,-0.0102471801828593
1772043725088655000,7.909655029296875,0.023987609308958054,0.007050868359580635,-0.008921621534368023
1772043725098641000,7.919640869140625,0.030420272704958912,0.007842420596070588,0.0009875040668528526
1772043725108628000,7.9296279296875,0.021445523610711097,-0.0002817030182108283,-0.0019710352114867416
1772043725118614000,7.939614013671875,0.02533668583035469,-0.0022177856473252176,0.001801852657040581
1772043725128600800,7.949600830078125,0.021750059515237806,-0.0036305385220795866,0.0037688510142266747
1772043725138587000,7.9595869140625,0.014416063365340232,-0.000005699088424444198,-0.0011726148427929728
1772043725148573000,7.969572998046875,0.018902268868684766,-0.0012880670491605996,-0.00612885814383626
1772043725158560000,7.97956005859375,0.01845160249173641,0.0005270926140248775,-0.0057756516588386144
1772043725168546000,7.989546142578125,0.025038579666614533,0.0030185075709596274,-0.0007076276795472949
1772043725178532900,7.999532958984375,0.025488076999783515,0.00946183849144727,-0.0018988741575740277
1772043725188519000,8.009518798828125,0.020999533408880233,0.004519705914147198,0.001104317113244906
1772043725198506000,8.019506103515624,0.01845861675441265,0.0020719109032303093,-0.0059388793965335935
1772043725208492000,8.029491943359375,0.03102349929511547,-0.0014218494966626166,-0.007841954805189743
1772043725218478800,8.039478759765625,0.024590251377224922,0.0005120777079835534,-0.0032448454064317044
1772043725228465000,8.04946484375,0.018906945043802262,0.004622106842696667,0.005316126121999696
1772043725238452000,8.059451904296875,0.027889292922616004,0.002730411344580352,-0.008343392388150095
1772043725248437800,8.069437744140625,0.02520633744895458,0.009420300904661416,-0.002626339048752561
1772043725258425000,8.079425048828124,0.022511691537499427,0.00002268675584346056,-0.008249430494382978
1772043725268411000,8.089410888671875,0.028047698354721068,0.0015239946968853473,-0.008668066898407415
1772043725278398000,8.09939794921875,0.02580722595155239,0.015356120694428682,0.006037124739773571
1772043725288384000,8.109384033203124,0.027308862686157225,-0.00016585808619856834,-0.003703274964727461
1772043725298370800,8.119370849609375,0.03254033359885215,-0.003959697411209344,0.002442369917128235
1772043725308357000,8.129357177734375,0.030892566391825676,0.007419993932917713,-0.0007939268566668033
1772043725318344000,8.139343994140624,0.027599954587221143,0.0006692044984549283,-0.00008503880179487169
1772043725328330000,8.149330078125,0.026263153025507927,-0.003221848123334348,-0.005346228999318555
1772043725338316000,8.15931591796875,0.031356092250347134,0.004325973440334201,-0.00451681983731687
1772043725348302800,8.169302734375,0.02118482684791088,0.0027666517017409203,-0.002030930438870564
1772043725358289000,8.179288818359375,0.028362755653262135,0.004211772476136684,-0.004082556605897843
1772043725368276000,8.18927587890625,0.029556933873891827,0.003659764616563916,-0.004016432567127049
1772043725378262000,8.199261962890626,0.023578443986177443,0.0038233211478218435,-0.001264704439882189
1772043725388248800,8.209248779296875,0.026714988446235655,0.0006521072331815957,0.0046213213914074
1772043725398235000,8.21923486328125,0.021327450188994405,-0.004121902235597372,-0.0012480820986442267
1772043725408222000,8.229221923828124,0.02671615749001503,-0.007477130947634577,-0.005423687282856553
1772043725418208000,8.2392080078125,0.01878711805641651,-0.0010687617426738143,-0.0012275507672689855
1772043725428195000,8.249195068359375,0.017146949633955955,-0.005349617399647831,0.004170746346004307
1772043725438180900,8.259180908203126,0.022828502401709555,-0.005259381832927465,-0.00019810725483112036
1772043725448168000,8.26916796875,0.018633973321318626,0.0020079788215458393,-0.004038598733162507
1772043725458154000,8.279154052734375,0.024769115075469014,0.010243819181993604,0.002313628970924765
1772043725468140800,8.289140869140626,0.034200375765562056,-0.0017975144086405633,0.0017168412547092884
1772043725478127000,8.299127197265625,0.0276192438095808,0.0020494798757135866,-0.0032598055135458705
1772043725488114000,8.309114013671875,0.017891630521416662,0.0031091449964791534,0.0033516667817719277
1772043725498100000,8.319099853515626,0.02417640987932682,-0.0033273543244227767,-0.004849668520875275
1772043725508086000,8.3290859375,0.020437807872891425,-0.00020034487769007682,-0.005174644425231963
1772043725518072800,8.33907275390625,0.02553016257584095,-0.0019348405200988053,-0.004402737604128197
1772043725528059000,8.349058837890626,0.02568213826715946,0.0001264759238809347,-0.002554251060076058
1772043725538046000,8.3590458984375,0.01940320412814617,0.006020137072354555,-0.00426439771251753
1772043725548032000,8.369031982421875,0.026734277668595312,0.00679685706589371,-0.005965164615260437
1772043725558018800,8.379018798828126,0.030621932756900786,0.0022385727070271966,0.001370539434533566
1772043725568004900,8.3890048828125,0.01730535506606102,0.0016327523009851575,-0.0038298696196172382
1772043725577992000,8.398991943359375,0.022101357170939445,0.01093994821999222,-0.006021890638023614
1772043725587978000,8.40897802734375,0.024648119044303893,0.008341492692008614,0.004464906986989081
1772043725597965000,8.418965087890625,0.01970949359834194,0.008798040820471942,-0.0038037579308263956
1772043725607950800,8.428950927734375,0.027635610422492025,-0.005618059077486396,-0.006844504733057692
1772043725617938000,8.43893798828125,0.027342764955759047,-0.008243183416686952,0.0041693307070527225
1772043725627924000,8.448924072265624,0.028693010520935057,0.005477700758725405,-0.0037241898885928093
1772043725637910000,8.458909912109375,0.032279636836051936,0.009292655937001109,-0.005040861977729946
1772043725647897000,8.46889697265625,0.026139818906784056,-0.007222936990857124,0.0013755261369049548
1772043725657883000,8.4788828125,0.016272504886984823,-0.006484210920147598,0.0034827366823796183
1772043725667870000,8.488869873046875,0.027054011142253875,-0.008264007009007037,-0.009288217223901302
1772043725677856000,8.49885595703125,0.03393441830575466,-0.00042133068460971113,-0.003498500507092103
1772043725687842800,8.5088427734375,0.023307225829362867,0.011911898524686694,0.005306581975519657
1772043725697829000,8.5188291015625,0.011778700599074363,-0.002492912794277072,-0.005501017702231183
1772043725707816000,8.52881591796875,0.03063479223847389,0.003169643012061715,0.0019588150507304815
1772043725717802000,8.538802001953124,0.028531097957491872,0.009452340010739862,-0.008412840895168482
1772043725727788800,8.548788818359375,0.03031973493993282,0.0016274550713598727,-0.0012549502308480441
1772043725737774800,8.55877490234375,0.016847089904546735,-0.008161971406638623,-0.0018022362495306878
1772043725747762000,8.568761962890624,0.019835165804624556,0.009133446787297725,0.0012186002758331597
1772043725757748000,8.578748046875,0.027464930030703542,-0.0010210866760462522,-0.008331263558939098
1772043725767735000,8.588735107421876,0.023574352332949636,-0.007606748676672577,0.0012918207756709306
1772043725777720800,8.598720947265624,0.024170564660429952,-0.0015729849377647041,-0.005182973862159997
1772043725787708200,8.608708251953125,0.018187398597598076,-0.011788929732143879,-0.0008461959000211209
1772043725797694000,8.61869384765625,0.020427286478877066,-0.008123100700974464,-0.0018616474197246133
1772043725807680000,8.628679931640624,0.030152561679482458,0.006271225756593048,-0.002321355619654059
1772043725817667000,8.6386669921875,0.026859949874877928,0.023960209845378992,-0.009672695629997178
1772043725827652900,8.64865283203125,0.025212182667851447,0.01620221612975001,-0.013498619726859033
1772043725837640000,8.658639892578124,0.027905659535527226,-0.004768091184645891,-0.0019790815206244586
1772043725847626000,8.6686259765625,0.01878361092507839,-0.0071007719159126275,-0.004780366144329309
1772043725857612800,8.67861279296875,0.019828736063838004,0.007296477151103317,-0.0023633589973207562
1772043725867599000,8.68859912109375,0.020424363869428634,0.0000030322073027491566,0.0014687665114644915
1772043725877586000,8.6985859375,0.028505378994345663,-0.003783244865760207,-0.0035516737327445295
1772043725887572000,8.708572021484375,0.022676526710391044,-0.0012138327691704033,-0.008361229438940063
1772043725897559000,8.71855908203125,0.019988310539722443,-0.0023668387291952966,-0.007244427303457633
1772043725907544800,8.728544921875,0.020287585747241973,-0.0005989888064563275,-0.0012157872642390428
1772043725917532000,8.738531982421875,0.023130115696787832,-0.004191606470942497,-0.006551924127805977
1772043725927518000,8.74851806640625,0.029112697237730023,-0.0012803951993584633,-0.007379333128966391
1772043725937505000,8.758505126953125,0.023277999734878537,-0.0032531200444325804,0.000447725501190871
1772043725947490800,8.76849072265625,0.02342471472918987,-0.008176511388644576,-0.003395542456116527
1772043725957476900,8.778476806640626,0.02387128945291042,-0.007088716151937842,-0.010961712527228518
1772043725967463700,8.788463623046875,0.018036591950058935,-0.0008387523790821433,-0.0027922245344147085
1772043725977450000,8.798449951171875,0.018930325919389722,-0.004366378515958786,-0.0034925730898045003
1772043725987436800,8.808436767578126,0.022667758882045745,0.004191935264505446,-0.0038787867952603844
1772043725997422800,8.8184228515625,0.025512042397260664,0.0019036781968548894,0.001200361366244033
1772043726007410000,8.828409912109375,0.020123335096240043,0.005224383584782481,0.007056393918069079
1772043726017395700,8.838395751953126,0.027599954587221143,-0.0009342121101915835,-0.002828766285674646
1772043726027382800,8.8483828125,0.0223603003680706,0.010329013247415423,-0.0019512071330100296
1772043726037368800,8.858368896484375,0.025506197178363797,0.005620433697663248,-0.0041712486695032564
1772043726047356000,8.86835595703125,0.018921558091044424,-0.004207132833637297,-0.010369253926258534
1772043726057341700,8.878341796875,0.018620529317855832,-0.003125621207244694,0.0006931972953956574
1772043726067329000,8.8883291015625,0.021168460234999655,-0.0004744125787168741,-0.00010257445848546922
1772043726077314800,8.898314697265626,0.027149288210272786,0.010070800702646375,-0.0034862438137177377
1772043726087300900,8.90830078125,0.022802783438563345,-0.00250431097112596,-0.009963951927842572
1772043726097288000,8.918287841796875,0.03312368644475937,0.000995331180281937,-0.0007642806370742618
1772043726107273700,8.928273681640626,0.019810031363368032,0.007064896884933114,-0.009307844372978434
1772043726117261000,8.938260986328125,0.016814941200613973,-0.004706935581937432,-0.008313545239157975
1772043726127246800,8.948246826171875,0.02055997294783592,-0.008805347344093025,-0.0026170871632173656
1772043726137233700,8.958233642578126,0.019514847809076308,-0.001959573102556169,-0.009989743956224992
1772043726147220000,8.968219970703124,0.03058919953107834,0.008789638318307697,-0.002291718533216044
1772043726157206800,8.978206787109375,0.02564940504133701,0.0038646030062809583,-0.005498633948899805
1772043726167192800,8.98819287109375,0.016077274575829505,-0.004167129616811871,-0.008243758805422111
1772043726177180000,8.998179931640625,0.01937280898988247,-0.0029938480537384745,-0.0029306648907251654
1772043726187165700,9.008165771484375,0.02446341012716293,0.005946085455454886,-0.0015764920691028236
1772043726197152800,9.01815283203125,0.02671265035867691,-0.0017997794309630988,-0.00365499710990116
1772043726207138800,9.028138916015624,0.02701543269753456,-0.0021784400176256893,-0.006096499377349391
1772043726217124900,9.038124755859375,0.032251579785346984,0.00038351942487061024,-0.008329637857433408
1772043726227112000,9.04811181640625,0.02432370939552784,0.004245893941447139,-0.004396280463878065
1772043726237097700,9.05809765625,0.0220727155983448,0.011080671864934265,-0.0011919771303888409
1772043726247084800,9.068084716796875,0.02746025385558605,-0.005242211502417922,-0.001294935181364417
1772043726257070800,9.07807080078125,0.025957448077201843,-0.004406856656819582,-0.002045835747057572
1772043726267058000,9.088057861328124,0.027156886994838713,-0.005067366392165422,-0.0024916432857979088
1772043726277043700,9.098043701171875,0.031500469157099725,0.003392382384650409,-0.004618124787323177
1772043726287031000,9.108031005859376,0.02791208927631378,-0.0026509163675829768,-0.004763652471546084
1772043726297016800,9.118016845703124,0.02358253563940525,-0.0010365399735048414,-0.008228369440045208
1772043726307003600,9.128003662109375,0.021937106519937515,0.004796403963677585,-0.0009390435489360242
1772043726316990000,9.137989990234376,0.027169161954522132,-0.0006309548472985625,-0.008187334176758303
1772043726326976800,9.147976806640624,0.024780220991373062,-0.0020739567298442125,-0.006116491852607577
1772043726336962800,9.157962890625,0.016546061131358147,-0.004095416087470948,-0.002500822106096893
1772043726346948900,9.167948974609375,0.020740590211749076,-0.00043024464342743154,-0.004074921288713813
1772043726356935700,9.177935791015624,0.025680969223380087,-0.0007606456415727734,-0.006827051274757832
1772043726366922000,9.187921875,0.026730770537257195,-0.0033460590248927473,-0.003992485435958952
1772043726376908800,9.19790869140625,0.024490298134088515,-0.0032779622247442602,-0.005407402868336067
1772043726386894800,9.207894775390624,0.0253927999317646,-0.003522876896522939,0.003930745311360806
1772043726396882000,9.2178818359375,0.02179740578830242,0.0043199455583468075,-0.0006380604415200651
1772043726406867700,9.22786767578125,0.0334621246188879,-0.0006544818533584475,0.003618775019049644
1772043726416854800,9.237854736328124,0.021188333979248998,-0.002656725053861737,-0.012556808832101524
1772043726426840800,9.2478408203125,0.023583704683184624,-0.001464227333664894,-0.0008196275535039603
1772043726436826600,9.25782666015625,0.017148118677735327,-0.0008490180447697638,-0.010231644687009975
1772043726446813000,9.26781298828125,0.03210895644426345,0.0068407327402383086,-0.012045242580771446
1772043726456799700,9.2777998046875,0.023429390904307363,0.008937960747815669,-0.0022878004099242386
1772043726466785800,9.287785888671875,0.023580197551846503,-0.0033799978271126744,-0.00018473631660453975
1772043726476772900,9.29777294921875,0.02403261749446392,0.002236088488996029,-0.002247349668527022
1772043726486758700,9.307758544921874,0.03570084345638752,0.0006500248739495873,-0.008772632384579628
1772043726496745700,9.317745849609375,0.02177870108783245,0.002108187793008983,-0.0035930012569762764
1772043726506731800,9.327731689453126,0.02446399464905262,-0.0037401363763958214,0.0027631537035573274
1772043726516718800,9.33771875,0.014885434442758558,-0.0017780425231903791,-0.00775123518127948
1772043726526705000,9.347704833984375,0.0204214412599802,-0.0023741817854344843,-0.009328421370126306
1772043726536692000,9.35769189453125,0.01997837366759777,0.0018222104584798215,-0.003295744476607069
1772043726546677800,9.367677734375,0.015794950503110885,0.004665032668970525,0.003045112450094893
1772043726556663800,9.377663818359375,0.0228396083176136,0.002794927948154509,-0.0019553444520104676
1772043726566651000,9.38765087890625,0.024189269360899924,-0.000548792989179492,-0.003777573176799342
1772043726576636700,9.39763671875,0.027481296643614768,-0.006985474973171949,-0.002761235741106793
1772043726586624000,9.4076240234375,0.015364157870411873,-0.004028707526810467,-0.003187370464997366
1772043726596609800,9.41760986328125,0.025088848549127577,-0.004018478393740952,-0.006356483754096552
1772043726606596600,9.4275966796875,0.035111060869693754,0.00413147378154099,-0.005014165767049416
1772043726616583000,9.4375830078125,0.021191256588697433,0.001792582505196333,-0.0037721572161652146
1772043726626569700,9.44756982421875,0.02029460000991821,-0.0031652225652709603,-0.006929433936998248
1772043726636556000,9.45755615234375,0.03495850065648556,0.0019213599840179085,-0.006156906061386689
1772043726646542800,9.46754296875,0.012818565040826797,-0.0033041926445439456,-0.0019655461856164036
1772043726656528600,9.477528564453126,0.022544424763321875,-0.00344484322424978,-0.00043811742262914774
1772043726666515000,9.487514892578124,0.028980595290660858,0.001581679700873792,0.0021231296338140963
1772043726676501800,9.497501708984375,0.023753216031193732,-0.003540010694414377,-0.0032161855675280093
1772043726686487800,9.50748779296875,0.028248189362883567,-0.0009956599738448857,0.0043223110453691335
1772043726696475000,9.517474853515624,0.024657471394538878,-0.0010121727172285318,-0.011212618548376485
1772043726706460700,9.527460693359375,0.020770400828123092,-0.005092098974622786,-0.009510353808291256
1772043726716447700,9.53744775390625,0.014794249027967452,-0.001073437917791307,-0.004753925661975518
1772043726726433800,9.547433837890624,0.01929331401288509,-0.007517828284204006,-0.0019020616285037248
1772043726736420900,9.5574208984375,0.02872808183431625,-0.008096504954993724,-0.003168346104118973
1772043726746407000,9.567406982421875,0.03216507054567337,-0.0009761880883947014,-0.002006864576693624
1772043726756394000,9.57739404296875,0.034110943916440005,-0.0027780133459717033,-0.003675364044494927
1772043726766379800,9.5873798828125,0.022442133432626722,-0.007743782527185976,-0.001536461452813819
1772043726776366600,9.59736669921875,0.029627076500654218,0.0011926073180511592,0.0009594287498388439
1772043726786353000,9.607352783203124,0.019912322694063185,0.0006836348826065659,0.0034648356995079666
1772043726796338700,9.617338623046875,0.016631401327252385,-0.0005561360454186797,-0.013033148506423458
1772043726806326000,9.627325927734375,0.017082067704200742,-0.0025101927226409315,-0.004675955921784043
1772043726816311800,9.637311767578124,0.02516016021966934,0.0003895838394761085,0.006488320839684456
1772043726826298600,9.647298583984375,0.023359248277544972,-0.008645882466062902,-0.0030779552737716584
1772043726836285000,9.657284912109375,0.022160978403687477,-0.0031008886247873304,0.002536843267548829
1772043726846271700,9.667271728515624,0.022459084567427633,-0.0012841215264052153,-0.004324603467155247
1772043726856258800,9.6772587890625,0.02335632566809654,-0.0014329554125666617,-0.0048663730605039745
1772043726866244900,9.687244873046875,0.024708909320831297,0.0007130801727995276,-0.00926583186215721
1772043726876232000,9.69723193359375,0.034434769043326374,-0.0025746362609788773,-0.0023807028577663004
1772043726886217700,9.7072177734375,0.029642858591675758,0.0006399784039705992,-0.0009022004035767168
1772043726896204800,9.717204833984376,0.020066636472940443,0.0064598071312531825,-0.003848683917941525
1772043726906190800,9.72719091796875,0.026802666729688642,0.0025089140810072423,-0.009015976153779774
1772043726916177700,9.737177734375,0.025753449937701223,-0.00030599720925092693,0.004026880895905196
1772043726926164000,9.7471640625,0.019773791006207464,-0.0004050371369346976,-0.006180305203283205
1772043726936149800,9.757149658203126,0.020375848552584647,-0.003033485944382846,-0.002334032438136637
1772043726946136800,9.76713671875,0.020972645401954648,-0.014233071481250225,0.000865713451243937
1772043726956123000,9.777122802734375,0.02650222247838974,0.0035385493896901606,0.0022933442347217348
1772043726966110200,9.787110107421874,0.01902034229040146,0.00488609154112637,0.00486883901222609
1772043726976096500,9.797096435546875,0.031145664370059965,0.0016522607190534472,-0.003957934712385759
1772043726986083300,9.807083251953125,0.03623217385411262,0.0015111717479303478,-0.00447404927466996
1772043726996069400,9.8170693359375,0.029194530302286147,0.0013149550560861826,-0.012618859483953564
1772043727006056200,9.82705615234375,0.03008943331539631,0.0013839286390691995,0.0027970651063136754
1772043727016042200,9.837042236328125,0.02755143927037716,-0.002149981108121574,-0.0002654916689265519
1772043727026028300,9.8470283203125,0.024404957938194274,-0.003429755252972245,0.0042614933693781495
1772043727036015400,9.857015380859375,0.029487375769019126,-0.00364102338347584,-0.003761763686314225
1772043727046001400,9.86700146484375,0.024998247656226158,-0.0009452449608594179,0.0002878404980525374
1772043727055988200,9.87698828125,0.02784019308388233,-0.004360862090624869,-0.0007923011551611125
1772043727065974300,9.886974365234375,0.02005728412270546,-0.002970101851969957,-0.007003175026644021
1772043727075961300,9.89696142578125,0.031125206103920933,0.0010042816717177629,-0.0000676310092676431
1772043727085947400,9.906947509765626,0.02678630011677742,-0.0007756970802322029,-0.005272296113427728
1772043727095934500,9.9169345703125,0.01839899552166462,-0.0015477408986538648,-0.000574493686016649
1772043727105920300,9.926920166015625,0.02632277425825596,0.0014086977541446686,-0.008250416875071822
1772043727115907300,9.9369072265625,0.0236281283468008,-0.001279408818669617,-0.0037871355895884333
1772043727125893400,9.946893310546875,0.03305120573043823,-0.003472534948773682,-0.004128003182820975
1772043727135879200,9.956879150390625,0.02227788278162479,0.006239186650514602,-0.0034867096045985814
1772043727145866500,9.966866455078126,0.017044073781371117,0.002129851635545492,0.0011770261564292013
1772043727155852300,9.976852294921875,0.026466566643118857,0.001152896362170577,-0.002194998426781967
1772043727165839400,9.98683935546875,0.026764088284969328,-0.004949987090192735,-0.0010985084269661456
1772043727175825400,9.996825439453126,0.023618775996565818,-0.0013117036530748008,-0.003947029725881293
1772043727185812200,10.006812255859375,0.014191606959700584,0.0004810980478301644,-0.004634874992724507
1772043727195798300,10.01679833984375,0.025565233889222144,-0.003865808582678437,-0.002479331793496385
1772043727205785300,10.026785400390626,0.02391805120408535,-0.001899221217446029,-0.002357997835613787
1772043727215771400,10.036771484375,0.027960604593157766,0.0028377807091921566,-0.010825573725858703
1772043727225758200,10.04675830078125,0.02542202602624893,-0.0004448942232877016,0.005728743777191266
1772043727235744300,10.056744140625,0.027819150295853613,-0.0008165040146559476,0.0007612849623896181
1772043727245730300,10.066730224609374,0.030202830561995506,-0.004797974866256117,-0.0023192184614948927
1772043727255717400,10.07671728515625,0.022123569002747534,-0.007045169271156192,0.004469473564252257
1772043727265703400,10.086703369140626,0.02736088513433933,-0.0020930998217314483,-0.0011627510359045118
1772043727275690200,10.096690185546874,0.02690612710416317,0.0014641542684286832,0.00011189940925687551
1772043727285676300,10.10667626953125,0.025265374159812927,-0.0007495397256687283,-0.00004682568325661123
1772043727295663400,10.116663330078126,0.023621114084124564,-0.00048650487530976533,0.0024059468968771398
1772043727305649400,10.1266494140625,0.025568741020560264,0.003674048870243132,-0.0005312573324888944
1772043727315636500,10.136636474609375,0.02736614583134651,-0.0003967077000066638,-0.0005598167066927999
1772043727325622300,10.146622314453126,0.017341010901331902,-0.0057823462611064315,-0.00434345429809764
1772043727335608300,10.1566083984375,0.02526829676926136,-0.003922178412415087,-0.0016423238469287752
1772043727345595400,10.166595458984375,0.023024901756644248,0.0029177506102249025,0.0002498739746864885
1772043727355581200,10.176581298828125,0.01614332554936409,-0.004309789490513504,0.0007557228712830693
1772043727365568500,10.186568603515624,0.022135843962430953,-0.011162431864254176,-0.007047936616977677
1772043727375554300,10.19655419921875,0.018695932641625404,-0.0030919016007333994,-0.0036005087099969385
1772043727385541400,10.206541259765626,0.016607435929775236,-0.0009631824763491749,-0.00005204984764568508
1772043727395527400,10.21652734375,0.027829671689867972,-0.01320325350947678,0.0018240644888486712
1772043727405514200,10.22651416015625,0.024538228929042814,0.001766498215869069,-0.00592832146990113
1772043727415500300,10.236500244140625,0.02439852819740772,0.007861965546756982,-0.0066728379605803636
1772043727425487400,10.2464873046875,0.023802315869927405,0.0030369930757209655,-0.004768173383036628
1772043727435473400,10.256473388671875,0.027696400699019432,-0.008379377016983925,-0.003040281011350453
1772043727445459500,10.26645947265625,0.02514846978187561,-0.006098097679391503,-0.004775461640348658
1772043727455446300,10.2764462890625,0.029328385815024373,-0.00007006956152617931,-0.005409037702996284
1772043727465432300,10.286432373046875,0.017193126863241193,-0.0034511268345639107,0.0004230294513516128
1772043727475419400,10.29641943359375,0.022724457505345342,-0.014540493462607263,-0.007986413910333067
1772043727485405200,10.3064052734375,0.02676876446008682,-0.009781352769397199,0.003970757661340758
1772043727495392300,10.316392333984375,0.02751636795699596,0.0010084829227998851,-0.005769833839405328
1772043727505378300,10.32637841796875,0.02467909870445728,0.004765095509961247,0.0005405183511786163
1772043727515365400,10.336365478515624,0.02393149520754814,0.00608896452486515,-0.0025187322221230713
1772043727525351200,10.34635107421875,0.038295536124706264,-0.013230762570910154,-0.006215860573854297
1772043727535337200,10.356337158203125,0.03680909695923328,-0.00015285247415304184,0.014174116968782617
1772043727545324300,10.36632421875,0.019605448701977727,0.017968458617292342,-0.010620306077878922
1772043727555310300,10.376310302734375,0.04714052135944366,0.005197203316912055,-0.012904179231356828
1772043727565297400,10.38629736328125,0.024849194574356078,-0.02825564201697707,0.02326977989580482
1772043727575283200,10.396283203125,0.024252982246875762,0.0038625571796670555,-0.030524518530722706
1772043727585270500,10.4062705078125,0.03263034996986389,0.01766107316855341,0.034804862731043246
