time,seconds_elapsed,z,y,x
1772043717229258500,0.050258544921875,0.0007877685129642487,-0.0014350538840517402,-0.0010980903171002865
1772043717239244500,0.06024462890625,-0.0026740748435258865,0.0019785859622061253,-0.0012656031176447868
1772043717249231400,0.0702314453125,0.0019761575385928154,0.0020094614010304213,0.0007717348635196686
1772043717259218400,0.080218505859375,0.00021500885486602783,0.0014211691450327635,-0.001969723030924797
1772043717269204500,0.09020458984375,-0.00222192145884037,0.0006333747878670692,0.0004783750046044588
1772043717279191600,0.100191650390625,-0.00014731939882040024,0.0018006382742896676,0.00042351381853222847
1772043717289177300,0.11017724609375,-0.0009430563077330589,0.0003677660133689642,0.00014527584426105022
1772043717299164400,0.120164306640625,-0.0023233722895383835,-0.000617869955021888,0.0007681890856474638
1772043717309150500,0.130150390625,-0.00014653895050287247,0.0037139945197850466,0.00016913330182433128
1772043717319137300,0.14013720703125,0.0006556054577231407,0.0019959891214966774,-0.00011822185479104519
1772043717329124400,0.150124267578125,0.0003618411719799042,-0.001048660953529179,-0.0010242764838039875
1772043717339110400,0.1601103515625,0.00033920444548130035,0.0009034360991790891,0.00008679414168000221
1772043717349097500,0.170097412109375,-0.0015970505774021149,-0.0005275112926028669,0.0018232966540381312
1772043717359083500,0.18008349609375,-0.00004123244434595108,-0.0018617550376802683,0.0006589626427739859
1772043717369070600,0.190070556640625,0.000010707415640354156,0.0008137187105603516,0.0023724636994302273
1772043717379056400,0.200056396484375,0.00009805988520383835,-0.0013216037768870592,-0.0021245498210191727
1772043717389043500,0.21004345703125,0.0010998714715242386,0.0020297025330364704,0.0012990045361220837
1772043717399029500,0.220029541015625,-0.0006841793656349182,0.003013740526512265,0.000145589467138052
1772043717409016300,0.230016357421875,-0.0006601251661777496,0.0014956125523895025,-0.0022744378075003624
1772043717419003400,0.24000341796875,-0.0005256356671452522,0.0011374173918738961,-0.0011479207314550877
1772043717428989400,0.249989501953125,0.0009441031143069267,-0.00012087944196537137,0.001362992450594902
1772043717438976500,0.2599765625,-0.0027291951701045036,0.0009459828725084662,-0.0006215949542820454
1772043717448962600,0.269962646484375,-0.0021763574331998825,-0.0009059620788320899,-0.00000650063157081604
1772043717458949600,0.27994970703125,0.0002977196127176285,0.00023174035595729947,0.002304590307176113
1772043717468935400,0.289935302734375,-0.0011397628113627434,0.0007587072323076427,0.0015543856425210834
1772043717478922200,0.299922119140625,-0.000053726136684417725,-0.00018405175069347024,-0.0004906556569039822
1772043717488909600,0.30990966796875,-0.0013310620561242104,-0.0002544907620176673,-0.001142315100878477
1772043717498895400,0.319895263671875,0.0013044029474258423,0.001954867737367749,0.0006057836581021547
1772043717508882400,0.32988232421875,0.0006813602522015572,-0.00038468820275738835,0.0008565320167690516
1772043717518868500,0.339868408203125,0.0022206678986549377,-0.0009623278747312725,0.001681579276919365
1772043717528855600,0.34985546875,0.004625051282346249,-0.00038162764394655824,0.0006093736737966537
1772043717538841600,0.359841552734375,0.00042791012674570084,0.0004631270421668887,0.00010417192243039608
1772043717548828400,0.369828369140625,0.0020733950659632683,0.0006976204458624125,-0.00026918621733784676
1772043717558814500,0.379814453125,0.00031890440732240677,0.0012776568764820695,-0.0009621409699320793
1772043717568801300,0.38980126953125,0.0005545169115066528,-0.000884907494764775,0.0013548466376960278
1772043717578788600,0.39978857421875,0.0008645085617899895,0.0023319246247410774,0.0020363496150821447
1772043717588774400,0.4097744140625,0.00010677054524421692,0.0003260162484366447,-0.0005412632599473
1772043717598761500,0.419761474609375,0.001455661840736866,0.002913010772317648,0.003217788413167
1772043717608747500,0.42974755859375,0.003773060627281666,0.002638566307723522,-0.00021847384050488472
1772043717618734300,0.439734375,0.0015618382021784782,-0.00040595955215394497,0.0007551778107881546
1772043717628720600,0.449720703125,0.0009084893390536308,0.0013106369879096746,-0.0006485367193818092
1772043717638707500,0.45970751953125,0.0004767905920743942,-0.0028513511642813683,-0.0007156482897698879
1772043717648694500,0.469694580078125,0.0017495639622211456,0.00037356824032031,0.0005556168034672737
1772043717658680300,0.479680419921875,0.0007567368447780609,-0.0017612217925488949,-0.0023062159307301044
1772043717668667600,0.489667724609375,-0.0012085400521755219,-0.0006964592612348497,0.0015073086833581328
1772043717678653400,0.4996533203125,0.00018669012933969498,-0.000932415307033807,-0.00047008832916617393
1772043717688640300,0.50964013671875,0.000642712228000164,-0.00008937582606449723,-0.00222964771091938
1772043717698626600,0.51962646484375,-0.0006585083901882172,0.0020526046864688396,0.00043830694630742073
1772043717708613400,0.52961328125,0.0008722087368369102,0.00004168698797002435,0.0017744911601766944
1772043717718600400,0.539600341796875,0.0011020395904779434,0.00028509992989711463,0.00042959488928318024
1772043717728586500,0.54958642578125,-0.001627182587981224,-0.003017342882230878,0.0024391706101596355
1772043717738573600,0.559573486328125,-0.0013038739562034607,0.0012407854665070772,-0.001884737517684698
1772043717748559400,0.569559326171875,-0.00021455902606248856,-0.0010240946430712938,0.00018292502500116825
1772043717758546400,0.57954638671875,0.0012408578768372536,0.0017019170336425304,0.0009973198175430298
1772043717768532500,0.589532470703125,-0.001444314606487751,-0.00012108194641768932,-0.001983547117561102
1772043717778519300,0.599519287109375,-0.00009036343544721603,-0.0026446934789419174,-0.0008660848252475262
1772043717788506600,0.609506591796875,-0.0016691088676452637,-0.0008155537070706487,-0.0012262137606739998
1772043717798492400,0.619492431640625,-0.0005513802170753479,-0.002349268179386854,-0.0012680254876613617
1772043717808479500,0.6294794921875,-0.000060916878283023834,0.0009288832079619169,-0.0022089271806180477
1772043717818465500,0.639465576171875,-0.00057943444699049,0.00010170543100684881,-0.0008142297156155109
1772043717828452400,0.649452392578125,0.0005677556619048119,0.0006777579546906054,0.0008243818301707506
1772043717838438400,0.6594384765625,0.0011123716831207275,-0.0006993626593612134,0.00041984766721725464
1772043717848425500,0.669425537109375,0.0008415281772613525,0.004309510812163353,0.00008002831600606441
1772043717858412500,0.67941259765625,-0.00025888998061418533,0.0022365062031894922,-0.0009639309719204903
1772043717868398300,0.6893984375,-0.0020503979176282883,0.0012114554410800338,-0.0012062783353030682
1772043717878385700,0.6993857421875,-0.00019524060189723969,0.00293771643191576,-0.002376738004386425
1772043717888371500,0.709371337890625,0.0004454050213098526,0.003064105287194252,-0.0001229788176715374
1772043717898358300,0.719358154296875,-0.0011074850335717201,0.002286994829773903,0.0012035418767482042
1772043717908344600,0.729344482421875,0.0019449712708592415,-0.0000906360219232738,0.0016619550297036767
1772043717918331400,0.739331298828125,0.0005249744281172752,-0.0007995694759301841,0.00041080196388065815
1772043717928318500,0.749318359375,-0.0006113015115261078,0.0009871399961411953,-0.005420692265033722
1772043717938304500,0.759304443359375,-0.0006706900894641876,0.0035887821577489376,0.001078219385817647
1772043717948291600,0.76929150390625,0.0006533507257699966,-0.0008436554344370961,-0.0011646794155240059
1772043717958278000,0.77927783203125,0.00133538618683815,-0.004108424764126539,0.002758156741037965
1772043717968264700,0.7892646484375,0.0003428477793931961,-0.0038528423756361008,-0.0006620725616812706
1772043717978251000,0.7992509765625,0.0013077110052108765,-0.0009433391387574375,-0.0002226510550826788
1772043717988237800,0.80923779296875,0.0017579756677150726,0.0026063111145049334,-0.0001435175072401762
1772043717998225000,0.819224853515625,0.0018365392461419106,-0.0026222728192806244,0.0017784858355298638
1772043718008211000,0.8292109375,0.0004144180566072464,0.000032161304261535406,0.000439205439761281
1772043718018197800,0.83919775390625,0.0010770121589303017,0.004735304042696953,0.0012464094907045364
1772043718028184000,0.84918408203125,0.0000977078452706337,0.0017757792957127094,0.0014182666782289743
1772043718038171000,0.8591708984375,0.0004905238747596741,-0.002675960771739483,-0.00026778061874210835
1772043718048157000,0.869156982421875,-0.0003500906750559807,0.0011132777435705066,-0.0018982654437422752
1772043718058143700,0.879143798828125,0.00045445002615451813,0.0032169087789952755,-0.000624475535005331
1772043718068131000,0.889131103515625,-0.0016386276111006737,0.0019303392618894577,-0.00047510373406112194
1772043718078116900,0.899116943359375,0.002187269739806652,-0.0016707871109247208,0.0026226851623505354
1772043718088103700,0.909103759765625,0.000987655483186245,-0.0007792270625941455,-0.0005640198942273855
1772043718098090000,0.919090087890625,-0.00047548580914735794,0.0016945833340287209,0.00019364943727850914
1772043718108076800,0.929076904296875,-0.0017180750146508217,0.0004776533751282841,0.0029309173114597797
1772043718118062800,0.939062744140625,0.000047334469854831696,-0.00003926618956029415,0.0017010695300996304
1772043718128050000,0.9490498046875,-0.0026227980852127075,-0.0008171034860424697,0.0007784354966133833
1772043718138037000,0.959037109375,-0.0010233037173748016,-0.0008754267473705113,0.0015699269715696573
1772043718148022800,0.969022705078125,0.0003786534070968628,-0.0013670886401087046,0.0010756130795925856
1772043718158009900,0.979009765625,0.00034349970519542694,0.0021911608055233955,-0.0022466802038252354
1772043718167996000,0.988995849609375,-0.0004302971065044403,-0.0016752108931541443,-0.0010104868561029434
1772043718177982700,0.998982666015625,-0.0006279041990637779,-0.0011100881965830922,0.00022548623383045197
1772043718187970000,1.008969970703125,-0.0011483440175652504,-0.001513232127763331,0.0009740928653627634
1772043718197955800,1.018955810546875,-0.0005493992939591408,-0.0024810251779854298,0.0013522617518901825
1772043718207943000,1.02894287109375,-0.0031465860083699226,-0.0014765148516744375,-0.0006894744001328945
1772043718217929000,1.038928955078125,0.00010433420538902283,-0.0025175444316118956,-0.00035098660737276077
1772043718227915800,1.048915771484375,-0.0012427298352122307,0.00046949629904702306,0.00016205944120883942
1772043718237901800,1.05890185546875,-0.003211338073015213,0.001138482359237969,-0.000008649192750453949
1772043718247889000,1.068888916015625,-0.00008763652294874191,0.0011010863818228245,-0.0009227427653968334
1772043718257875000,1.078875,-0.002223225310444832,-0.0020291930995881557,0.000818698201328516
1772043718267861800,1.08886181640625,0.00047718267887830734,-0.001744105014950037,0.0003180820494890213
1772043718277848800,1.098848876953125,0.0007861088961362839,0.0010378329316154122,0.0016182373510673642
1772043718287835000,1.1088349609375,-0.0004965020343661308,0.0057915993966162205,0.0011935671791434288
1772043718297821700,1.11882177734375,0.0019477475434541702,-0.0007371398969553411,0.0019509701523929834
1772043718307808000,1.12880810546875,-0.0011291960254311562,0.00034066278021782637,0.0001380655448883772
1772043718317794800,1.138794921875,0.0007003955543041229,-0.0004891782300546765,0.00023899925872683525
1772043718327780900,1.14878076171875,0.003218298777937889,-0.00015024171443656087,0.0021714637987315655
1772043718337768000,1.158767822265625,-0.0015974948182702065,0.0008838637149892747,0.001705410424619913
1772043718347755000,1.168755126953125,0.00027800630778074265,-0.00043725810246542096,0.0004119307268410921
1772043718357740800,1.17874072265625,-0.00020535755902528763,0.00016541522927582264,0.00014827796258032322
1772043718367727900,1.188727783203125,-0.000433383509516716,-0.00018948857905343175,0.0001650964841246605
1772043718377714000,1.1987138671875,0.0021003475412726402,0.0033208238892257214,0.0018082668539136648
1772043718387700700,1.20870068359375,-0.000981646589934826,-0.0024919358547776937,0.00006720726378262043
1772043718397687000,1.21868701171875,-0.0013174712657928467,0.0018106671050190926,0.0038467654958367348
1772043718407673900,1.228673828125,-0.0009074220433831215,-0.0007239801343530416,0.0005364380776882172
1772043718417661000,1.238660888671875,-0.0005521560087800026,-0.0004536693450063467,0.00046852766536176205
1772043718427647000,1.24864697265625,-0.00017895735800266266,-0.0001815676223486662,0.0017124899895861745
1772043718437633800,1.2586337890625,-0.0021901773288846016,-0.0013461679918691516,0.00043577072210609913
1772043718447619800,1.268619873046875,-0.001694963313639164,-0.00018443766748532653,-0.00024276599287986755
1772043718457607000,1.27860693359375,0.0008717915043234825,-0.0008925722213461995,-0.0012382555287331343
1772043718467593000,1.288593017578125,-0.0006392151117324829,0.0009113166015595198,-0.0005905844736844301
1772043718477579800,1.298579833984375,0.000966937281191349,0.0012101233005523682,0.0008584414608776569
1772043718487566800,1.30856689453125,0.0014849426224827766,-0.001632288214750588,-0.0006752701010555029
1772043718497553000,1.318552978515625,0.0014782855287194252,-0.0004527741111814976,-0.0017178973648697138
1772043718507539700,1.328539794921875,-0.0009955652058124542,-0.001172196352854371,0.0013724691234529018
1772043718517526000,1.338526123046875,0.00029420386999845505,-0.0006009482895024121,-0.0019354433752596378
1772043718527512800,1.348512939453125,-0.00010494235903024673,0.0011347098043188453,-0.00030798185616731644
1772043718537499000,1.358498779296875,-0.0007294537499547005,0.0014399080537259579,-0.00023048371076583862
1772043718547486000,1.36848583984375,0.0013237753883004189,0.003296872600913048,-0.00020579644478857517
1772043718557473000,1.37847314453125,-0.0019993167370557785,-0.002116801217198372,-0.0017810561694204807
1772043718567458800,1.388458740234375,-0.00036968477070331573,0.0006666400586254895,-0.0022368095815181732
1772043718577446000,1.39844580078125,-0.002291688695549965,-0.003082824405282736,-0.0010828622616827488
1772043718587432000,1.408431884765625,-0.0015511736273765564,0.0010739628924056888,-0.0008022771216928959
1772043718597418800,1.418418701171875,-0.0001338394358754158,-0.00005814689211547375,-0.0001231711357831955
1772043718607405000,1.428405029296875,-0.000048403628170490265,-0.0015709809958934784,-0.0013011973351240158
1772043718617391900,1.438391845703125,0.000300736166536808,-0.00178430019877851,0.0006418447010219097
1772043718627379000,1.44837890625,0.0010568201541900635,0.002376571297645569,-0.0010792179964482784
1772043718637365000,1.458364990234375,-0.00022496003657579422,0.00007320323493331671,-0.0008105048909783363
1772043718647352000,1.46835205078125,0.0017400672659277916,-0.0005949584301561117,-0.0013094772584736347
1772043718657337900,1.478337890625,0.0015232861042022705,-0.0009145376970991492,-0.001200287602841854
1772043718667324700,1.48832470703125,-0.0007420331239700317,-0.0006994010182097554,-0.0005470919422805309
1772043718677311000,1.49831103515625,0.0023999642580747604,-0.0016285779420286417,-0.000958284130319953
1772043718687297800,1.5082978515625,0.0005737468600273132,-0.0018012842629104853,-0.0004922486841678619
1772043718697284900,1.518284912109375,0.003484847955405712,0.0007273872033692896,0.0022609273437410593
1772043718707271000,1.52827099609375,-0.000614779070019722,0.00034451167448423803,0.0007216313388198614
1772043718717258000,1.538258056640625,0.0010901764035224915,0.0006965815555304289,0.0009653107263147831
1772043718727243800,1.548243896484375,0.0007619811221957207,-0.000002269516699016094,-0.00036630011163651943
1772043718737230800,1.55823095703125,0.00018141139298677444,-0.0003817700198851526,-0.00012661563232541084
1772043718747217000,1.568216796875,0.000869053415954113,-0.0008346267277374864,0.0013982952805235982
1772043718757203700,1.57820361328125,-0.00009341258555650711,-0.0013009462272748351,-0.0032894008327275515
1772043718767190000,1.58818994140625,-0.0014586765319108963,0.0011149735655635595,0.001995009370148182
1772043718777176800,1.5981767578125,0.0005730492994189262,0.0016840910539031029,-0.0005472442135214806
1772043718787164000,1.608163818359375,0.0011128215119242668,-0.0006794388755224645,0.0012374899815768003
1772043718797150000,1.61814990234375,0.0004941690713167191,0.0010098041966557503,-0.0018147591035813093
1772043718807136800,1.62813671875,0.0010542459785938263,-0.0016215882496908307,0.00008982280269265175
1772043718817122800,1.638122802734375,0.0009415941312909126,0.000490032194647938,0.0027340755332261324
1772043718827110000,1.64810986328125,0.0010636765509843826,0.0020807189866900444,0.00008836109191179276
1772043718837096000,1.658095947265625,0.00024209171533584595,-0.0018069634679704905,-0.001330837607383728
1772043718847082800,1.668082763671875,0.0015975162386894226,-0.001757168211042881,0.0006953009869903326
1772043718857070000,1.678070068359375,0.0023674359545111656,-0.0008636777056381106,0.0011405814439058304
1772043718867055900,1.688055908203125,0.0001637255772948265,-0.0008928701281547546,0.001701248693279922
1772043718877042700,1.698042724609375,0.000007398426532745361,-0.0004047127440571785,-0.0010657755192369223
1772043718887029000,1.708029052734375,0.0011022547259926796,0.0017675608396530151,-0.00004946300759911537
1772043718897015800,1.718015869140625,-0.002169438637793064,-0.001513719791546464,-0.0008476125076413155
1772043718907001900,1.728001953125,-0.0003589075058698654,0.00017003327957354486,-0.001095625339075923
1772043718916989000,1.737989013671875,-0.0010838201269507408,-0.0017602258594706655,-0.00024820747785270214
1772043718926976000,1.74797607421875,-0.0009168190881609917,0.0000388307380490005,0.0004386249929666519
1772043718936961800,1.7579619140625,-0.0012627635151147842,-0.002253618324175477,-0.0017664723563939333
1772043718946948900,1.767948974609375,0.00040029827505350113,0.0008062382694333792,0.0015134698478505015
1772043718956935200,1.77793505859375,-0.0013400772586464882,0.0008222172036767006,-0.00000932556577026844
1772043718966922200,1.787922119140625,0.000543634407222271,0.0013559586368501186,-0.0002088029868900776
1772043718976908300,1.797908203125,-0.001856672577559948,-0.00003580935299396515,-0.0013393149711191654
1772043718986895400,1.807895263671875,-0.00041195470839738846,0.000020574661903083324,0.0012192190624773502
1772043718996881200,1.817881103515625,-0.0016769561916589737,0.0005705174407921731,-0.0011416731867939234
1772043719006868200,1.8278681640625,-0.001498159021139145,-0.0019862668123096228,0.0015120500465855002
1772043719016855300,1.837855224609375,0.0004720473662018776,0.0009075240232050419,-0.0007247389294207096
1772043719026841000,1.847841064453125,0.0003517055884003639,0.0009289643494412303,-0.00029407162219285965
1772043719036828200,1.857828125,-0.0002999696880578995,-0.00021459703566506505,0.000892366748303175
1772043719046814200,1.867814208984375,-0.0017945114523172379,0.0008864895789884031,0.0012358804233372211
1772043719056801300,1.87780126953125,0.0010007424280047417,0.0015506820054724813,-0.001385202631354332
1772043719066787300,1.887787353515625,0.0002827988937497139,0.0011739195324480534,0.00013279728591442108
1772043719076774400,1.8977744140625,-0.00015635602176189423,-0.0008303754730150104,-0.00010901759378612041
1772043719086761200,1.90776123046875,-0.0002600448206067085,-0.0006769167957827449,-0.00028615607880055904
1772043719096747300,1.917747314453125,0.001771414652466774,-0.0014801261713728309,0.001293631037697196
1772043719106734300,1.927734375,0.001355907879769802,0.0031229648739099503,0.003174208803102374
1772043719116720000,1.93772021484375,-0.0011645080521702766,0.0000033379183150827885,-0.0036378910299390554
1772043719126707200,1.947707275390625,0.0006493339315056801,0.0015808404423296452,-0.0003229293506592512
1772043719136693200,1.957693359375,0.0017329743131995201,-0.00016353005776181817,-0.001928282668814063
1772043719146680300,1.967680419921875,-0.0005324035882949829,0.0019367968197911978,-0.00032908935099840164
1772043719156666400,1.977666259765625,0.00033658556640148163,-0.0009577929740771651,0.00005919951945543289
1772043719166653200,1.987653076171875,0.0009164353832602501,0.00365868560038507,-0.0000624160747975111
1772043719176640300,1.99764013671875,0.000547054223716259,0.0008980529382824898,0.000014815712347626686
1772043719186626300,2.007626220703125,-0.0020844144746661186,-0.003446095623075962,-0.0013548482675105333
1772043719196613400,2.01761328125,0.0009497245773673058,0.0016016601584851742,0.001770637696608901
1772043719206599200,2.02759912109375,-0.001112121157348156,0.0012125461362302303,-0.0004241890273988247
1772043719216586200,2.037586181640625,0.002161170355975628,0.0015078906435519457,-0.001558429328724742
1772043719226572300,2.047572265625,0.0010194014757871628,0.0006684131803922355,0.0015048612840473652
1772043719236559000,2.05755908203125,0.002784278243780136,-0.00021815311629325151,0.0010273566003888845
1772043719246545400,2.06754541015625,-0.0005924273282289505,-0.00008489162428304553,-0.0004114457406103611
1772043719256532200,2.0775322265625,0.0022568879649043083,-0.0017565577290952206,-0.002322530373930931
1772043719266519300,2.087519287109375,-0.000041765160858631134,0.00106530892662704,-0.0015946365892887115
1772043719276505300,2.09750537109375,-0.0003163376823067665,0.001597941154614091,-0.0013999594375491142
1772043719286492400,2.107492431640625,-0.00012268032878637314,0.0009311908506788313,0.001395507832057774
1772043719296478200,2.117478271484375,-0.0014353515580296516,-0.02220075950026512,0.008861945942044258
1772043719306465000,2.127465087890625,-0.00221883412450552,-0.026461441069841385,-0.008520091883838177
1772043719316451300,2.137451416015625,0.00024352502077817917,-0.005158549174666405,-0.007819680497050285
1772043719326438100,2.147438232421875,-0.0005307048559188843,0.01674472913146019,0.000777052016928792
1772043719336424400,2.157424560546875,0.001367330551147461,0.020402846857905388,0.002740334253758192
1772043719346411300,2.167411376953125,-0.00023482553660869598,-0.0006092121475376189,-0.0014266653452068567
1772043719356398300,2.1773984375,-0.00024680979549884796,-0.004858818370848894,0.0012175871524959803
1772043719366384400,2.18738427734375,0.00022301450371742249,0.008067132905125618,-0.005790353752672672
1772043719376371200,2.19737109375,0.0012954697012901306,0.0021043147426098585,-0.0017245057970285416
1772043719386357200,2.207357177734375,-0.000011374242603778839,-0.009811311028897762,-0.0004812823608517647
1772043719396344000,2.217343994140625,-0.0007512001320719719,-0.008740187622606754,-0.0056403581984341145
1772043719406330400,2.227330322265625,0.002869623713195324,-0.0030009979382157326,-0.0007559384685009718
1772043719416317200,2.237317138671875,0.0010834410786628723,0.0011980083072558045,0.0002541986759752035
1772043719426303200,2.24730322265625,0.0003318600356578827,-0.001136471750214696,0.00011451099999248981
1772043719436290300,2.257290283203125,-0.0013738954439759254,-0.0007934566820040345,-0.0025103006046265364
1772043719446277000,2.267277099609375,0.0007798923179507256,0.0005742808571085334,0.00032801367342472076
1772043719456263400,2.277263427734375,-0.00003769807517528534,0.0014627114869654179,0.0023301783949136734
1772043719466250200,2.287250244140625,-0.00008643139153718948,-0.0015282691456377506,0.0016705122543498874
1772043719476236300,2.297236328125,0.0023165391758084297,0.0009087896905839443,-0.0003455006517469883
1772043719486223000,2.30722314453125,-0.001499086618423462,-0.00016667356248944998,-0.0006236981134861708
1772043719496209200,2.317209228515625,0.0002066679298877716,-0.002044734777882695,-0.0012713789474219084
1772043719506196200,2.3271962890625,0.0008551375940442085,0.0009974411223083735,0.00013028038665652275
1772043719516182300,2.337182373046875,0.002586458809673786,-0.0016880905022844672,-0.0030870845075696707
1772043719526169300,2.34716943359375,0.001463593915104866,0.0004217448295094073,-0.0008365067187696695
1772043719536155100,2.357155029296875,0.001094745472073555,0.002387157641351223,-0.0022399926092475653
1772043719546142500,2.367142578125,0.004112353548407555,0.0020288988016545773,-0.002262967871502042
1772043719556129300,2.37712939453125,0.002493150532245636,0.00027414210489951074,-0.00033670361153781414
1772043719566115000,2.387114990234375,0.002334015443921089,0.002517228713259101,-0.0016210305038839579
1772043719576102100,2.39710205078125,-0.0017105275765061378,0.0016431792173534632,-0.00256645237095654
1772043719586088200,2.407088134765625,0.0016037272289395332,0.00007609673775732517,-0.0012958117295056581
1772043719596075300,2.4170751953125,0.0035145459696650505,-0.0015939715085551143,0.0005566829349845648
1772043719606061300,2.427061279296875,-0.0005462374538183212,0.00044489765423350036,0.001641096780076623
1772043719616048400,2.43704833984375,-0.0006335889920592308,-0.0008970692288130522,-0.0016356566920876503
1772043719626034200,2.4470341796875,0.003334827721118927,0.0022117013577371836,-0.0014903340488672256
1772043719636021200,2.457021240234375,0.0011648833751678467,0.0005038161179982126,0.0002761406358331442
1772043719646008300,2.46700830078125,0.0001841280609369278,-0.0015056637348607183,-0.000318566570058465
1772043719655994000,2.476994140625,0.0010304814204573631,-0.00063614163082093,-0.0011041993275284767
1772043719665981200,2.486981201171875,0.00005433056503534317,0.0029345303773880005,0.0012158064637333155
1772043719675967200,2.49696728515625,-0.0010570073500275612,-0.001080451300367713,-0.00011444254778325558
1772043719685954300,2.506954345703125,-0.0015348605811595917,0.0003444027970544994,-0.0004968033172190189
1772043719695940400,2.5169404296875,0.00127450842410326,0.002446435857564211,0.0016465088119730353
1772043719705927200,2.52692724609375,0.000354863703250885,0.001031325664371252,0.001689715776592493
1772043719715913200,2.536913330078125,-0.0006238482892513275,0.0008094843942672014,0.0023720175959169865
1772043719725900300,2.546900390625,-0.0003327270969748497,-0.001368871657177806,-0.0004241294227540493
1772043719735886300,2.55688623046875,0.0012582456693053246,-0.00012251228326931596,0.0007761572487652302
1772043719745873200,2.566873046875,0.0007590912282466888,0.000662806851323694,-0.00029550143517553806
1772043719755860200,2.576860107421875,0.0013375291600823402,0.0016138217179104686,-0.000437714159488678
1772043719765846300,2.58684619140625,-0.0003411080688238144,0.0008209404768422246,0.0011395609471946955
1772043719775833000,2.5968330078125,-0.0027009351179003716,0.0009218742488883436,0.0015622046776115894
1772043719785819400,2.6068193359375,-0.000742531381547451,0.0013960221549496055,0.00076122279278934
1772043719795806200,2.61680615234375,0.0015160953626036644,-0.0020074977073818445,0.0005250002723187208
1772043719805792300,2.626792236328125,0.00014561787247657776,0.0016369136283174157,-0.0001231569331139326
1772043719815779300,2.636779296875,-0.0002429373562335968,0.000584698747843504,0.0006853786762803793
1772043719825765000,2.64676513671875,0.0010628020390868187,-0.0013271227944642305,-0.00030339881777763367
1772043719835752200,2.656752197265625,0.00030806194990873337,0.0012550782412290573,0.0004042030777782202
1772043719845738200,2.66673828125,0.0014563892036676407,0.0014250506646931171,0.000933678587898612
1772043719855725300,2.676725341796875,0.0012268247082829475,0.00019600175437517464,-0.0000466308556497097
1772043719865712000,2.686712158203125,0.0006596893072128296,0.0005442186957225204,0.000500441761687398
1772043719875698400,2.696698486328125,-0.000331806018948555,0.0004792375839315355,0.00007912958972156048
1772043719885685200,2.706685302734375,0.002189985476434231,0.0038131384644657373,-0.0007537235505878925
1772043719895671000,2.716671142578125,-0.0017078174278140068,0.00015448793419636786,-0.002420862205326557
1772043719905658400,2.726658447265625,0.0005821008235216141,0.0007450210396200418,-0.0006420607678592205
1772043719915644200,2.73664404296875,0.0014833146706223488,-0.0012816445669159293,-0.0011680352035909891
1772043719925631200,2.74663134765625,0.0006288792937994003,0.0007213188800960779,-0.0013463038485497236
1772043719935617300,2.7566171875,0.0011173030361533165,0.0004310343647375703,-0.00142912776209414
1772043719945604400,2.766604248046875,-0.0014594905078411102,0.0007063421071507037,-0.0007907419931143522
1772043719955590100,2.776590087890625,0.0013956846669316292,0.0011401709634810686,-0.0005060501862317324
1772043719965577200,2.7865771484375,0.0033137910068035126,0.0007481442298740149,0.0011155386455357075
1772043719975564300,2.796564208984375,0.0019284142181277275,0.002063213149085641,-0.0024341889657080173
1772043719985550000,2.806550048828125,0.0010749967768788338,-0.00044240523129701614,-0.0005103189032524824
1772043719995537400,2.816537353515625,0.0017951158806681633,0.00015893657109700143,0.0020575011149048805
1772043720005523200,2.826523193359375,0.000356258824467659,-0.00044695602264255285,0.0009045805782079697
1772043720015510300,2.83651025390625,0.0009485455229878426,-0.0016746731707826257,-0.001419826177880168
1772043720025496300,2.846496337890625,0.0009792661294341087,-0.0017938879318535328,0.0023348447866737843
1772043720035483400,2.8564833984375,0.0012751435860991478,1.7404090613126755e-8,-0.0007680042181164026
1772043720045469200,2.86646923828125,0.0014281775802373886,0.0003669490688480437,0.0007352966349571943
1772043720055456300,2.876456298828125,0.0013743815943598747,0.0015422020805999637,0.0017912400653585792
1772043720065442300,2.8864423828125,0.0008419668301939964,-0.0017598812701180577,0.00167811568826437
1772043720075429000,2.89642919921875,0.0003948220983147621,0.00029235074180178344,0.0005808933638036251
1772043720085416200,2.906416259765625,0.00014795921742916107,-0.0016998080536723137,-0.001694944454357028
1772043720095402200,2.91640234375,0.002554924227297306,-0.0015578614547848701,-0.00045763980597257614
1772043720105389300,2.926389404296875,-0.0013254126533865929,0.002015030011534691,0.0016084343660622835
1772043720115375400,2.936375244140625,0.0009558508172631264,0.0011630846420302987,-0.0019362331368029118
1772043720125362200,2.946362060546875,0.0011081676930189133,0.0025896106380969286,0.0004598184023052454
1772043720135348200,2.95634814453125,-0.0010537868365645409,-0.0020730518735945225,-0.0008648380171507597
1772043720145335300,2.966335205078125,0.001647457480430603,0.002152020810171962,-0.0025465136859565973
1772043720155321300,2.9763212890625,0.002171034924685955,-0.0003002179437316954,0.0005321004427969456
1772043720165308200,2.98630810546875,0.0004114564508199692,0.0010587602155283093,0.0013932809233665466
1772043720175294200,2.996294189453125,-0.002235991880297661,-0.00031649612355977297,0.0014441473176702857
1772043720185281300,3.00628125,0.000014468096196651459,0.0012403784785419703,0.002602017717435956
1772043720195267300,3.016267333984375,0.0021122395992279053,-0.0026502334512770176,0.0008363421075046062
1772043720205254400,3.02625439453125,-0.001143021509051323,0.0017685610800981522,-0.0014533244539052248
1772043720215241200,3.0362412109375,0.0014551589265465736,-0.001920715905725956,-0.0008200246375054121
1772043720225227300,3.046227294921875,0.0004360564053058624,-0.0005967994220554829,-0.0006426176987588406
1772043720235214300,3.05621435546875,0.0001843869686126709,0.000949698151089251,0.0008205228950828314
1772043720245200100,3.0662001953125,-0.0009184414520859718,0.0002903016866184771,-0.0010403834749013186
1772043720255187200,3.076187255859375,-0.001535496674478054,-0.0010386157082393765,0.0017388913547620177
1772043720265173200,3.08617333984375,-0.0001535927876830101,0.0010389420203864574,-0.00004433770664036274
1772043720275160300,3.096160400390625,-0.00044121406972408295,0.0024051435757428408,-0.0005950795020908117
1772043720285146000,3.10614599609375,-0.0014597102999687195,-0.0009555143769830465,-0.0012385593727231026
1772043720295133400,3.116133544921875,-0.00013265665620565414,0.0015087085776031017,0.002005969639867544
1772043720305119200,3.126119140625,0.001329369843006134,-0.0007492259028367698,0.0014852307504042983
1772043720315106000,3.13610595703125,0.00016050878912210464,-0.0009478976135142148,-0.0008301213383674622
1772043720325092400,3.14609228515625,0.00008447840809822083,0.0003043485339730978,0.0012406844180077314
1772043720335079200,3.1560791015625,-0.001502232626080513,-0.0004589134478010237,-0.0008560221176594496
1772043720345065500,3.1660654296875,0.0011491961777210236,0.0008517508395016193,-0.00023258710280060768
1772043720355052300,3.17605224609375,0.0010961992666125298,0.0006799769471399486,-0.0005231380928307772
1772043720365039400,3.186039306640625,0.001454319804906845,0.001891253748908639,0.0006040895823389292
1772043720375025200,3.196025146484375,0.002094278112053871,-0.00016763602616265416,0.000009938376024365425
1772043720385012200,3.20601220703125,0.00048480555415153503,-0.000094932212959975,0.0033716093748807907
1772043720394998300,3.215998291015625,0.0015527335926890373,-1.2369127944111824e-7,0.0016839641612023115
1772043720404985000,3.225985107421875,-0.0005069999024271965,-0.0038886191323399544,-0.0004721088334918022
1772043720414971400,3.235971435546875,0.001064530573785305,0.00038548835436813533,0.0002224436029791832
1772043720424958200,3.245958251953125,0.0033724764361977577,-0.0005289026303216815,0.0007220818661153316
1772043720434944300,3.2559443359375,0.002459544688463211,0.0012218595948070288,-0.0008875327184796333
1772043720444931300,3.265931396484375,0.0004371320828795433,0.0026510772295296192,0.0026018957141786814
1772043720454917000,3.275917236328125,0.003329058177769184,-0.0009953228291124105,0.001562463934533298
1772043720464904200,3.285904296875,-0.00017712172120809555,0.0012071140808984637,0.0016404767520725727
1772043720474890200,3.29589013671875,0.0007491260766983032,0.0016446714289486408,-0.0017300196923315525
1772043720484877300,3.305877197265625,-0.0009411219507455826,-0.001836571842432022,0.0015022525331005454
1772043720494864100,3.315864013671875,0.0006967224180698395,-0.0008517347159795463,0.0021507320925593376
1772043720504850200,3.32585009765625,0.0014824718236923218,0.0006600242923013866,0.0002378502395004034
1772043720514837200,3.335837158203125,-0.002405477687716484,-0.00022840622114017606,-0.0013286208268254995
1772043720524823300,3.3458232421875,-0.00030474551022052765,0.0005027510924264789,-0.0005462169647216797
1772043720534810400,3.355810302734375,0.00004359520971775055,-0.001945226569660008,-0.0014101467095315456
1772043720544796200,3.365796142578125,0.0012825652956962585,-0.0022547293920069933,0.002310370560735464
1772043720554783200,3.375783203125,-0.0011960389092564583,0.0006230823928490281,0.0005191282834857702
1772043720564769300,3.385769287109375,0.0024420423433184624,-0.0017272988334298134,0.001720836036838591
1772043720574756000,3.395756103515625,0.0014111325144767761,0.00294228782877326,-0.00008904817514121532
1772043720584742400,3.405742431640625,-0.0013219965621829033,-0.0009032324887812138,-0.002082104329019785
1772043720594729200,3.415729248046875,0.00017709750682115555,0.007025530561804771,-0.00008180388249456882
1772043720604715300,3.42571533203125,0.0017754333093762398,0.0051719616167247295,0.0007309210486710072
1772043720614702300,3.435702392578125,-0.0004938459023833275,0.003239039098843932,-0.0009540610481053591
1772043720624688000,3.445688232421875,0.0008134851232171059,0.0012965734349563718,-0.0007858830504119396
1772043720634675200,3.45567529296875,0.0018505202606320381,-0.002067531691864133,-0.0007664421573281288
1772043720644662000,3.465662109375,0.0019372161477804184,0.0007291820948012173,-0.0013776954729110003
1772043720654648300,3.4756484375,-0.00015443097800016403,-0.000006649293936789036,-0.0007081769872456789
1772043720664635100,3.48563525390625,-0.0006902450695633888,-0.002191368490457535,0.00033103558234870434
1772043720674621400,3.495621337890625,-0.00036560557782649994,0.0015290677547454834,-0.00038349046371877193
1772043720684608300,3.505608154296875,0.0007609808817505836,0.00050037179607898,-0.0002646408975124359
1772043720694594000,3.515593994140625,-0.000808953307569027,-0.00048100302228704095,-0.00015119020827114582
1772043720704581400,3.525581298828125,-0.0009722812101244926,0.0012338126543909311,0.0018389304168522358
1772043720714567200,3.535567138671875,0.0019268356263637543,0.0010750882793217897,0.0006599489133805037
1772043720724554200,3.54555419921875,-0.00019528716802597046,-0.0012365225702524185,-0.001846293918788433
1772043720734540300,3.555540283203125,0.0006049927324056625,-0.0011449098819866776,-0.001307270023971796
1772043720744527400,3.56552734375,-0.0005682166665792465,0.0033372172620147467,-0.000543118454515934
1772043720754513200,3.57551318359375,0.0001569623127579689,0.0017001722007989883,-0.0015471300575882196
1772043720764500200,3.585500244140625,0.00016976799815893173,0.0016029479447752237,-0.0014626032207161188
1772043720774486300,3.595486328125,0.0015490194782614708,-0.0006143999053165317,-0.0005078602116554976
1772043720784473000,3.60547314453125,-0.0007059480994939804,-0.0009415861568413675,-0.0005673486739397049
1772043720794459400,3.61545947265625,-0.0035946788266301155,-0.001323749776929617,-0.0022874842397868633
1772043720804446200,3.6254462890625,0.0003627138212323189,0.000981826800853014,-0.0013490908313542604
1772043720814433300,3.635433349609375,0.0024727359414100647,0.0017243160400539637,0.001427787123247981
1772043720824419300,3.64541943359375,0.001434185542166233,0.000473410909762606,0.0017368501285091043
1772043720834406100,3.65540625,0.0004275105893611908,0.0002752717409748584,-0.0016003570053726435
1772043720844392200,3.66539208984375,-0.0008153757080435753,0.0013522051740437746,0.000048099784180521965
1772043720854379300,3.675379150390625,-0.00021749548614025116,-0.00021719554206356406,-0.0009119696915149689
1772043720864365300,3.685365234375,0.0013302890583872795,0.0009578948374837637,0.0006734146736562252
1772043720874352000,3.69535205078125,0.002351079136133194,0.0009786675218492746,-0.0018733660690486431
1772043720884338200,3.705338134765625,0.000383877195417881,0.001300053671002388,0.0014558341354131699
1772043720894325200,3.7153251953125,-0.0002760542556643486,0.000342381012160331,-0.00022595212794840336
1772043720904311300,3.725311279296875,0.0000507161021232605,0.0005017815274186432,-0.0007068035192787647
1772043720914298400,3.73529833984375,-0.0009469036012887955,-0.000724604120478034,0.0016998950159177184
1772043720924284200,3.7452841796875,0.0004900116473436356,0.0013514820020645857,-0.0005074166692793369
1772043720934271200,3.755271240234375,-0.00007804017513990402,-0.00034628313733264804,-0.0015716159250587225
1772043720944257300,3.76525732421875,0.00033040251582860947,-0.00151575799100101,-0.0003062377218157053
1772043720954244000,3.775244140625,-0.0005817301571369171,0.001141011482104659,0.0007350584492087364
1772043720964230000,3.78522998046875,-0.0006288709118962288,-0.0007333022658713162,-0.001517799450084567
1772043720974216700,3.795216796875,0.0005288049578666687,-0.0004110598238185048,-0.00011697690933942795
1772043720984202500,3.805202392578125,-0.0010180817916989326,-0.0006778045790269971,-0.0008532153442502022
1772043720994189800,3.81518994140625,0.00013107247650623322,0.0005017094081267715,-0.0034170402213931084
1772043721004177000,3.825177001953125,0.000527581200003624,-0.00015946791972965002,-0.0009479494765400887
1772043721014162700,3.83516259765625,0.000013857148587703705,0.000763051095418632,0.0016065547242760658
1772043721024149800,3.845149658203125,-0.0005450733006000519,0.001581390853971243,0.0004659825935959816
1772043721034135800,3.8551357421875,-0.0019256556406617165,-0.0005408822908066213,0.0005016690120100975
1772043721044122600,3.86512255859375,0.000010785646736621857,0.00023861078079789877,-0.0008499498944729567
1772043721054109000,3.87510888671875,0.0013101417571306229,0.00010918115731328726,0.002490186830982566
1772043721064095700,3.885095703125,-0.0025220075622200966,-0.000049227732233703136,0.0002357708290219307
1772043721074081500,3.89508154296875,-0.0013648634776473045,-0.0021025249734520912,0.001057089539244771
1772043721084068900,3.90506884765625,-0.0014827121049165726,0.0007249168702401221,-0.0020910047460347414
1772043721094054700,3.9150546875,-0.000637957826256752,-0.0002543274313211441,-0.0033410924952477217
1772043721104041700,3.925041748046875,0.002427816390991211,-0.0004759953008033335,0.0006981920450925827
1772043721114027800,3.93502783203125,-0.0021658707410097122,-0.002216104883700609,-0.0006240671500563622
1772043721124014800,3.945014892578125,-0.0016492176800966263,0.0020740944892168045,-0.0005736330058425665
1772043721134001000,3.9550009765625,-0.0016169939190149307,0.0006562276394106448,-0.0005725675728172064
1772043721143987700,3.96498779296875,-0.0003626961261034012,0.0013135498156771064,-0.0006921503227204084
1772043721153973800,3.974973876953125,0.0006224075332283974,-0.002010341500863433,0.000050605274736881256
1772043721163960600,3.984960693359375,0.0008728364482522011,0.0005131882498972118,0.0017550199991092086
1772043721173947000,3.99494677734375,0.0019466225057840347,-0.00228552776388824,0.0014210595982149243
1772043721183933700,4.00493359375,0.0005086567252874374,0.0028072898276150227,0.0004161321558058262
1772043721193919700,4.014919677734375,0.0009475452825427055,0.0030901175923645496,0.0006701978854835033
1772043721203906800,4.02490673828125,0.001326494850218296,-0.0002958255645353347,0.0008346717804670334
1772043721213893600,4.0348935546875,0.0025392984971404076,0.00011909494060091674,-0.0003283305559307337
1772043721223880000,4.0448798828125,0.00013433676213026047,-0.0002688451495487243,0.004133445676416159
1772043721233866800,4.05486669921875,0.0020139962434768677,-0.0005293022841215134,0.0014287391677498817
1772043721243852800,4.064852783203125,-0.0006214156746864319,0.0001897621259558946,-0.000037397490814328194
1772043721253839600,4.074839599609375,-0.0005625598132610321,-0.0009444780880585313,-0.001289349514991045
1772043721263825700,4.08482568359375,-0.0011150138452649117,0.0012051449157297611,0.0010275384411215782
1772043721273812700,4.094812744140625,-0.0010500326752662659,-0.0019261997658759356,-0.002237497130408883
1772043721283798800,4.104798828125,0.0012555569410324097,-0.00029839438502676785,0.0009689901489764452
1772043721293785900,4.114785888671875,-0.0013554058969020844,0.0021107010543346405,0.000029959483072161674
1772043721303771600,4.124771728515625,0.0012446381151676178,0.0008629816002212465,-0.0016489075496792793
1772043721313759000,4.134759033203125,0.001942918635904789,0.0005679033347405493,-0.0007008221000432968
1772043721323744800,4.144744873046875,0.00015775207430124283,0.000089308712631464,-0.00020240037702023983
1772043721333731600,4.154731689453125,0.0023447396233677864,-0.0009410683414898813,0.0011262507177889347
1772043721343718000,4.1647177734375,0.0007903473451733589,-0.0007621331023983657,0.000059841200709342957
1772043721353704700,4.17470458984375,-0.0006442973390221596,-0.00034002214670181274,0.0014156564138829708
1772043721363690800,4.184690673828125,-0.00038990844041109085,0.0019511542050167918,-0.0001254156231880188
1772043721373677800,4.194677734375,-0.0012596966698765755,-0.0017410523723810911,-0.0006159697659313679
1772043721383663600,4.20466357421875,-0.00003747362643480301,0.0007391459075734019,0.000403326703235507
1772043721393650700,4.214650634765625,-0.0013749133795499802,-0.000742104253731668,0.0015207892283797264
1772043721403636700,4.22463671875,0.00164745282381773,0.0014205934712663293,0.001186011591926217
1772043721413623800,4.234623779296875,-0.0015877550467848778,-0.0007908954285085201,-0.0005093568470329046
1772043721423609900,4.24460986328125,-0.0001406865194439888,-0.0009611353743821383,-0.0012450315989553928
1772043721433597000,4.254596923828125,-0.0031436672434210777,0.0012823115102946758,-0.0009760521352291107
1772043721443582700,4.264582763671875,-0.0007096501067280769,-0.0010248732287436724,0.0007332754321396351
1772043721453569500,4.274569580078125,-0.0006444025784730911,-0.0008893182966858149,-0.00012559397146105766
1772043721463556900,4.284556884765625,-0.00034734513610601425,-0.00178159074857831,0.0007576521020382643
1772043721473542700,4.294542724609375,0.0013757199048995972,0.0014043488772585988,0.0025717972312122583
1772043721483529700,4.30452978515625,0.0003074323758482933,0.0011408064747229218,0.00021286914125084877
1772043721493515800,4.314515869140625,0.0013154391199350357,-0.0028842950705438852,-0.0003578462637960911
1772043721503502800,4.3245029296875,-0.0014191912487149239,-0.0003226643893867731,0.0013842263724654913
1772043721513489000,4.334489013671875,-0.0024791294708848,0.0014858883805572987,0.000016426900401711464
1772043721523475700,4.344475830078125,0.0006611412391066551,0.00004413715214468539,0.0007589415181428194
1772043721533461800,4.354461669921875,-0.0025935079902410507,-0.0017260659951716661,-0.00030126282945275307
1772043721543448600,4.364448486328125,-0.003604697063565254,-0.0012368726311251521,-0.00042880186811089516
1772043721553435000,4.374434814453125,-0.001600136049091816,-0.0010949261486530304,0.00004950189031660557
1772043721563421700,4.384421630859375,-0.0003078356385231018,-0.001188401016406715,0.0001389062963426113
1772043721573407700,4.39440771484375,-0.000970163382589817,-0.0023034666664898396,0.0015360006364062428
1772043721583394800,4.404394775390625,0.0008965469896793365,0.001347807701677084,0.0012482195161283016
1772043721593380600,4.414380615234375,0.0009668543934822083,-0.00013317613047547638,0.0024256031028926373
1772043721603367700,4.42436767578125,0.0013028224930167198,-0.0013360901502892375,-0.000582121079787612
1772043721613353700,4.434353759765625,-0.0008998783305287361,-0.0012460752623155713,0.00024825241416692734
1772043721623340800,4.4443408203125,-0.0004650680348277092,-0.0009796342346817255,-0.0010844618082046509
1772043721633326800,4.454326904296875,-0.0006695985794067383,-0.00041025038808584213,0.001792284892871976
1772043721643313700,4.464313720703125,-0.0005099587142467499,-0.0006540799513459206,-0.0016776430420577526
1772043721653299700,4.4742998046875,0.0005390606820583344,-0.0005036114016547799,-0.0008001313544809818
1772043721663286800,4.484286865234375,0.0010963473469018936,-0.0008966262685135007,0.0009619784541428089
1772043721673272800,4.49427294921875,0.0018913010135293007,-0.0008300471818074584,-0.0013453841675072908
1772043721683259600,4.504259765625,0.0033598095178604126,0.002005890477448702,-0.004100314807146788
1772043721693245700,4.51424560546875,-0.0028384318575263023,0.00035206731990911067,0.0016140298685058951
1772043721703232800,4.524232666015625,-0.0006685992702841759,-0.0010097442427650094,-0.00022934842854738235
1772043721713218800,4.53421875,0.001225174404680729,0.0009436844266019762,-0.0032672162633389235
1772043721723206000,4.544205810546875,0.001510915346443653,-0.0006144451908767223,-0.001251664711162448
1772043721733191700,4.554191650390625,-0.002424437552690506,0.000007935537723824382,-0.000021284446120262146
1772043721743178800,4.5641787109375,-0.00023904722183942795,-0.001104466849938035,0.0002777886111289263
1772043721753164800,4.574164794921875,0.0032788310199975967,-0.0011730967089533806,0.0037288896273821592
1772043721763151600,4.584151611328125,-0.00008216872811317444,-0.0023210428189486265,0.0003704037517309189
1772043721773138700,4.594138671875,-0.0016236063092947006,0.00174959865398705,-0.0002565043978393078
1772043721783124700,4.604124755859375,0.001225259155035019,-0.0008629986550658941,0.002804029965773225
1772043721793111800,4.61411181640625,0.00012111291289329529,0.0018068203935399652,-0.0012932433746755123
1772043721803097600,4.62409765625,0.0006294092163443565,-0.001558631076477468,0.0006691557355225086
1772043721813085000,4.6340849609375,-0.0005200114101171494,-0.0006102793850004673,0.0010433297138661146
1772043721823070700,4.64407080078125,0.000006253831088542938,-0.003326124045997858,-0.00012124120257794857
1772043721833057500,4.6540576171875,0.00015592388808727264,0.0008220154559239745,-0.00009301165118813515
1772043721843043800,4.6640439453125,-0.00039854180067777634,0.0017040605889633298,0.0016325693577528
1772043721853030700,4.67403076171875,-0.00006111990660429001,-0.0016081128269433975,0.0009739696979522705
1772043721863017000,4.684016845703125,-0.00046284403651952744,0.0017153535736724734,-0.001462922664359212
1772043721873003800,4.694003662109375,-0.00013234559446573257,-0.0018516844138503075,-0.0007151069585233927
1772043721882989600,4.703989501953125,-0.00017782952636480331,0.000649346737191081,0.002957127755507827
1772043721892976600,4.7139765625,-0.002829538658261299,0.0001595914363861084,-0.0008554537780582905
1772043721902962700,4.723962646484375,-0.0018454687669873238,0.00014877988724038005,0.0021064826287329197
1772043721912949800,4.73394970703125,-0.0002321256324648857,0.00005343870725482702,-0.0009670713916420937
1772043721922935800,4.743935791015625,0.00003967154771089554,0.00236708577722311,0.00005097058601677418
1772043721932923000,4.7539228515625,-0.0023252153769135475,-0.0011368353152647614,-0.0013573088217526674
1772043721942908700,4.76390869140625,-0.00022236444056034088,0.0018830886110663414,-0.0010036078747361898
1772043721952895700,4.773895751953125,0.00015234295278787613,-0.0032363058999180794,0.0021692821756005287
1772043721962882300,4.78388232421875,-0.0007666833698749542,-0.0017380939098075032,0.0004480117931962013
1772043721972869400,4.793869384765625,-0.0005048941820859909,-0.00021822788403369486,0.0007127299904823303
1772043721982855400,4.80385546875,-0.001804090104997158,-0.000047572917537763715,-0.0002652714028954506
1772043721992842500,4.813842529296875,0.0033962633460760117,0.00028399063739925623,0.001048732316121459
1772043722002828300,4.823828369140625,0.0023078545928001404,0.0007330115186050534,0.0005601940210908651
1772043722012815400,4.8338154296875,0.0022505968809127808,-0.00016980012878775597,0.0007865626830607653
1772043722022801400,4.843801513671875,0.0009484086185693741,-0.0015650804853066802,0.000017745420336723328
1772043722032788200,4.853788330078125,0.0002461336553096771,0.0023811915889382362,-0.00018625264056026936
1772043722042774500,4.8637744140625,0.0002733273431658745,-0.000949376670178026,-0.001130571123212576
1772043722052761300,4.87376123046875,-0.000403381884098053,0.0024014124646782875,-0.0001076508779078722
1772043722062747100,4.8837470703125,0.0012992722913622856,0.0006969518726691604,-0.0013582056853920221
1772043722072734500,4.893734375,0.000879291445016861,0.0019377185963094234,0.0003297058865427971
1772043722082720300,4.90372021484375,0.0008854111656546593,0.00023421418154612184,-0.0008499524556100368
1772043722092707300,4.913707275390625,-0.0007138177752494812,0.0007151810568757355,0.0009362299460917711
1772043722102693400,4.923693359375,0.000563494861125946,-0.0002152583037968725,-0.0010176387149840593
1772043722112680400,4.933680419921875,0.000432734377682209,-0.0008810486178845167,-0.0014029981102794409
1772043722122666200,4.943666259765625,-0.0007695881649851799,0.0001963393879123032,-0.0035776931326836348
1772043722132653300,4.9536533203125,0.0008940892294049263,0.0014549493789672852,0.001152080949395895
1772043722142639400,4.963639404296875,0.00006541889160871506,-0.0007017177995294333,-0.0012757342774420977
1772043722152626200,4.973626220703125,0.0007698256522417068,0.0018764884443953633,-0.002315698890015483
1772043722162612500,4.983612548828125,-0.0020743077620863914,-0.0031462658662348986,0.00008115149103105068
1772043722172599300,4.993599365234375,-0.0022604623809456825,0.0013286436442285776,0.0004936752375215292
1772043722182585300,5.00358544921875,0.0014507928863167763,-0.0005156758707016706,0.0013871821574866772
1772043722192572400,5.013572509765625,0.0005879281088709831,0.0007186993025243282,-0.00036863982677459717
1772043722202558200,5.02355810546875,-0.0012601418420672417,-0.0009293583570979536,0.001813537091948092
1772043722212545300,5.033545166015625,-0.0014268560335040092,0.0005353802116587758,-0.0013574887998402119
1772043722222531300,5.04353125,-0.001191476359963417,0.0020884592086076736,0.0017355849267914891
1772043722232518400,5.053518310546875,-0.0007019871845841408,0.0006721902173012495,0.0007523458916693926
1772043722242505200,5.063505126953125,0.0007369378581643105,0.0007127512944862247,-0.001331329345703125
1772043722252491300,5.0734912109375,-0.0014577731490135193,0.00001260626595467329,0.0010798966977745295
1772043722262478300,5.083478271484375,0.00022109411656856537,-0.0009178163018077612,0.0012796265073120594
1772043722272464400,5.09346435546875,-0.0017999792471528053,0.0011080503463745117,0.0005560456775128841
1772043722282451500,5.103451416015625,-0.0017859740182757378,-0.0002541493158787489,-0.0000822865404188633
1772043722292437200,5.113437255859375,0.00016399193555116653,-0.0014078307431191206,0.0006929596420377493
1772043722302424300,5.12342431640625,-0.0001879977062344551,0.0009462902089580894,-0.0006657745689153671
1772043722312410400,5.133410400390625,-0.00014485418796539307,0.0020328599493950605,0.0009259965736418962
1772043722322397200,5.143397216796875,-0.0015426799654960632,-0.0010743618477135897,0.0007262229919433594
1772043722332383500,5.153383544921875,0.0010272711515426636,0.0006937106954865158,-0.001033593900501728
1772043722342370300,5.163370361328125,0.002010357566177845,-0.0016726339235901833,0.0010318781714886427
1772043722352356400,5.1733564453125,-0.0018514925613999367,-0.0003903219767380506,0.0010582434479147196
1772043722362343400,5.183343505859375,-0.0013768328353762627,-0.000617892132140696,0.00006130174733698368
1772043722372329200,5.1933291015625,-0.0006545837968587875,0.000007684313459321856,-0.0000617362093180418
1772043722382316300,5.20331640625,-0.0004702834412455559,0.0008354728342965245,0.00029073283076286316
1772043722392302300,5.21330224609375,-0.000379735603928566,0.00033266801619902253,0.002979992888867855
1772043722402289400,5.223289306640625,0.00039936788380146027,0.0009305019630119205,0.0013771953526884317
1772043722412275200,5.233275146484375,-0.0035769985988736153,0.0004820255853701383,0.0005486859008669853
1772043722422262500,5.243262451171875,-0.0023168418556451797,-0.0003567254461813718,-0.0004816011060029268
1772043722432248300,5.253248291015625,-0.0002259938046336174,0.00033596274442970753,-0.0021183800417929888
1772043722442235100,5.263235107421875,-0.00004790350794792175,-0.0031824600882828236,0.0004806090146303177
1772043722452221400,5.273221435546875,-0.00021461769938468933,-0.002089499030262232,-0.0000834483653306961
1772043722462208300,5.283208251953125,-0.0005856305360794067,-0.000020995765225961804,-0.0014692789409309626
1772043722472194600,5.293194580078125,0.0011992203071713448,0.001663986244238913,-5.457550287246704e-7
1772043722482181400,5.303181396484375,0.0002761557698249817,-0.001017201691865921,-0.0007951974403113127
1772043722492167200,5.313167236328125,-0.00019495747983455658,-0.0006427611806429923,-0.0011709698010236025
1772043722502154200,5.323154296875,0.0000924495980143547,0.0031420539598912,0.001457515056245029
1772043722512140300,5.333140380859375,0.000508967787027359,-0.0007839780300855637,-0.0004061649087816477
1772043722522127400,5.34312744140625,0.000582624226808548,-0.0013984020333737135,0.0020428523421287537
1772043722532113400,5.353113525390625,0.0023845192044973373,0.0009188144467771053,-0.0011870295275002718
1772043722542100500,5.3631005859375,-0.00027096737176179886,-0.0018153166165575385,0.002770121907815337
1772043722552086300,5.373086181640625,-0.0010406207293272018,0.0017061810940504074,0.0006129615940153599
1772043722562073300,5.3830732421875,-0.001737283542752266,-0.0007729553617537022,0.0003111779224127531
1772043722572059400,5.393059326171875,0.00009284075349569321,0.0004872524586971849,-0.0013871202245354652
1772043722582046200,5.403046142578125,-0.0018836800009012222,0.0015721464296802878,-0.00012888549827039242
1772043722592032500,5.413032470703125,-0.0012192213907837868,0.0015236769104376435,0.0009454335086047649
1772043722602019300,5.423019287109375,-0.000543731264770031,-0.0011315873125568032,0.001656714011915028
1772043722612005000,5.433005126953125,0.0013247421011328697,0.002058879705145955,0.0011328703258186579
1772043722621992400,5.442992431640625,-0.0010980255901813507,0.0018723579123616219,-0.0033820115495473146
1772043722631978200,5.452978271484375,0.0007044011726975441,0.0024238985497504473,-0.0009659917559474707
1772043722641965300,5.46296533203125,-0.0005127768963575363,0.0021429313346743584,0.0015584424836561084
1772043722651951400,5.472951416015625,-0.0003047836944460869,-0.006267331540584564,-0.0009531849063932896
1772043722661938400,5.4829384765625,-0.00029492657631635666,-0.0013045164523646235,-0.001598029164597392
1772043722671924500,5.492924560546875,-0.0020512808114290237,0.008607503026723862,0.002493118867278099
1772043722681911300,5.502911376953125,-0.0010100984945893288,0.010296152904629707,0.0075843725353479385
1772043722691897300,5.5128974609375,-0.0035057468339800835,0.001540477853268385,0.012122132815420628
1772043722701884200,5.52288427734375,-0.0009188801050186157,-0.0015816952800378203,0.007495427969843149
1772043722711870500,5.532870361328125,-0.00540950195863843,-0.012193859554827213,0.00646292045712471
1772043722721857300,5.542857177734375,-0.00025592558085918427,-0.0045933970250189304,-0.0005671367980539799
1772043722731843300,5.55284326171875,0.0011227931827306747,0.0005374489119276404,-0.002526158234104514
1772043722741830400,5.562830322265625,-0.00021648313850164413,0.003822956932708621,-0.0031830081716179848
1772043722751816200,5.572816162109375,-0.0017150435596704483,-0.0018274718895554543,-0.0015755239874124527
1772043722761803300,5.58280322265625,0.00028168782591819763,0.0013668232131749392,0.0006590471602976322
1772043722771789300,5.592789306640625,0.0008444143459200859,-0.0007123067625798285,0.0008377453777939081
1772043722781776400,5.6027763671875,0.0017239702865481377,-0.001010147505439818,-0.00002970104105770588
1772043722791762400,5.612762451171875,-0.0010869968682527542,-0.00183173269033432,0.005418327637016773
1772043722801749200,5.622749267578125,0.0004290323704481125,0.00024405104340985417,0.0037128350231796503
1772043722811735300,5.6327353515625,-0.00028016697615385056,-0.0005975079257041216,0.003562632715329528
1772043722821722400,5.642722412109375,-0.0011984789744019508,0.0009423990268260241,0.000008019618690013885
1772043722831709400,5.65270947265625,0.0008819820359349251,-0.001217424520291388,0.0007526394911110401
1772043722841695200,5.6626953125,-0.00016804784536361694,-0.002581828972324729,0.0006725704297423363
1772043722851682300,5.672682373046875,0.0003840252757072449,-0.001235335017554462,-0.0012821897398680449
1772043722861668400,5.68266845703125,0.0020325202494859695,-0.0010624781716614962,0.0004979523364454508
1772043722871655200,5.6926552734375,-0.0017819255590438843,-0.002870231866836548,0.0003227163106203079
1772043722881641500,5.702641357421875,0.001029379665851593,-0.0019037716556340456,-0.0016646783333271742
1772043722891628300,5.712628173828125,-0.00015173200517892838,-0.000619861762970686,-0.0000188448466360569
1772043722901614300,5.7226142578125,-0.00019727181643247604,0.000599599676206708,0.0018392425263300538
1772043722911601400,5.732601318359375,-0.0006974134594202042,0.0028683466371148825,0.0027311351150274277
1772043722921587200,5.742587158203125,0.0021819230169057846,0.0008203767356462777,-0.00042749615386128426
1772043722931574300,5.75257421875,-0.0004695197567343712,0.0012632603757083416,0.0019917194731533527
1772043722941560300,5.762560302734375,0.00042709149420261383,0.0002777071204036474,0.0006331959739327431
1772043722951547400,5.77254736328125,0.0004087155684828758,-0.0002389461442362517,0.0008845983538776636
1772043722961533200,5.782533203125,0.00014283135533332825,0.0005961543065495789,0.002027975395321846
1772043722971520000,5.79252001953125,0.00019662734121084213,0.00413576140999794,0.0025843095500022173
1772043722981506000,5.802506103515625,-0.0019169095903635025,0.002055200282484293,-0.00009182165376842022
1772043722991492900,5.812492919921875,0.00015130173414945602,0.0008463915437459946,-0.000920863589271903
1772043723001479000,5.82247900390625,0.0010090097784996033,-0.00014377085608430207,0.0004449279513210058
1772043723011466000,5.832466064453125,-0.0017644064500927925,0.0015678427880629897,-0.00026001082733273506
1772043723021452000,5.8424521484375,-0.0010269628837704659,0.001818861928768456,0.002902774838730693
1772043723031439000,5.852439208984375,0.0008652126416563988,0.0025871838442981243,-0.000708471518009901
1772043723041425000,5.8624248046875,0.0025916919112205505,0.0008760691853240132,-0.0023894673213362694
1772043723051412200,5.872412109375,0.0017448067665100098,-0.0011956037487834692,0.00023161573335528374
1772043723061398000,5.88239794921875,0.000956980511546135,0.0021331983152776957,-0.0002212438266724348
1772043723071384800,5.892384765625,-0.0012004459276795387,0.00012730536400340497,0.00039953901432454586
1772043723081371100,5.90237109375,0.0006456747651100159,0.00000836129765957594,0.0011405132245272398
1772043723091358000,5.91235791015625,-0.0026364056393504143,-0.00000868295319378376,-0.0017018788494169712
1772043723101344000,5.922343994140625,0.0006538620218634605,0.004177540075033903,-0.00025175511837005615
1772043723111331000,5.9323310546875,0.00131219532340765,-0.0008648892398923635,-0.0002693319693207741
1772043723121316900,5.94231689453125,0.0005547963082790375,0.0017841586377471685,-0.000354657880961895
1772043723131304000,5.952303955078125,0.00016144756227731705,0.0011135746026411653,0.0028184987604618073
1772043723141290000,5.9622900390625,-0.00014654546976089478,0.0010483923833817244,0.000356871634721756
1772043723151277000,5.972277099609375,-0.00007437355816364288,-0.00014656793791800737,-0.001666598254814744
1772043723161263000,5.98226318359375,-0.0012474460527300835,-0.002153574489057064,-0.00001964205875992775
1772043723171250200,5.992250244140625,0.0001328699290752411,-0.0018068309873342514,-0.003300124080851674
1772043723181236000,6.002236083984375,0.0010158410295844078,0.0007842235499992967,-0.0009997724555432796
1772043723191222800,6.012222900390625,-0.0015317387878894806,0.0012409556657075882,0.0028527562972158194
1772043723201209000,6.022208984375,-0.0003169570118188858,0.004033463075757027,-0.003475163597613573
1772043723211196000,6.03219580078125,0.00128280371427536,-0.00528706843033433,0.00007110182195901871
1772043723221182200,6.04218212890625,0.0005519837141036987,0.003295052098110318,-0.00013119890354573727
1772043723231169000,6.0521689453125,0.0016404176130890846,0.0009991409024223685,0.0004994375631213188
1772043723241154800,6.06215478515625,0.0005336804315447807,-0.0005411319434642792,-0.0010373257100582123
1772043723251142100,6.07214208984375,-0.00046287477016448975,-0.0007738922722637653,-0.0002801890950649977
1772043723261128000,6.0821279296875,-0.000751161016523838,-0.0021673557348549366,-0.00019866484217345715
1772043723271115000,6.092114990234375,0.0013178493827581406,-0.00023949332535266876,-0.0014357028994709253
1772043723281101000,6.10210107421875,0.0009976048022508621,-0.0011015585623681545,-0.0014195139519870281
1772043723291088100,6.112088134765625,-0.0017513101920485497,-0.0008120728889480233,-0.001694618258625269
1772043723301074000,6.122073974609375,0.002180062234401703,-0.001715302118100226,-0.00009784637950360775
1772043723311061000,6.13206103515625,0.0018596835434436798,-0.000719279982149601,0.0020148393232375383
1772043723321047000,6.142047119140625,0.0014243479818105698,-0.0011235487181693316,0.0015773759223520756
1772043723331033900,6.152033935546875,-0.0007727602496743202,0.0005454543279483914,0.0004569839220494032
1772043723341020200,6.162020263671875,0.0016766227781772614,0.00009111905819736421,0.0007400563918054104
1772043723351007000,6.172007080078125,0.0019551897421479225,-0.0010220822878181934,-0.0028429606463760138
1772043723360993000,6.181992919921875,0.002045930363237858,-0.00018534972332417965,0.001712761470116675
1772043723370980000,6.19197998046875,-0.0004824744537472725,-0.001444758614525199,0.0013550989096984267
1772043723380966000,6.2019658203125,0.0005278484895825386,0.0003213995951227844,-0.00023247883655130863
1772043723390952200,6.2119521484375,0.0012194719165563583,-0.0010109798749908805,-0.0017736500594764948
1772043723400939000,6.22193896484375,0.002398979850113392,-0.001059262314811349,0.0002845190465450287
1772043723410924800,6.2319248046875,0.0008101379498839378,0.00021639189799316227,0.00010022823698818684
1772043723420912000,6.241912109375,0.002077026292681694,0.0007687746547162533,-0.0008982648141682148
1772043723430899000,6.25189892578125,-0.0006822748109698296,0.0001722265442367643,-0.0012197080068290234
1772043723440885000,6.261885009765625,-0.0009991414844989777,0.0023845855612307787,0.0013784313341602683
1772043723450871000,6.27187109375,0.0013012969866394997,0.0027318617794662714,-0.002479423535987735
1772043723460858000,6.281858154296875,0.0013100532814860344,0.0008648220682516694,0.0013853323180228472
1772043723470844000,6.291843994140625,0.00011083204299211502,0.0008112925570458174,0.0004649439360946417
1772043723480831000,6.3018310546875,0.0009301621466875076,0.0002438689407426864,0.00007069343701004982
1772043723490817000,6.311817138671875,-0.000444561243057251,0.0011959490366280079,0.003397247986868024
1772043723500803800,6.321803955078125,0.001406700350344181,0.0022575429175049067,0.0003389837220311165
1772043723510790100,6.3317900390625,-0.0017872285097837448,0.0025286527816206217,0.0003006341867148876
1772043723520777000,6.34177685546875,0.00023054052144289017,-0.0010201236000284553,0.00013008806854486465
1772043723530763000,6.351762939453125,-0.00013031810522079468,0.002405234146863222,0.001591897220350802
1772043723540750000,6.36175,0.0033710049465298653,0.0022010330576449633,-0.000024548498913645744
1772043723550736000,6.37173583984375,-0.0009734099730849266,0.0017080819234251976,-0.0012434772215783596
1772043723560723000,6.381722900390625,-0.0010592928156256676,-0.0007654788787476718,0.0011073446366935968
1772043723570709000,6.391708984375,0.0006435327231884003,0.0008619788568466902,-0.0003081255126744509
1772043723580696000,6.401696044921875,-0.0035112518817186356,0.001719293650239706,0.0010510545689612627
1772043723590682000,6.41168212890625,0.0041844844818115234,0.00010275491513311863,0.0024015435483306646
1772043723600669000,6.4216689453125,-0.000924527645111084,-0.0016685862792655826,-0.001161488238722086
1772043723610655000,6.431655029296875,0.0009599244222044945,-0.0006067840149626136,0.0002579765859991312
1772043723620642000,6.44164208984375,-0.000501338392496109,-0.0009339311509393156,0.0012067833449691534
1772043723630628000,6.451628173828125,-0.0004744408652186394,0.00022853865812066942,0.0036433094646781683
1772043723640615000,6.461614990234375,0.002818820998072624,0.004499445669353008,0.008791504427790642
1772043723650601000,6.47160107421875,0.0022094901651144028,0.0011894030030816793,-0.002069399692118168
1772043723660588000,6.481588134765625,0.00045507121831178665,0.005149540025740862,-0.00137011194601655
1772043723670573800,6.49157373046875,0.0009669307619333267,0.005774317774921656,0.004220928065478802
1772043723680561200,6.50156103515625,0.0000560171902179718,0.0025911566335707903,0.0033119861036539078
1772043723690547000,6.511546875,0.0007316619157791138,-0.0015404715668410063,-0.00017702137120068073
1772043723700534000,6.521533935546875,0.0012794947251677513,-0.0027026080060750246,-0.0037112708669155836
1772043723710520000,6.53152001953125,0.0015623224899172783,-0.0012578429887071252,-0.0010347936768084764
1772043723720507000,6.5415068359375,-0.0012489501386880875,0.0018826888408511877,0.0017457493813708425
1772043723730493200,6.5514931640625,0.003417973406612873,-0.001594067900441587,0.0021353699266910553
1772043723740480000,6.56147998046875,-0.0000627497211098671,0.0008728712564334273,0.0010942926164716482
1772043723750466000,6.571466064453125,0.0009284783154726028,-0.003483793931081891,-0.00045113987289369106
1772043723760452900,6.581452880859375,0.0009984783828258514,-0.0020676597487181425,0.0009874352253973484
1772043723770439000,6.59143896484375,0.00011936947703361511,-0.0005515222437679768,0.0028050425462424755
1772043723780426000,6.601426025390625,0.002629145048558712,-0.0009272124152630568,0.0014986080350354314
1772043723790412000,6.611412109375,0.0021918537095189095,0.0012416659155860543,0.0011659793090075254
1772043723800399000,6.621399169921875,-0.0008117435500025749,-0.0005597948329523206,-0.00022797309793531895
1772043723810385000,6.631385009765625,0.0005259625613689423,-0.0005627243081107736,0.0005552624352276325
1772043723820372200,6.641372314453125,0.00031059514731168747,0.0018442447762936354,0.0008776355534791946
1772043723830358000,6.65135791015625,-0.00044121500104665756,-0.001798959681764245,0.001169784227386117
1772043723840344800,6.6613447265625,0.0016787219792604446,0.00016302071162499487,0.00015860097482800484
1772043723850331100,6.6713310546875,0.0011231862008571625,-0.00308683468028903,-0.0007809624075889587
1772043723860318000,6.68131787109375,-0.0016240794211626053,-0.00027538606082089245,0.000024020671844482422
1772043723870304000,6.691303955078125,0.0006720982491970062,-0.002587009919807315,0.00047729071229696274
1772043723880291000,6.701291015625,-0.00046854279935359955,-0.0026427507400512695,-0.0002237639855593443
1772043723890276900,6.71127685546875,0.0021283049136400223,0.0009413313819095492,0.0009387056343257427
1772043723900263200,6.72126318359375,0.0005886498838663101,-0.000096239207778126,-0.0022830490488559008
1772043723910250000,6.73125,0.000605960376560688,-0.0031000187154859304,-0.0023283229675143957
1772043723920236000,6.741236083984375,0.0004623839631676674,0.00023331132251769304,-0.0013897025492042303
1772043723930223000,6.75122314453125,-0.0004795752465724945,0.00014516068040393293,0.00024787522852420807
1772043723940209000,6.761208984375,-0.0007255598902702332,-0.001443863264285028,-0.00043711578473448753
1772043723950196000,6.771196044921875,0.0002638045698404312,0.0002395208430243656,0.0012374799698591232
1772043723960181800,6.781181640625,-0.0010245302692055702,0.0027545092161744833,-0.002269286196678877
1772043723970168800,6.7911689453125,-0.0006578126922249794,-0.0038064545951783657,-0.0008167978376150131
1772043723980155000,6.80115478515625,0.0005320366472005844,0.0004956663469783962,-0.0029230015352368355
1772043723990142000,6.811141845703125,-0.0014605410397052765,0.004105048719793558,-0.0017781085334718227
1772043724000127700,6.821127685546875,-0.0034483959898352623,0.0007875319570302963,-0.0002533900551497936
1772043724010114800,6.83111474609375,-0.0020462414249777794,0.0002154849935323,-0.0026726056821644306
1772043724020100900,6.841100830078125,-0.001361532136797905,0.001456035184673965,-0.0014556157402694225
1772043724030087700,6.851087646484375,-0.0006448747590184212,-0.001474507269449532,0.00039874319918453693
1772043724040074000,6.861073974609375,0.0009590871632099152,-0.0009373653447255492,-0.001048272242769599
1772043724050060800,6.871060791015625,-0.0002635698765516281,0.0030038466211408377,-0.001537494594231248
1772043724060046800,6.881046875,0.00075539480894804,0.0015687864506617188,-0.001946100266650319
1772043724070033700,6.89103369140625,0.00047789327800273895,-0.0009127469966188073,-0.0004456751048564911
1772043724080019700,6.901019775390625,-0.0016728537157177925,0.0013482056092470884,-0.004289237782359123
1772043724090006800,6.9110068359375,-0.0009854920208454132,-0.00007711828220635653,-0.00012778211385011673
1772043724099992800,6.920992919921875,0.0007883533835411072,0.0008863137336447835,-0.0027019716799259186
1772043724109980000,6.93097998046875,0.0018850434571504593,0.0010618160013109446,-0.0008111270144581795
1772043724119965700,6.940965576171875,0.00016753282397985458,0.0004079921345692128,-0.00007009669207036495
1772043724129953000,6.950953125,0.0018599722534418106,-0.0007014807779341936,0.0010835847351700068
1772043724139938800,6.960938720703125,0.0015442147850990295,-0.0026356177404522896,0.0012654175516217947
1772043724149925600,6.970925537109375,0.0019455524161458015,-0.00037699079257436097,-0.0021381021942943335
1772043724159912000,6.980911865234375,-0.0008251108229160309,0.0007329967338591814,-0.000686286948621273
1772043724169898800,6.990898681640625,0.0007237838581204414,0.0005178133142180741,0.0007331781089305878
1772043724179884800,7.000884765625,-0.000999152660369873,0.0003645458782557398,-0.0007494010496884584
1772043724189871900,7.010871826171875,0.001882120966911316,0.0009456475963816047,-0.0006098514422774315
1772043724199857700,7.020857666015625,0.0010709604248404503,0.00039232595008797944,-0.00013974029570817947
1772043724209844700,7.0308447265625,0.002475511282682419,0.0020685195922851562,0.001099428627640009
1772043724219830800,7.040830810546875,-0.00042259693145751953,-0.0012410084018483758,-0.0006304099224507809
1772043724229817900,7.05081787109375,-0.0018657641485333443,0.000009345676517114043,-0.0006413287483155727
1772043724239804000,7.060803955078125,0.0018516266718506813,-0.0010130383307114244,0.0004593620542436838
1772043724249789700,7.070789794921875,-0.0014166049659252167,-0.0010628394084051251,0.0006598979234695435
1772043724259776800,7.08077685546875,-0.0006016725674271584,-0.001549518434330821,0.0007730238139629364
1772043724269762800,7.0907626953125,0.0009573418647050858,-0.0008400523220188916,-0.00014709844253957272
1772043724279750000,7.10075,0.001253332942724228,0.0003095028514508158,-0.0024995398707687855
1772043724289735700,7.110735595703125,-0.000015662983059883118,-0.002980033867061138,0.0022241086699068546
1772043724299723000,7.120722900390625,0.0011260341852903366,0.0008634403347969055,0.0007226185407489538
1772043724309708800,7.130708740234375,0.0006553782150149345,-0.00001830194378271699,0.0011774664744734764
1772043724319695600,7.140695556640625,-0.00025505758821964264,-0.001045395852997899,0.0005982888396829367
1772043724329682000,7.150681884765625,-0.0007277680560946465,0.0006417167605832219,0.0011117463000118732
1772043724339668700,7.160668701171875,-0.0017609642818570137,0.0014256411232054234,-0.0007711891084909439
1772043724349655000,7.170655029296875,-0.0015143556520342827,-0.00047985059791244566,0.0023564270231872797
1772043724359641900,7.180641845703125,0.00060281902551651,0.0036762128584086895,-0.0012171186972409487
1772043724369627600,7.190627685546875,-0.0028976397588849068,0.0012290342710912228,0.0038050704170018435
1772043724379614700,7.20061474609375,0.000912519171833992,0.000031234114430844784,0.0021103359758853912
1772043724389600800,7.210600830078125,-0.00024569034576416016,-0.00005691652768291533,-0.0001536174677312374
1772043724399587800,7.220587890625,-0.0027273083105683327,0.0003573771973606199,0.0025085972156375647
1772043724409574000,7.230573974609375,-0.0011397972702980042,0.00024978548754006624,0.002327502239495516
1772043724419561000,7.24056103515625,0.0005675153806805611,0.0006694984622299671,0.0011712799314409494
1772043724429546800,7.250546630859375,-0.0013321172446012497,-0.0032418863847851753,0.0010682155843824148
1772043724439533800,7.260533935546875,-0.0015416927635669708,0.0007139264489524066,0.001781014958396554
1772043724449519900,7.270519775390625,-0.0026394473388791084,-0.001070125144906342,0.00098925712518394
1772043724459506700,7.280506591796875,-0.0007797963917255402,-0.0001996082137338817,0.0010369268711656332
1772043724469493000,7.290492919921875,0.0006918665021657944,-0.0015077529242262244,0.0022734326776117086
1772043724479479800,7.300479736328125,-0.0002346998080611229,0.002497166395187378,-0.00020297011360526085
1772043724489465600,7.310465576171875,-0.001486917957663536,-0.000025912566343322396,-0.0005944548174738884
1772043724499452000,7.320451904296875,0.0003874311223626137,-0.0009230620926246047,-0.000928852241486311
1772043724509438700,7.330438720703125,0.0023685572668910027,0.0019699297845363617,-0.0005703908391296864
1772043724519425000,7.340425048828125,-0.00020903721451759338,0.0008301862399093807,-0.002962245838716626
1772043724529411800,7.350411865234375,0.002320699393749237,0.0018501768354326487,-0.000021583400666713715
1772043724539397600,7.360397705078125,0.0011164303869009018,-0.0008797761984169483,-0.00026519293896853924
1772043724549385000,7.370385009765625,-0.0013288836926221848,0.000029693328542634845,-0.002183734206482768
1772043724559370800,7.380370849609375,-0.0008054766803979874,0.0005913453060202301,0.00032949773594737053
1772043724569357800,7.39035791015625,-0.0005516773089766502,-0.00039935059612616897,0.0002639838494360447
1772043724579344000,7.40034375,0.001418769359588623,0.0014274560380727053,-0.00006828457117080688
1772043724589331000,7.4103310546875,0.0008184928447008133,0.0005528738256543875,-0.0007263517472893
1772043724599316700,7.420316650390625,0.0012739626690745354,-0.0013816730352118611,-0.0013969361316412687
1772043724609303800,7.4303037109375,0.0004901941865682602,-0.0008692808914929628,-0.0010464645456522703
1772043724619289900,7.440289794921875,-0.0005143154412508011,-0.0014561379794031382,0.0007384982891380787
1772043724629276700,7.450276611328125,0.000022045336663722992,-0.0017347047105431557,-0.0011685912031680346
1772043724639263000,7.460262939453125,-0.001817053183913231,-0.00025412486866116524,-0.000050736358389258385
1772043724649249800,7.470249755859375,0.00030521955341100693,-0.0014634663239121437,-0.0013969643041491508
1772043724659235800,7.48023583984375,0.0022521493956446648,0.0006547842640429735,-0.0026214211247861385
1772043724669223000,7.490222900390625,-0.0009329915046691895,0.0005583778256550431,-0.0009172647260129452
1772043724679208700,7.500208740234375,0.002114200033247471,-0.0019713928923010826,0.00030056294053792953
1772043724689195800,7.51019580078125,0.00043188128620386124,0.0019482476636767387,0.0005687433294951916
1772043724699181800,7.520181884765625,-0.0007653022184967995,0.000053614028729498386,0.0005595043767243624
1772043724709169000,7.5301689453125,0.0007313936948776245,0.0005359124625101686,-0.001054371241480112
1772043724719155000,7.540155029296875,-0.0002339417114853859,-0.0000319544633384794,-0.0023402958177030087
1772043724729141800,7.550141845703125,-0.0021996209397912025,0.0007054748712107539,-0.0010260255075991154
1772043724739127800,7.5601279296875,0.0012810342013835907,-0.002061332343146205,-0.0018442373257130384
1772043724749113900,7.57011376953125,0.000035740435123443604,0.0014247455401346087,0.0025915238074958324
1772043724759101000,7.580100830078125,0.0006846589967608452,0.0003248040738981217,-0.000096574192866683
1772043724769086700,7.590086669921875,-0.0014930078759789467,0.00009683749522082508,-0.0017557237297296524
1772043724779073800,7.60007373046875,-0.0002647852525115013,-0.002638487610965967,-0.0009813762735575438
1772043724789059800,7.610059814453125,-0.002471214160323143,-0.0014903988922014832,-0.0012620731722563505
1772043724799046700,7.620046630859375,0.0006340499967336655,0.00021742351236753166,-0.001081376802176237
1772043724809033000,7.630032958984375,-0.0011095218360424042,0.0019175854977220297,-0.0003159844782203436
1772043724819019800,7.640019775390625,-0.0006344830617308617,0.0012773113558068871,-0.0010882760398089886
1772043724829005800,7.650005859375,0.001369013451039791,0.0015465569449588656,0.0016752860974520445
1772043724838993000,7.659992919921875,-0.0012529781088232994,0.0018071144586429,0.0038706001359969378
1772043724848978700,7.669978759765625,-0.00040928833186626434,0.0019751600921154022,-0.0021034027449786663
1772043724858965800,7.6799658203125,-0.0006538331508636475,-0.0005537157994695008,0.0007022630888968706
1772043724868951800,7.689951904296875,-0.001324417069554329,0.00003457642742432654,-0.000824793241918087
1772043724878939000,7.69993896484375,-0.0016088886186480522,-0.0002552085788920522,0.0009573062416166067
1772043724888925000,7.709925048828125,0.0010803714394569397,0.00037675953353755176,-0.00037960056215524673
1772043724898911700,7.719911865234375,0.0004624929279088974,-0.0011758786858990788,0.0009269032161682844
1772043724908897800,7.729897705078125,-0.000910632312297821,-0.0007124886615201831,-0.00025580660440027714
1772043724918884900,7.739884765625,-0.00024970900267362595,0.0022109346464276314,-0.00013281055726110935
1772043724928871000,7.749870849609375,0.0010259449481964111,0.00030997017165645957,0.002348989248275757
1772043724938857700,7.759857666015625,-0.0007586358115077019,-0.00009141574264504015,-0.0011678340379148722
1772043724948843800,7.76984375,-0.00026701670140028,-0.0022043678909540176,-0.00042427959851920605
1772043724958829800,7.779829833984375,-0.0005004927515983582,-0.0006543277995660901,0.00014262599870562553
1772043724968817000,7.78981689453125,-0.0007982337847352028,0.0036168498918414116,0.00221429904922843
1772043724978803000,7.799802978515625,0.002170916646718979,0.0016712612705305219,-0.00014830171130597591
1772043724988790000,7.8097900390625,0.0005186917260289192,0.002411619992926717,0.000921489903703332
1772043724998776000,7.819776123046875,-0.0018279924988746643,-0.0009687585989013314,-0.00009462283924221992
1772043725008763000,7.829762939453125,0.001579255796968937,-0.000869422685354948,-0.0015700140502303839
1772043725018749000,7.8397490234375,0.001960126683115959,0.0024749538861215115,0.0017289111856371164
1772043725028736000,7.849736083984375,0.0015673097223043442,0.0011015618219971657,0.002828264143317938
1772043725038722000,7.85972216796875,0.0012459727004170418,-0.0012678832281380892,-0.0004013713914901018
1772043725048708900,7.869708984375,0.0018166881054639816,0.0003902008756995201,-0.0009744835551828146
1772043725058695000,7.87969482421875,-0.00046303030103445053,-0.00006177698378451169,-0.000026827678084373474
1772043725068682000,7.889681884765625,-0.0005743503570556641,-0.0012471498921513557,0.0032853458542376757
1772043725078667800,7.899667724609375,0.000754769891500473,0.00048143885214813054,0.00012063281610608101
1772043725088655000,7.909655029296875,0.0003808625042438507,0.0006369674811139703,0.0018764549167826772
1772043725098641000,7.919640869140625,-0.000047954730689525604,0.0002213276457041502,0.0009512226097285748
1772043725108628000,7.9296279296875,0.00027721747756004333,0.0018016474787145853,0.0018543004989624023
1772043725118614000,7.939614013671875,0.0011455798521637917,0.0018839073600247502,0.00007248134352266788
1772043725128600800,7.949600830078125,-0.00016576051712036133,-0.0005456944927573204,-0.0002103464212268591
1772043725138587000,7.9595869140625,0.0022940896451473236,0.001999433385208249,0.00025464314967393875
1772043725148573000,7.969572998046875,-0.0007429793477058411,0.0010398963931947947,0.00326428166590631
1772043725158560000,7.97956005859375,-0.002699664793908596,-0.00015799666289240122,-0.0007406873628497124
1772043725168546000,7.989546142578125,0.0011664461344480515,0.002273203106597066,-0.0017974297516047955
1772043725178532900,7.999532958984375,-0.0018948297947645187,0.0015869778580963612,0.0015585321234539151
1772043725188519000,8.009518798828125,-0.0029766056686639786,-0.00014221257879398763,-0.0001831750851124525
1772043725198506000,8.019506103515624,-0.0024177376180887222,0.001018847106024623,-0.0004381975159049034
1772043725208492000,8.029491943359375,-0.001622251234948635,0.0012681190855801105,0.0018984598573297262
1772043725218478800,8.039478759765625,0.001154051162302494,-0.0006102094193920493,0.00016468134708702564
1772043725228465000,8.04946484375,0.00006109010428190231,-0.004074981901794672,-0.002440422773361206
1772043725238452000,8.059451904296875,-0.0005091363564133644,0.0011072306660935283,-0.000871721189469099
1772043725248437800,8.069437744140625,0.001990506425499916,0.0017623682506382465,-0.0015566861256957054
1772043725258425000,8.079425048828124,0.0013417229056358337,-0.0005553396767936647,0.000599835067987442
1772043725268411000,8.089410888671875,-0.002766469493508339,0.0010526769328862429,-0.0002587679773569107
1772043725278398000,8.09939794921875,0.0012841559946537018,-0.0021477004047483206,-0.0006649054121226072
1772043725288384000,8.109384033203124,0.0010796254500746727,0.000338626850862056,0.0008775976020842791
1772043725298370800,8.119370849609375,-0.0032760435715317726,0.0009518782026134431,0.0008023136761039495
1772043725308357000,8.129357177734375,0.001509922556579113,-0.00237387721426785,0.0015192365972325206
1772043725318344000,8.139343994140624,-0.0015091923996806145,-0.00009485692135058343,-0.0018375013023614883
1772043725328330000,8.149330078125,-0.002795233391225338,0.0015717493370175362,-0.002150422427803278
1772043725338316000,8.15931591796875,0.0026000533252954483,-0.0009918329305946827,0.0005175457336008549
1772043725348302800,8.169302734375,-0.0004780283197760582,0.00023375372984446585,0.0011737486347556114
1772043725358289000,8.179288818359375,0.00015192758291959763,-0.002074571792036295,-0.0005998932756483555
1772043725368276000,8.18927587890625,0.0012472858652472496,-0.00285727484151721,-0.000756487250328064
1772043725378262000,8.199261962890626,0.0003069378435611725,0.002064601518213749,0.0012083882465958595
1772043725388248800,8.209248779296875,-0.0001399405300617218,-0.0016419861931353807,-0.000497366301715374
1772043725398235000,8.21923486328125,0.0032786019146442413,-0.0005499683320522308,-0.0013107736594974995
1772043725408222000,8.229221923828124,-0.0022123046219348907,0.00006282501271925867,0.0001169468741863966
1772043725418208000,8.2392080078125,-0.0012425044551491737,0.003377270884811878,-0.001232207752764225
1772043725428195000,8.249195068359375,-0.0002635270357131958,-0.00028883659979328513,-0.0005254046991467476
1772043725438180900,8.259180908203126,0.0028097881004214287,0.00030727105331607163,-0.00013104965910315514
1772043725448168000,8.26916796875,0.0007514311000704765,-0.0009492083336226642,0.0008892074692994356
1772043725458154000,8.279154052734375,0.0023315642029047012,0.0007585043204016984,0.000003906432539224625
1772043725468140800,8.289140869140626,0.0022916169837117195,-0.00009184301597997546,-0.0005937069654464722
1772043725478127000,8.299127197265625,0.001117158681154251,-0.000938170647714287,-0.0011850895825773478
1772043725488114000,8.309114013671875,0.0018415385857224464,-0.0002755761961452663,-0.0004359420854598284
1772043725498100000,8.319099853515626,0.00002581533044576645,-0.000255849736277014,-0.0033628654200583696
1772043725508086000,8.3290859375,0.0000782795250415802,0.0012720057275146246,-0.0006637515034526587
1772043725518072800,8.33907275390625,-0.0006988104432821274,0.00028692270279861987,-0.0024347256403416395
1772043725528059000,8.349058837890626,0.001354753039777279,-0.0002907169400714338,-0.001782517647370696
1772043725538046000,8.3590458984375,0.0010124389082193375,0.0000575688318349421,0.00011947611346840858
1772043725548032000,8.369031982421875,0.00034638214856386185,0.002395291579887271,0.0002797984052449465
1772043725558018800,8.379018798828126,0.00046971626579761505,-0.0000988476094789803,0.0002348329871892929
1772043725568004900,8.3890048828125,0.0006430884823203087,-0.0002980520366691053,-0.0016197923105210066
1772043725577992000,8.398991943359375,-0.00019852910190820694,0.0009968753438442945,-0.00039294338785111904
1772043725587978000,8.40897802734375,0.002461436204612255,0.00023867335403338075,-0.0003607191611081362
1772043725597965000,8.418965087890625,-0.0006666611880064011,0.00006974508869461715,0.0024672909639775753
1772043725607950800,8.428950927734375,0.000020167790353298187,0.0008985208114609122,0.0008731228299438953
1772043725617938000,8.43893798828125,-0.002046278677880764,0.0018127975054085255,-0.0020988599862903357
1772043725627924000,8.448924072265624,0.00119825080037117,0.0016729815397411585,0.0010252941865473986
1772043725637910000,8.458909912109375,-0.00007504317909479141,0.0012511105742305517,0.0022228658199310303
1772043725647897000,8.46889697265625,-0.0015139486640691757,-0.00005490367766469717,-0.0032965352293103933
1772043725657883000,8.4788828125,-0.0031970450654625893,0.00019381981110200286,-0.0013887754175812006
1772043725667870000,8.488869873046875,-0.0005282917991280556,0.0007783836917951703,-0.00008142972365021706
1772043725677856000,8.49885595703125,0.0024754228070378304,-0.0002854284248314798,-0.0002828892320394516
1772043725687842800,8.5088427734375,0.0014692805707454681,0.0007257738616317511,0.0015182066708803177
1772043725697829000,8.5188291015625,-0.0002878298982977867,0.00010223127901554108,-0.0009689887519925833
1772043725707816000,8.52881591796875,-0.0001911567524075508,0.00090837012976408,-0.0010890972334891558
1772043725717802000,8.538802001953124,-0.0013199951499700546,-0.0022116429172456264,0.0018964138580486178
1772043725727788800,8.548788818359375,-0.002026798203587532,-0.0006134799914434552,0.001105721341446042
1772043725737774800,8.55877490234375,0.0008116737008094788,-0.0015727822901681066,0.0005155692342668772
1772043725747762000,8.568761962890624,-0.0015039453282952309,0.0023923981934785843,0.0017278400482609868
1772043725757748000,8.578748046875,0.002048770897090435,-0.0031068362295627594,-0.0004690103232860565
1772043725767735000,8.588735107421876,0.0016287900507450104,0.0005584722966887057,0.00033233477734029293
1772043725777720800,8.598720947265624,0.00040521472692489624,0.0016444169450551271,0.00045390590094029903
1772043725787708200,8.608708251953125,-0.0011857571080327034,-0.0002626726927701384,0.0003638912457972765
1772043725797694000,8.61869384765625,0.0008105263113975525,0.0003962886403314769,-0.0002847309224307537
1772043725807680000,8.628679931640624,0.0006624544039368629,0.0018679513595998287,-0.00018539512529969215
1772043725817667000,8.6386669921875,-0.000529903918504715,0.0007198957027867436,0.0021869027987122536
1772043725827652900,8.64865283203125,0.0005129892379045486,-0.0032431543804705143,-0.00016360310837626457
1772043725837640000,8.658639892578124,-0.00031019095331430435,-0.00008164678001776338,-0.0012302461545914412
1772043725847626000,8.6686259765625,-0.0006926208734512329,0.0029317201115190983,0.000019308878108859062
1772043725857612800,8.67861279296875,0.0007899384945631027,0.0007156723877415061,0.0016347626224160194
1772043725867599000,8.68859912109375,0.000006969086825847626,-0.004341670777648687,0.0003327431622892618
1772043725877586000,8.6985859375,-0.0007454501464962959,-0.000628105248324573,-0.0003821812570095062
1772043725887572000,8.708572021484375,0.0008758818730711937,0.00009760618559084833,-0.0013198803644627333
1772043725897559000,8.71855908203125,0.0011847009882330894,-0.0028784230817109346,0.001283138059079647
1772043725907544800,8.728544921875,0.0008185161277651787,-0.002159902360290289,0.0008082964923232794
1772043725917532000,8.738531982421875,-0.00037313904613256454,-0.0005963188596069813,0.0007500553037971258
1772043725927518000,8.74851806640625,-0.0006013726815581322,-0.0011361415963619947,0.00035537476651370525
1772043725937505000,8.758505126953125,0.0017246771603822708,0.0008810935541987419,0.0016047056997194886
1772043725947490800,8.76849072265625,0.00025567784905433655,0.0003588476683944464,-0.0009793597273528576
1772043725957476900,8.778476806640626,-0.0006390633061528206,-0.002181034069508314,-0.00023538595996797085
1772043725967463700,8.788463623046875,-0.0006358679383993149,0.0014413978205993772,-0.0003206070978194475
1772043725977450000,8.798449951171875,0.0010418612509965897,-0.0009151336271315813,0.001220207428559661
1772043725987436800,8.808436767578126,0.0013611745089292526,-0.000988903222605586,0.00028224196285009384
1772043725997422800,8.8184228515625,-0.0013079196214675903,-0.0033075183164328337,-0.002036428777500987
1772043726007410000,8.828409912109375,-0.0010477295145392418,0.001665402203798294,0.0017364716622978449
1772043726017395700,8.838395751953126,-0.0001662950962781906,0.0007678775582462549,-0.00011681881733238697
1772043726027382800,8.8483828125,0.00045928172767162323,0.00015801365952938795,0.00039477436803281307
1772043726037368800,8.858368896484375,-0.0025806017220020294,0.001105095841921866,-0.0012385370209813118
1772043726047356000,8.86835595703125,-0.0002721743658185005,0.001833736663684249,0.0014254229608923197
1772043726057341700,8.878341796875,-0.002137579023838043,-0.00012038680142723024,-0.0003324772696942091
1772043726067329000,8.8883291015625,0.0006693927571177483,0.001622385811060667,-0.001031290739774704
1772043726077314800,8.898314697265626,-0.0023777903988957405,-0.00021779531380161643,0.0021546371281147003
1772043726087300900,8.90830078125,0.0010462356731295586,0.001925516640767455,0.0005037435330450535
1772043726097288000,8.918287841796875,0.00014583952724933624,0.000015489815268665552,0.00029186950996518135
1772043726107273700,8.928273681640626,-0.00032234378159046173,0.00032574808574281633,0.00011663348414003849
1772043726117261000,8.938260986328125,-0.0016382616013288498,0.0008189805084839463,-0.0018656346946954727
1772043726127246800,8.948246826171875,-0.0021051140502095222,0.0006522666662931442,-0.000988389365375042
1772043726137233700,8.958233642578126,-0.0009063491597771645,-0.0003302713157609105,-0.0007609704043716192
1772043726147220000,8.968219970703124,0.00021564029157161713,-0.0005499821272678673,-0.00020836456678807735
1772043726157206800,8.978206787109375,0.00016056373715400696,-0.0007981946691870689,-0.002210263628512621
1772043726167192800,8.98819287109375,-0.0006189430132508278,-0.0008767578983679414,-0.0015237010084092617
1772043726177180000,8.998179931640625,-0.0011341134086251259,0.0027526370249688625,0.0005946473684161901
1772043726187165700,9.008165771484375,-0.0004499470815062523,0.0008346284157596529,-0.0024062024895101786
1772043726197152800,9.01815283203125,0.0002902066335082054,-0.002555526327341795,-0.0004625963047146797
1772043726207138800,9.028138916015624,0.002330188639461994,0.0002240147441625595,0.00005645398050546646
1772043726217124900,9.038124755859375,0.002310503274202347,0.0008250258397310972,-0.0019538733176887035
1772043726227112000,9.04811181640625,-0.0009593265131115913,0.00016988821153063327,-0.0005708939861506224
1772043726237097700,9.05809765625,0.0009319931268692017,-0.0007911873981356621,-0.0007990130688995123
1772043726247084800,9.068084716796875,0.00042572617530822754,0.00009244945249520242,0.0006667906418442726
1772043726257070800,9.07807080078125,0.0008562933653593063,-0.002234624233096838,0.0005818589124828577
1772043726267058000,9.088057861328124,-0.0006252238526940346,0.0019497342873364687,-0.00036809081211686134
1772043726277043700,9.098043701171875,0.00026166439056396484,-0.0008383443928323686,-0.00003788154572248459
1772043726287031000,9.108031005859376,-0.0011932207271456718,-0.0006431346409954131,-0.002383061219006777
1772043726297016800,9.118016845703124,0.00046589598059654236,0.00019392686954233795,-0.00020224973559379578
1772043726307003600,9.128003662109375,0.002093353308737278,-0.0005722645437344909,0.00015621189959347248
1772043726316990000,9.137989990234376,-0.0009942129254341125,0.0011205921182408929,0.0004569930024445057
1772043726326976800,9.147976806640624,0.0006047487258911133,0.00048303132643923163,-0.00034062378108501434
1772043726336962800,9.157962890625,-0.0007640812546014786,0.000830198812764138,-0.0013528256677091122
1772043726346948900,9.167948974609375,0.0000899946317076683,0.0005526973982341588,-0.00040873512625694275
1772043726356935700,9.177935791015624,-0.001783117651939392,0.0005279695615172386,-0.00213767122477293
1772043726366922000,9.187921875,0.0005444856360554695,0.00041398630128242075,0.0006250920705497265
1772043726376908800,9.19790869140625,0.00029467884451150894,-0.0013841008767485619,-0.002962650265544653
1772043726386894800,9.207894775390624,-0.0022406503558158875,-0.0016394979320466518,0.002073919866234064
1772043726396882000,9.2178818359375,-0.0003572748973965645,-0.0008454322814941406,0.0015609984984621406
1772043726406867700,9.22786767578125,0.0016217203810811043,0.0002592469099909067,0.0002296844031661749
1772043726416854800,9.237854736328124,-0.0018594292923808098,-0.00019654311472550035,0.0012233778834342957
1772043726426840800,9.2478408203125,-0.0012972354888916016,-0.00030733062885701656,-0.0006874401587992907
1772043726436826600,9.25782666015625,-0.00047218892723321915,0.00023355736630037427,0.00032615894451737404
1772043726446813000,9.26781298828125,-0.0014685457572340965,-0.0018783760024234653,0.00029875990003347397
1772043726456799700,9.2777998046875,-0.003222055733203888,-0.0010936809703707695,-0.0010107411071658134
1772043726466785800,9.287785888671875,0.00040756724774837494,-0.0006430742214433849,0.0006867579650133848
1772043726476772900,9.29777294921875,0.0008783340454101562,0.001650851801969111,-0.0006639901548624039
1772043726486758700,9.307758544921874,-0.0017648525536060333,-0.0009198975749313831,0.0005839671939611435
1772043726496745700,9.317745849609375,-0.0014082156121730804,-0.00027776253409683704,0.0021896976977586746
1772043726506731800,9.327731689453126,-0.0015669399872422218,-0.00198751175776124,0.0010296248365193605
1772043726516718800,9.33771875,-0.0023310603573918343,-0.0016411367105320096,-0.0002850026357918978
1772043726526705000,9.347704833984375,0.0018248027190566063,-0.0026936179492622614,-0.0020898268558084965
1772043726536692000,9.35769189453125,-0.00009999796748161316,-0.002012133365496993,-0.0012837874237447977
1772043726546677800,9.367677734375,0.0012662028893828392,-0.0020411619916558266,-0.0024076413828879595
1772043726556663800,9.377663818359375,0.0015550833195447922,0.0008708193781785667,-0.00016539613716304302
1772043726566651000,9.38765087890625,-0.000509398989379406,0.00015735853230580688,-0.00040401541627943516
1772043726576636700,9.39763671875,0.0018371427431702614,0.0004547532007563859,-0.0005193385295569897
1772043726586624000,9.4076240234375,-0.0005032429471611977,0.0006233312888070941,-0.000016267411410808563
1772043726596609800,9.41760986328125,0.0032223109155893326,-0.0018881534924730659,0.00048582861199975014
1772043726606596600,9.4275966796875,0.000611613504588604,-0.0006140973418951035,0.0013457632157951593
1772043726616583000,9.4375830078125,0.0012816563248634338,0.0012270528823137283,0.0005787047557532787
1772043726626569700,9.44756982421875,0.0017319973558187485,-0.0025857947766780853,0.00030333385802805424
1772043726636556000,9.45755615234375,0.0008150050416588783,-0.0012817285023629665,-0.0016432027332484722
1772043726646542800,9.46754296875,0.0009721321985125542,0.0005132420919835567,0.0004103609826415777
1772043726656528600,9.477528564453126,-0.000720171257853508,0.0006597380852326751,0.0001281113363802433
1772043726666515000,9.487514892578124,0.0010372493416070938,-0.0013110011350363493,-0.0014596653636544943
1772043726676501800,9.497501708984375,-0.0011703819036483765,0.00038439116906374693,-0.0012217711191624403
1772043726686487800,9.50748779296875,-0.0007400158792734146,-0.0002499737893231213,-0.0005397356580942869
1772043726696475000,9.517474853515624,0.0017707254737615585,-0.00002669219975359738,-0.00022507389076054096
1772043726706460700,9.527460693359375,0.002188042737543583,-0.0007731762016192079,-0.0006607668474316597
1772043726716447700,9.53744775390625,0.002535272389650345,0.0020932091865688562,-0.0024443743750452995
1772043726726433800,9.547433837890624,0.00121248047798872,0.00033179455203935504,0.00032131862826645374
1772043726736420900,9.5574208984375,0.00273177120834589,0.0009400098933838308,0.0003094123676419258
1772043726746407000,9.567406982421875,0.0037874476984143257,-0.0007750657969154418,0.0022330135107040405
1772043726756394000,9.57739404296875,-0.0002538654953241348,0.001634242245927453,-0.002224419731646776
1772043726766379800,9.5873798828125,0.0012769196182489395,0.002490181941539049,0.00038281502202153206
1772043726776366600,9.59736669921875,0.0009063249453902245,0.0005821384256705642,-0.0021804177667945623
1772043726786353000,9.607352783203124,-0.00008010957390069962,0.00012114521814510226,-0.0019455270376056433
1772043726796338700,9.617338623046875,-0.0007284590974450111,0.0009063867037184536,-0.002147255465388298
1772043726806326000,9.627325927734375,-0.0005281893536448479,0.0008645750349387527,0.000755589921027422
1772043726816311800,9.637311767578124,-0.00038722623139619827,-0.001217830227687955,0.001593366963788867
1772043726826298600,9.647298583984375,-0.0000029318034648895264,-0.0009786783484742045,0.0006101278122514486
1772043726836285000,9.657284912109375,-0.0014360062777996063,0.0000485606724396348,-0.0002141015138477087
1772043726846271700,9.667271728515624,-0.0007353285327553749,0.0009556332952342927,-0.00022368901409208775
1772043726856258800,9.6772587890625,0.0009738877415657043,-0.0010505258105695248,-0.0011483386624604464
1772043726866244900,9.687244873046875,0.0011287806555628777,0.001690231030806899,-0.0005665069911628962
1772043726876232000,9.69723193359375,-0.0017337631434202194,-0.000014392368029803038,-0.0003187693655490875
1772043726886217700,9.7072177734375,-0.0009529246017336845,0.0009571288246661425,-0.0002181020099669695
1772043726896204800,9.717204833984376,-0.0013914704322814941,-0.0008953472715802491,-0.0006214790046215057
1772043726906190800,9.72719091796875,-0.0007070377469062805,-0.0009621926001273096,-0.0009013770613819361
1772043726916177700,9.737177734375,-0.0015460401773452759,0.00024177519662771374,-0.0012210460845381021
1772043726926164000,9.7471640625,0.0003171069547533989,-0.0009894041577354074,-0.0003736282233148813
1772043726936149800,9.757149658203126,-0.0017156507819890976,0.0009495897684246302,-0.0015074284747242928
1772043726946136800,9.76713671875,-0.0011278912425041199,-0.0011100990232080221,-0.0001257804688066244
1772043726956123000,9.777122802734375,-0.0028524016961455345,-0.001435561804100871,-0.0011215503327548504
1772043726966110200,9.787110107421874,-0.0023400094360113144,-0.00004619068931788206,0.0006063086912035942
1772043726976096500,9.797096435546875,0.001019834540784359,0.0003721496323123574,0.0007096801418811083
1772043726986083300,9.807083251953125,0.0003788117319345474,-0.001708311727270484,-0.0005563865415751934
1772043726996069400,9.8170693359375,0.0024113738909363747,0.00018712780729401857,0.0014596562832593918
1772043727006056200,9.82705615234375,-0.0001561800017952919,0.002411399967968464,-0.0014245470520108938
1772043727016042200,9.837042236328125,0.0009806789457798004,-0.001434825360774994,-0.002346668392419815
1772043727026028300,9.8470283203125,-0.0009298725053668022,-0.0007621109252795577,0.0006307458970695734
1772043727036015400,9.857015380859375,-0.0015836907550692558,0.00018500667647458613,0.00025280890986323357
1772043727046001400,9.86700146484375,0.002199595794081688,-0.00047545728739351034,0.0016395167913287878
1772043727055988200,9.87698828125,-0.0006896825507283211,0.00023366569075733423,-0.0013490240089595318
1772043727065974300,9.886974365234375,0.0002365652471780777,-0.0008513060747645795,0.001073919702321291
1772043727075961300,9.89696142578125,0.001949165016412735,-0.001747960690408945,-0.000973179005086422
1772043727085947400,9.906947509765626,0.0033254874870181084,0.00070108228828758,-0.0007547996938228607
1772043727095934500,9.9169345703125,0.0014724135398864746,0.0013091352302581072,0.002636139979586005
1772043727105920300,9.926920166015625,0.0007344521582126617,-0.0017036988865584135,-0.0009865581523627043
1772043727115907300,9.9369072265625,0.0040693338960409164,-0.0010356369893997908,-0.00034273695200681686
1772043727125893400,9.946893310546875,0.0022354815155267715,-0.00008861685637384653,-0.0013012085109949112
1772043727135879200,9.956879150390625,-0.00015253573656082153,0.00003972285776399076,-0.00041259778663516045
1772043727145866500,9.966866455078126,-0.0006697215139865875,-0.0020545870065689087,0.0001836838200688362
1772043727155852300,9.976852294921875,-0.0022112950682640076,0.00010735663818195462,-0.0011547687463462353
1772043727165839400,9.98683935546875,0.0027869250625371933,-0.0006689548608846962,0.0014705754583701491
1772043727175825400,9.996825439453126,0.0003176862373948097,-0.00034540961496531963,-0.001385123236104846
1772043727185812200,10.006812255859375,-0.0017465297132730484,0.0013725955504924059,0.00045112636871635914
1772043727195798300,10.01679833984375,0.0003569992259144783,0.0016584057593718171,-0.0005978397093713284
1772043727205785300,10.026785400390626,0.00006085541099309921,-0.0010921070352196693,0.00013506226241588593
1772043727215771400,10.036771484375,-0.0006047971546649933,0.00013967620907351375,-0.0017047319561243057
1772043727225758200,10.04675830078125,-0.0009917551651597023,-0.0019461115589365363,-0.0008799508213996887
1772043727235744300,10.056744140625,0.00004908442497253418,-0.0009465862531214952,0.0007180515676736832
1772043727245730300,10.066730224609374,-0.00019885599613189697,0.001267299521714449,0.004085086286067963
1772043727255717400,10.07671728515625,-0.0013684090226888657,0.0014084149152040482,0.000009187962859869003
1772043727265703400,10.086703369140626,-0.0007558818906545639,0.0006014771061018109,0.0007330349180847406
1772043727275690200,10.096690185546874,-0.002100779674947262,0.0005561370635405183,-0.0017639740835875273
1772043727285676300,10.10667626953125,0.0008454751223325729,-0.00010832163388840854,-0.0019743635784834623
1772043727295663400,10.116663330078126,0.0012394068762660027,-0.0018901645671576262,-0.0010945575777441263
1772043727305649400,10.1266494140625,0.0013270257040858269,0.0018830019980669022,-0.0026200159918516874
1772043727315636500,10.136636474609375,-0.002292224206030369,-0.0002680318139027804,0.0012834100052714348
1772043727325622300,10.146622314453126,0.0006998367607593536,0.0004235910892020911,-0.0006780079565942287
1772043727335608300,10.1566083984375,-0.002521052025258541,-0.0021358418744057417,0.0004603841807693243
1772043727345595400,10.166595458984375,-0.0007404619827866554,-0.001042081625200808,0.00004626251757144928
1772043727355581200,10.176581298828125,0.0010866299271583557,-0.0020619546994566917,-0.00026080128736793995
1772043727365568500,10.186568603515624,-0.0007440270856022835,-0.0006438212585635483,-0.0002512137871235609
1772043727375554300,10.19655419921875,0.0010484885424375534,0.0006159998592920601,-0.0006595926824957132
1772043727385541400,10.206541259765626,-0.0013667326420545578,0.00029855105094611645,0.00009008706547319889
1772043727395527400,10.21652734375,0.0010837223380804062,0.0019385050982236862,0.002052302472293377
1772043727405514200,10.22651416015625,-0.0005043214187026024,-0.0005925631849095225,-0.0009536074940115213
1772043727415500300,10.236500244140625,-0.0027125906199216843,-0.001645405194722116,0.00026605604216456413
1772043727425487400,10.2464873046875,0.00010529998689889908,0.003973598591983318,0.0015174753498286009
1772043727435473400,10.256473388671875,0.0008308971300721169,-0.0003314387868158519,-0.00133877107873559
1772043727445459500,10.26645947265625,0.0001888088881969452,-0.0008680657483637333,0.0007984156254678965
1772043727455446300,10.2764462890625,-0.0003836601972579956,0.0004038949264213443,0.0017332485876977444
1772043727465432300,10.286432373046875,-0.0027584005147218704,0.023001348599791527,0.013627991080284119
1772043727475419400,10.29641943359375,-0.0015598339959979057,0.009948060847818851,0.002134194364771247
1772043727485405200,10.3064052734375,0.0006367415189743042,-0.0004345386114437133,0.0008827750571072102
1772043727495392300,10.316392333984375,-0.000057299621403217316,-0.0022145074326545,0.00006153527647256851
1772043727505378300,10.32637841796875,0.0014393972232937813,-0.0023466001730412245,-0.0006194352172315121
1772043727515365400,10.336365478515624,-0.0021894071251153946,-0.002553562866523862,-0.0014496895018965006
1772043727525351200,10.34635107421875,0.0018767071887850761,-0.004289145115762949,-0.0009535423014312983
1772043727535337200,10.356337158203125,0.00124284066259861,-0.0034271327313035727,-0.003123575123026967
1772043727545324300,10.36632421875,0.0024484535679221153,-0.0068700676783919334,-0.0009600229095667601
1772043727555310300,10.376310302734375,-0.00046436209231615067,-0.005911683198064566,0.0007172161713242531
1772043727565297400,10.38629736328125,0.00092287827283144,0.0002609912771731615,-0.000021278392523527145
1772043727575283200,10.396283203125,0.0007632225751876831,0.0015773013001307845,-0.002103761537000537
1772043727585270500,10.4062705078125,0.0019411388784646988,0.004817303270101547,-0.0003593910951167345
