time,seconds_elapsed,z,y,x
1772044388010996700,0.070996826171875,0.025970307558774948,0.006183730136230588,-0.005918667725566774
1772044388020982800,0.080982666015625,0.03345511035621166,0.007875409550219774,0.0028902415487915274
1772044388030967800,0.0909677734375,0.023874796584248542,0.01499291340522468,0.006010455928556621
1772044388040953600,0.10095361328125,0.024470424389839172,0.007909640613384544,0.0036497364128939805
1772044388050940000,0.11093994140625,0.01743336535990238,0.012684271136671303,-0.0074345704475417725
1772044388060925700,0.12092578125,0.018029577687382697,0.005322144870832562,-0.00020682941740378735
1772044388070910700,0.13091064453125,0.030597382837533948,0.012045498309098183,-0.0035642500865273176
1772044388080896500,0.140896484375,0.01922667851746082,0.00450965944416821,0.00030879195453599093
1772044388090882800,0.1508828125,0.023120178824663162,0.006510989329218864,0.009744052966311574
1772044388100868600,0.16086865234375,0.025065467673540114,0.005179265801422298,0.009477803245559335
1772044388110853600,0.170853515625,0.027762451672554013,0.004700651971623301,0.0019088658286258576
1772044388120839700,0.180839599609375,0.0178898769557476,0.007084843694418668,0.003629661739245057
1772044388130825700,0.19082568359375,0.0166962832570076,-0.0014181231696158646,0.001661576536670327
1772044388140810800,0.200810791015625,0.03181143480241298,-0.0010028934322297573,0.006753054456785321
1772044388150796500,0.210796630859375,0.020585107389092444,0.002475961659476161,0.003994786990899593
1772044388160782800,0.220782958984375,0.021931845822930333,0.005750891676917672,0.0035307679420337077
1772044388170768600,0.2307685546875,0.029112697237730023,0.0050691930230706925,0.0041151437012478705
1772044388180753700,0.240753662109375,0.02073357594907284,0.005612031195499002,-0.0013187909809872507
1772044388190739700,0.25073974609375,0.032556115689873696,0.004196099982969463,0.007319017776474356
1772044388200725800,0.260725830078125,0.02612228325009346,0.010321670191176234,0.00209149238653481
1772044388210711800,0.2707119140625,0.02447919221818447,0.008051679432578384,0.0002075783360749483
1772044388220696600,0.280696533203125,0.03180909671485424,0.014699666079692541,0.0017084113530814646
1772044388230682600,0.2906826171875,0.022229367464780807,0.011927169159054755,0.008434778732340782
1772044388240668700,0.300668701171875,0.02058452286720276,0.0123149629002437,0.0061463572679087515
1772044388250654700,0.31065478515625,0.026119945162534713,0.007130765195377171,0.001082004816737026
1772044388260639700,0.3206396484375,0.03659516194760799,0.005904219075106084,0.004982793381251394
1772044388270625500,0.33062548828125,0.02073123786151409,-0.001822612317278981,-0.0023469832512550055
1772044388280611800,0.34061181640625,0.01699029776751995,0.0022506284710019824,0.00008948664804920554
1772044388290597600,0.35059765625,0.02657002701759338,0.007887611444666981,0.004459116567019373
1772044388300582700,0.360582763671875,0.025534254229068756,0.0005843392265960574,-0.003572524724528193
1772044388310568700,0.370568603515625,0.031068507480621337,0.0067995239470154045,0.0010964169345796108
1772044388320554800,0.3805546875,0.022546178328990935,-0.0015460238656029104,0.0005925773319788277
1772044388330540500,0.39054052734375,0.0370610258936882,-0.00005976736322045326,0.005953994767274707
1772044388340525600,0.400525634765625,0.026145079603791234,0.0030824031200259922,0.009019099692627788
1772044388350511900,0.410511962890625,0.024054244804382324,0.003513378415815532,0.002398366378620267
1772044388360497700,0.42049755859375,0.027494156125187873,0.0038835269024595615,0.002283069435879588
1772044388370482700,0.430482666015625,0.02091243964731693,0.005145107803493738,0.0015080299427732825
1772044388380468500,0.440468505859375,0.02046761848926544,0.015167393189296125,0.0029800204577855763
1772044388390454800,0.450454833984375,0.024209143105149267,0.007698591678589582,-0.00028579467143863437
1772044388400440600,0.460440673828125,0.022714520633220672,0.0018435820400714872,0.0015594861353747545
1772044388410425600,0.470425537109375,0.034982466053962706,0.006115852531790733,0.004575016297958791
1772044388420411600,0.48041162109375,0.03169160781502724,-0.0010086655858904123,0.005096738617122173
1772044388430397700,0.490397705078125,0.03004091799855232,-0.0015196838479489088,0.005495455611124634
1772044388440383700,0.5003837890625,0.018812252497673033,0.0025039821775630117,0.006811798906698823
1772044388450368800,0.51036865234375,0.0264472774207592,0.0076805810978636145,0.005506470195483416
1772044388460354800,0.520354736328125,0.030029812082648277,0.006361059464514255,0.005288900188356638
1772044388470340600,0.530340576171875,0.02539338445365429,0.005442921706289052,0.005777889281697571
1772044388480326700,0.54032666015625,0.017759528574347493,0.0053575084451586005,0.005779624581057578
1772044388490311700,0.550311767578125,0.025694997748732566,0.005146167249418795,0.0031765659431926903
1772044388500297700,0.560297607421875,0.028988778597116467,0.011472301531024277,0.008661080035194755
1772044388510283800,0.57028369140625,0.02420388240814209,0.0034326413298025726,0.012110544635634869
1772044388520269600,0.58026953125,0.01702244647145271,0.003286145531199872,0.0036236521235667165
1772044388530254600,0.590254638671875,0.021660627666115758,0.007397453307546675,-0.002289846236538142
1772044388540240600,0.60024072265625,0.01926642600595951,0.016822320789471268,0.0017494557495228945
1772044388550226700,0.610226806640625,0.021960487395524978,0.001201192483305931,0.008435838178265839
1772044388560211700,0.620211669921875,0.030944004318118095,-0.003737944419309497,0.0033368162725120783
1772044388570197800,0.63019775390625,0.033788287833333014,0.005682575681060552,-0.0009792385620065033
1772044388580183800,0.640183837890625,0.026754735934734344,0.0041861996434628965,0.0006256758839823305
1772044388590169600,0.650169677734375,0.023766660034656523,0.0098967958426103,0.008432568508945405
1772044388600154600,0.660154541015625,0.022419921600818633,0.00588164191711694,-0.0008342771333642304
1772044388610141000,0.670140869140625,0.022866496324539184,0.004402472742646932,0.0016366430248133837
1772044388620126700,0.680126708984375,0.02451543257534504,-0.00038867052402347325,-0.002904799797106534
1772044388630112800,0.69011279296875,0.024969021561741828,0.005945099074766039,0.008796250722184778
1772044388640097500,0.70009765625,0.02257423537969589,0.003792597215995192,0.0033197190072387457
1772044388650083800,0.710083740234375,0.025862755531072614,0.003539024313725531,0.008807959426287561
1772044388660069600,0.720069580078125,0.02810848863124847,0.003614244974404573,0.008175981665682047
1772044388670055700,0.7300556640625,0.03110240975022316,0.005938705866597592,0.00768264519078657
1772044388680040700,0.740040771484375,0.02272153489589691,0.011388386107236146,0.0023422522772103545
1772044388690026800,0.75002685546875,0.023908114331960675,0.00833451496195048,0.005091094327624887
1772044388700012800,0.7600126953125,0.024354689055681226,0.008972009147889912,0.006853226895630359
1772044388709998600,0.76999853515625,0.029295652589201925,0.006193557410500944,0.008348324291594326
1772044388719983900,0.77998388671875,0.02316167987883091,0.003796177412569523,-0.003288958542793989
1772044388729969700,0.7899697265625,0.026153262910246847,0.0005199687534943223,0.0008779518783092498
1772044388739955700,0.799955810546875,0.031681670942902564,0.0014832973603159188,0.0066802632152102885
1772044388749940700,0.809940673828125,0.020907178950309753,0.006713051239959895,0.011146412311214953
1772044388759926800,0.8199267578125,0.021055062988400458,0.0006359232833608985,0.0071070555262267585
1772044388769912800,0.829912841796875,0.026434417939186095,0.00932615634780377,0.0028766331485472617
1772044388779898600,0.839898681640625,0.02165185983777046,0.00947831470221281,0.002164758552145213
1772044388789883600,0.849883544921875,0.026287118422985076,0.00987195366229862,0.012642094229068606
1772044388799869700,0.85986962890625,0.02599368843436241,-0.0012933642787858843,-0.0020911453266628083
1772044388809855700,0.869855712890625,0.025845804396271703,0.005353672520257533,-0.004841540013346821
1772044388819841500,0.879841552734375,0.02734393399953842,0.016253471392951906,0.009413889430183916
1772044388829826600,0.88982666015625,0.024947394251823424,0.008423837213218212,-0.0010191504472866653
1772044388839812900,0.899812744140625,0.025550036320090293,0.006738660605251788,-0.001075666407495737
1772044388849798700,0.909798583984375,0.0158335289478302,0.009504873915575444,0.006445522877573967
1772044388859784700,0.91978466796875,0.031088965746760365,0.013491349735856055,0.005877148405089974
1772044388869769700,0.929769775390625,0.027795184898376464,0.007231595221348106,-0.002390475333109498
1772044388879755800,0.939755859375,0.02615443195402622,0.00589581657294184,0.0021354959250427783
1772044388889741600,0.949741455078125,0.02286883441209793,0.009910020650364459,0.013808745121955871
1772044388899728000,0.959727783203125,0.019275778356194494,-0.002659501532837748,0.0038688225236721335
1772044388909713000,0.969712890625,0.030801380977034568,0.009339965677447616,0.002974449233524501
1772044388919698700,0.97969873046875,0.020475801795721053,-0.005296170179359614,0.0034319106774404642
1772044388929684700,0.989684814453125,0.028404256707429885,0.007797668138891458,0.006751173026952892
1772044388939669500,0.99966943359375,0.02751169178187847,0.0067112246090546245,0.0004437617121264338
1772044388949655800,1.00965576171875,0.024826982742547986,-0.00046761751174926756,-0.0002053498463705182
1772044388959641600,1.0196416015625,0.02243570369184017,0.0020184636829420925,0.004460048148781061
1772044388969627600,1.029627685546875,0.02062894653081894,-0.0010775661036372185,0.00688638024656102
1772044388979612700,1.03961279296875,0.023915128594636917,0.002938135811127722,0.009673654611222446
1772044388989598700,1.0495986328125,0.03229249631762504,0.0035856764670461412,-0.00424536421848461
1772044388999584800,1.059584716796875,0.0331873993307352,0.002924472611956298,0.01026654247045517
1772044389009570600,1.069570556640625,0.026152093866467475,0.014126871160417795,0.004783398351632058
1772044389019555600,1.0795556640625,0.02210720238983631,-0.00015983020421117544,0.006514715656265616
1772044389029541600,1.089541748046875,0.021512743628025053,-0.004495155994780361,0.008755736048705876
1772044389039527700,1.099527587890625,0.02375730768442154,-0.001092179150879383,0.003462744207121432
1772044389049512700,1.1095126953125,0.020163667106628418,0.0017269699230790137,-0.001123469338286668
1772044389059498500,1.11949853515625,0.023601824861764906,0.00310439575612545,0.0010730177926830946
1772044389069484800,1.12948486328125,0.020310966622829437,0.001514569281414151,0.0013207272097468376
1772044389079470600,1.139470703125,0.026440847679972648,0.0021839564429596064,0.004387037711497396
1772044389089455600,1.14945556640625,0.029134909069538115,0.011694748642668127,0.0032842823676764964
1772044389099441700,1.159441650390625,0.03062836249768734,0.009651844638213515,0.00773435711171478
1772044389109427700,1.169427734375,0.01956044051647186,0.0010654372744262218,0.007382675863523036
1772044389119413500,1.17941357421875,0.018363339686393736,-0.002031250099278986,-0.002577211810555309
1772044389129398500,1.1893984375,0.02854045030772686,0.003371960651129484,-0.0025147227672860026
1772044389139384800,1.199384765625,0.02480243282318115,0.0014828224362805485,0.008589329973235726
1772044389149370600,1.20937060546875,0.01822246991097927,0.001444791980832815,0.0064229274532757695
1772044389159356700,1.219356689453125,0.03153846307992935,0.010128887565433979,0.0033860987743362784
1772044389169341400,1.229341552734375,0.01612228276133537,-0.00213989810552448,0.004155804505199194
1772044389179327700,1.23932763671875,0.021506898409128186,-0.0025614845184609293,-0.00335849838135764
1772044389189313500,1.2493134765625,0.019111527705192564,0.0012487214194610715,-0.0007770305207930505
1772044389199298600,1.259298583984375,0.02030219879448414,0.007620046549662947,0.0028672259993851182
1772044389209284600,1.26928466796875,0.024942718076705932,0.00761412826552987,0.002469988576415926
1772044389219270700,1.279270751953125,0.024192776492238045,0.011407090807706117,0.0065017831094563005
1772044389229256700,1.289256591796875,0.027778233763575553,0.0033415655128657814,0.001093731787148863
1772044389239241700,1.29924169921875,0.0244908826559782,0.0015919088339433074,0.003214523333404213
1772044389249227800,1.309227783203125,0.026886253359913823,0.005004603354260325,-0.0005166260189376771
1772044389259213600,1.319213623046875,0.02344751108288765,0.006245799054391682,0.00022937004277482628
1772044389269199600,1.32919970703125,0.01910509796440601,0.01135620087068528,0.0007637509141117334
1772044389279184600,1.3391845703125,0.028076924449205398,0.009651735040359198,0.0035134149484336375
1772044389289170700,1.349170654296875,0.03586158697605133,0.012511179592087864,-0.003876859699655324
1772044389299156700,1.35915673828125,0.031221067693829534,0.014145977719686925,-0.0005013188519515097
1772044389309142500,1.369142578125,0.027779402807354924,0.0022946868084371087,0.009347126070596278
1772044389319127600,1.37912744140625,0.02014613144993782,0.0010778583645820617,0.00012974559320136903
1772044389329113600,1.389113525390625,0.026877485531568525,0.01285356328897178,-0.003867416017875075
1772044389339099600,1.399099609375,0.02463818217217922,0.007214315292984247,0.0018686251497827468
1772044389349084700,1.409084716796875,0.036759997120499606,0.0034745077101513743,0.00220403111660853
1772044389359070700,1.41907080078125,0.02149637701511383,0.0036314883701503275,0.012377780737075954
1772044389369056800,1.429056884765625,0.02508475689589977,0.007527545960620045,0.0015178389507345853
1772044389379042600,1.43904248046875,0.030772739404439923,0.009611001171171665,0.0055897280321456485
1772044389389027600,1.449027587890625,0.036762919729948045,0.003949102951958775,0.002165489204507321
1772044389399013600,1.459013671875,0.025091186636686323,-0.002333228720538318,0.00006011442309245467
1772044389408999700,1.468999755859375,0.026734862190484997,0.0065481064692139625,-0.0006954349182546138
1772044389418985700,1.47898583984375,0.024340076008439064,-0.004566358067467809,0.004777863659989089
1772044389428970500,1.488970458984375,0.0249310276389122,0.0027524770459160207,-0.0005450483958236873
1772044389438956800,1.498956787109375,0.029718261915445326,0.003249795576184988,-0.00038558351779356594
1772044389448942600,1.508942626953125,0.02523030284643173,0.0025820523824542758,0.001366886172723025
1772044389458928600,1.5189287109375,0.025678046613931655,0.008261632388830185,0.005507493108790368
1772044389468913700,1.52891357421875,0.02343406707942486,0.007256766195222735,0.006910729236528277
1772044389478899700,1.538899658203125,0.03255553116798401,0.006746515118144452,0.00037005715509876605
1772044389488885800,1.5488857421875,0.03464344335794449,0.002999729805253446,0.000010101268906146287
1772044389498870500,1.55887060546875,0.01907294926047325,0.006779978996329009,-0.004704414831288159
1772044389508856800,1.56885693359375,0.02594926477074623,0.005632014537602662,0.0017105485112406313
1772044389518842600,1.578842529296875,0.025946926683187484,0.00942647491712123,0.00018432532465085386
1772044389528828700,1.58882861328125,0.027139351338148116,0.0002726063963025808,0.000439030738081783
1772044389538813700,1.598813720703125,0.028337036690115926,0.004370031777769327,0.006337751654163002
1772044389548799700,1.6087998046875,0.022351532539725303,0.011496193863265216,-0.002862221030704677
1772044389558785800,1.618785888671875,0.027588264149427413,0.009897380364499985,-0.0014735248849727213
1772044389568771600,1.628771484375,0.02744330272078514,0.005072261762991547,0.0044674825365655126
1772044389578756600,1.638756591796875,0.029696050083637234,0.011150449165515601,0.003744191497005522
1772044389588742700,1.64874267578125,0.029544074392318723,0.015907507499493656,0.0010777487667277454
1772044389598728700,1.658728759765625,0.014581483060121535,0.0034455008113756774,-0.005658153625857085
1772044389608713700,1.668713623046875,0.02953939821720123,0.003671491586975753,-0.008897044215537607
1772044389618699500,1.678699462890625,0.025498013871908188,0.011883366549946367,-0.0010390972567722201
1772044389628685800,1.688685791015625,0.026398177582025527,0.001484283741004765,-0.003592654197104275
1772044389638671600,1.698671630859375,0.025201076751947403,0.0011858487837016582,-0.001050714629329741
1772044389648656600,1.70865673828125,0.028349311649799345,0.007685111142508685,0.004279631814267486
1772044389658642700,1.718642578125,0.021466566398739815,0.004834069092944264,0.004733166001737118
1772044389668628700,1.728628662109375,0.026405191844701765,0.000528115527331829,0.00103376349452883
1772044389678614500,1.738614501953125,0.019523615637421606,0.002154876478947699,0.002262318908795714
1772044389688599600,1.748599609375,0.02207446916401386,0.009912614466249942,0.0025810660017654297
1772044389698585900,1.7585859375,0.0276104759812355,0.0008205956678837538,-0.002036054138559848
1772044389708571600,1.768571533203125,0.03419979124367237,0.005086363353580236,0.005087915989849716
1772044389718556700,1.778556640625,0.03239771025776863,0.009268727072142064,0.004151000465918332
1772044389728542500,1.78854248046875,0.024175825357437133,0.006008738895505667,0.004723247395921499
1772044389738528800,1.79852880859375,0.02118658041357994,0.01048500752672553,0.0027247487887740135
1772044389748514600,1.8085146484375,0.019092823004722596,0.003939714069105684,-0.0032116189902648327
1772044389758499600,1.81849951171875,0.022685879060626028,0.010834551616758108,0.0035974582363851367
1772044389768485600,1.828485595703125,0.02627776607275009,0.005551935038715601,-0.0009217362211085856
1772044389778471700,1.8384716796875,0.02702420052587986,0.005141600672155618,-0.0021415786059573293
1772044389788457700,1.848457763671875,0.021035189244151115,0.007165288519486785,0.0002348864681087434
1772044389798442500,1.8584423828125,0.028673136776685714,0.009073387163132428,0.004285951957199722
1772044389808428800,1.8684287109375,0.030922961530089377,0.004817592882178723,0.0015357764662243425
1772044389818414600,1.87841455078125,0.02808160062432289,0.008845788952335714,-0.0029048363297246396
1772044389828400600,1.888400634765625,0.02943359975516796,0.015839629895053803,-0.006698657388426363
1772044389838385700,1.8983857421875,0.024791911429166792,0.014344313303381203,0.0003837386205792427
1772044389848371700,1.908371826171875,0.028240006056427954,0.0006328180108219384,-0.004601758174411952
1772044389858357800,1.918357666015625,0.02719137378633022,0.00437605965975672,-0.0041924467211589215
1772044389868342500,1.928342529296875,0.022852467799186704,0.009128295688144862,0.00028694544890895486
1772044389878328600,1.93832861328125,0.022407646641135214,0.005323460045084357,0.0007768295913934707
1772044389888314600,1.948314697265625,0.016126958936452863,0.0023351284166797993,-0.0022509207319468256
1772044389898300700,1.95830078125,0.020920622953772543,0.006599690525978803,-0.0003809621416032314
1772044389908285700,1.96828564453125,0.018230653217434882,0.001561002239026129,0.00726051078857854
1772044389918271700,1.978271728515625,0.030353052687644957,0.0016951865453273057,0.00384719521375373
1772044389928257800,1.9882578125,0.025112813946604726,0.0022189546911045906,0.0017553557673469185
1772044389938243600,1.99824365234375,0.02032733323574066,0.012211977449804543,0.003448752214387059
1772044389948228600,2.008228515625,0.024965514430403707,0.0018281287426128983,0.011925433859694749
1772044389958214700,2.018214599609375,0.034388591814041136,-0.0014316037056967615,-0.0009006386341527104
1772044389968200700,2.02820068359375,0.03259761674404144,0.006740852562338113,-0.004557736369594932
1772044389978185700,2.038185791015625,0.018688918378949163,0.005685388692654669,-0.004349336049612611
1772044389988171500,2.048171630859375,0.0275146143913269,0.004191716068796814,-0.0069720857686363154
1772044389998157600,2.058157470703125,0.028111411240696906,0.010549122271500528,0.0020357070786878465
1772044390008143400,2.068143310546875,0.03140226947963238,0.007342910108715296,0.0019206658642739057
1772044390018128600,2.078128662109375,0.025120412731170653,0.0026813480384647844,-0.003105217740032822
1772044390028114400,2.088114501953125,0.023323007920384407,0.0030403540765866635,-0.0011411876580677926
1772044390038100500,2.0981005859375,0.03170212920904159,0.004870163319632411,0.00919794512456283
1772044390048086500,2.10808642578125,0.019433599266409873,0.007992861917428672,0.0011553440475836395
1772044390058071600,2.118071533203125,0.034251813691854475,0.004985971719026565,-0.004257328650914132
1772044390068057600,2.1280576171875,0.02318213814496994,0.0029539179021492597,0.0009801336111500858
1772044390078043400,2.13804345703125,0.019145429974794386,0.013547719565592706,0.0024074995331466197
1772044390088028400,2.1480283203125,0.01899111619591713,0.0015887670287862419,0.0003201353324577212
1772044390098014700,2.1580146484375,0.02242518229782581,0.0020361454701051116,0.003850848475564271
1772044390108000500,2.16800048828125,0.017640286108851433,0.008735168184712528,0.004667206359747797
1772044390117986600,2.177986572265625,0.024373978278040883,0.008945048075728117,0.001443184545636177
1772044390127971600,2.1879716796875,0.02436930210292339,-0.00031516689639538524,0.0035617476021870967
1772044390137957600,2.19795751953125,0.02960954084396362,0.0030878830127418037,0.001668609065655619
1772044390147943400,2.207943359375,0.035596798560023304,0.004665251864679158,0.00014813976641744374
1772044390157929500,2.217929443359375,0.02841360905766487,0.00854223942849785,0.001457213070988655
1772044390167914800,2.227914794921875,0.020633038184046743,0.0032405162911862133,0.0011000884626992046
1772044390177900500,2.237900634765625,0.021834815189242362,-0.000925371216610074,-0.0017443229166790842
1772044390187886600,2.247886474609375,0.02453355275392532,0.00030694705732166766,-0.000055693976301699875
1772044390197871400,2.257871337890625,0.02603109783530235,0.002539528414979577,-0.0025798421590588986
1772044390207857700,2.267857666015625,0.030363574081659316,-0.002910334488749504,0.0035834479773417115
1772044390217843500,2.277843505859375,0.013162263911962508,0.005291895863041281,0.003893792568147182
1772044390227829500,2.28782958984375,0.01945171944499016,0.009446969715878367,0.006103248778544366
1772044390237814500,2.297814453125,0.027382512444257736,0.005480952161736786,0.0070454797984100875
1772044390247800600,2.307800537109375,0.03531447448730469,0.004456139158643782,-0.0029128369730897245
1772044390257786600,2.31778662109375,0.022140520137548445,0.0015016732672229409,-0.00439476436022669
1772044390267772400,2.3277724609375,0.022283143478631973,0.004835676528140902,0.009643770929612218
1772044390277757700,2.3377578125,0.032607553616166116,0.0100838063146919,0.009337444926798343
1772044390287743500,2.347743408203125,0.02557224815189838,0.010083550586365163,0.002378931025788188
1772044390297729500,2.3577294921875,0.027965280768275258,0.0014435133391991256,0.005972315875254571
1772044390307715600,2.367715576171875,0.030811902371048926,0.0012173033678904174,0.004062116606067866
1772044390317700600,2.37770068359375,0.020635376271605492,-0.0033721067816019057,-0.0011707242798060177
1772044390327686700,2.387686767578125,0.019139000234007834,0.004809994097612798,0.0022292386231012643
1772044390337672400,2.39767236328125,0.019140753799676894,-0.00043367870952934023,0.0007713131660595536
1772044390347657500,2.407657470703125,0.025277649119496343,-0.005639467191696166,-0.0005066708805039525
1772044390357643500,2.4176435546875,0.02408347089886665,0.0031178762922063467,-0.003033211949747056
1772044390367629600,2.427629638671875,0.029321371552348135,-0.0036255335533991453,-0.001987812816351652
1772044390377615400,2.437615478515625,0.037843700703978536,0.009143347126804292,0.002341119766049087
1772044390387600400,2.447600341796875,0.03439560607671738,0.005981923953816294,0.0018342479561455547
1772044390397586700,2.457586669921875,0.027214170140028,-0.0033637408120557664,0.0019328494924120603
1772044390407572500,2.467572509765625,0.01868482672572136,0.006739829649031162,0.0003606500059366226
1772044390417557500,2.4775576171875,0.03051496525108814,0.004343947488442063,0.004509202786441892
1772044390427543600,2.48754345703125,0.023783611169457434,0.0017220745522528885,-0.005842533749435097
1772044390437529600,2.497529541015625,0.021991467055678365,0.005398096183873713,0.004369447255879641
1772044390447515400,2.507515380859375,0.022290742263197896,-0.004889817868173122,0.0012375972372479737
1772044390457500400,2.51750048828125,0.02827858450114727,0.003228095201030373,0.007649272644147277
1772044390467486700,2.52748681640625,0.025736498802900312,0.010310929601453245,0.0017882351236417889
1772044390477472500,2.537472412109375,0.026487024909257886,-0.004338321465253829,-0.0020338621814735233
1772044390487458600,2.54745849609375,0.02483867318034172,0.00424509022384882,0.006597041911166161
1772044390497443300,2.557443359375,0.020945757395029067,0.005346658257581293,0.013013904949836431
1772044390507429600,2.5674296875,0.018850830942392347,0.005604980400204658,-0.00349277401920408
1772044390517415400,2.57741552734375,0.017501754420995712,-0.001290405136719346,0.003606938450783491
1772044390527400400,2.587400390625,0.02423603111207485,0.009941730962879956,0.0025852489865384994
1772044390537386800,2.59738671875,0.023782442125678063,-0.004217435031943023,-0.0108237014291808
1772044390547372500,2.60737255859375,0.017502923464775083,0.0006206526489928364,0.011527465784363448
1772044390557358600,2.617358642578125,0.014517770174145697,0.0049444341322407125,0.0011096052097156644
1772044390567343400,2.62734326171875,0.02574351306557655,0.008144289619475602,-0.004436904735211283
1772044390577329700,2.63732958984375,0.024096330380439755,0.01059592055529356,0.0031857721629552542
1772044390587315500,2.6473154296875,0.03935936596393585,0.005480404172465205,0.0060028206113725896
1772044390597301500,2.657301513671875,0.02828209163248539,0.005681991159170866,0.0011671440832316876
1772044390607286500,2.66728662109375,0.021247370690107344,0.003951623702608049,-0.006446929383371025
1772044390617272600,2.6772724609375,0.01241933659017086,-0.0008708645503968,0.008494381698779762
1772044390627258600,2.687258544921875,0.028135376638174055,0.00016640607547014952,-0.001738185436837375
1772044390637243400,2.697243408203125,0.028876550394296645,0.000019070026651024817,-0.0010548793477937579
1772044390647229400,2.7072294921875,0.025436639073491096,-0.000990983798727393,0.0018648257574997841
1772044390657215500,2.717215576171875,0.01886193685829639,0.0020372049160301683,-0.009197031809110193
1772044390667201500,2.727201416015625,0.025748189240694046,0.005448072805441915,0.0026914493073709306
1772044390677186600,2.7371865234375,0.02185585797727108,0.003077873075380921,0.006987009343132376
1772044390687172600,2.747172607421875,0.024255904856324194,0.0042481589637696745,0.003977817589789628
1772044390697158700,2.75715869140625,0.023954876083135603,0.0028756650341674682,-0.003291442760825157
1772044390707144400,2.76714453125,0.019314941322803498,-0.0033092706784605976,-0.002039031546935439
1772044390717129500,2.77712939453125,0.026335633739829063,0.007446845407225191,0.0037041882801800963
1772044390727115500,2.787115478515625,0.020351883155107497,0.006223952548764645,0.010317560271639376
1772044390737101600,2.7971015625,0.01286766487956047,0.006080817751027643,0.0026088855904527006
1772044390747086600,2.807086669921875,0.01915361328125,0.011972615735977887,0.00360153162330389
1772044390757072400,2.817072265625,0.023047113588452336,0.013745397562161088,0.006783668790757656
1772044390767058700,2.82705859375,0.025893150669336316,0.009065240389294921,-0.0009846819221042097
1772044390777044500,2.83704443359375,0.020502689802646634,-0.003192220170050859,0.004596314814314246
1772044390787029500,2.847029541015625,0.027831425255537032,0.0022995456466451286,0.002673237797245383
1772044390797015600,2.857015625,0.026184242570400237,0.0030292481606826183,-0.0020280717615038155
1772044390807001600,2.867001708984375,0.01915185971558094,0.002670826644450426,-0.003733323043119162
1772044390816987400,2.8769873046875,0.021242694514989852,-0.006219897428154945,-0.0004589227486401796
1772044390826972400,2.886972412109375,0.028422376886010167,0.0002155059142038226,-0.00953623716821894
1772044390836958700,2.896958740234375,0.030666940942406653,-0.002010097713395953,0.00004351034816354513
1772044390846944500,2.906944580078125,0.022739070552587507,-0.0002329319730401039,0.005337616434600204
1772044390856929500,2.916929443359375,0.030669863551855085,0.000019544950686395168,0.00020998948886990547
1772044390866915600,2.92691552734375,0.022593524602055548,-0.004966463300958276,-0.006460957908723503
1772044390876901600,2.936901611328125,0.03366612275838852,-0.0002674187645316124,-0.002965389144234359
1772044390886887400,2.946887451171875,0.015562310791015624,-0.0005205532753840089,-0.000295749809872359
1772044390896872400,2.95687255859375,0.02827858450114727,-0.001583360201306641,0.001988817463349551
1772044390906858500,2.9668583984375,0.01960369513630867,-0.0009951119845733045,0.001212499328609556
1772044390916844500,2.976844482421875,0.02335164949297905,-0.010863631580770016,-0.005908237663097679
1772044390926829600,2.98682958984375,0.02530219903886318,-0.002587641873024404,0.0019310959267430006
1772044390936815600,2.996815673828125,0.020364158114790917,0.0047914355276152485,0.001075922135822475
1772044390946801400,3.006801513671875,0.034278117176890374,-0.0017408157853409647,-0.003424165762402117
1772044390956787700,3.01678759765625,0.03353109820187092,0.004970554954186082,0.00032300314297899603
1772044390966772500,3.0267724609375,0.031743045741319656,-0.00276442321203649,0.0022431027516722677
1772044390976758500,3.036758544921875,0.02740706236362457,0.0026244302194565533,0.002506192400958389
1772044390986744000,3.046744140625,0.024115619602799416,-0.000998509518057108,-0.0036496268150396642
1772044390996730000,3.056730224609375,0.03264262492954731,-0.001821552871353924,-0.0006328545434400439
1772044391006715100,3.066715087890625,0.01902326489984989,0.004665032668970525,0.002758468395285308
1772044391016701200,3.076701171875,0.011241524982452391,-0.003879654444940388,0.006318937355838715
1772044391026687200,3.086687255859375,0.025910686326026916,-0.007453165550157428,-0.0011647146641276776
1772044391036672000,3.096672119140625,0.025155484044551847,0.007065298743732273,-0.0037825324797071515
1772044391046658300,3.106658203125,0.02785071447789669,-0.002926116579771042,0.0003243183172307908
1772044391056644000,3.11664404296875,0.02620411631464958,0.002117065219208598,-0.003188384245149791
1772044391066630100,3.126630126953125,0.03338496772944927,0.0025688641073182226,-0.0024879078255966303
1772044391076615200,3.136615234375,0.026205285358428955,-0.007058722872473299,0.0009814670517109335
1772044391086601200,3.146601318359375,0.02769990783035755,0.001698145687393844,-0.00004561097370460629
1772044391096587300,3.156587158203125,0.021864625805616378,0.00298146349620074,0.00813037069197744
1772044391106572000,3.166572021484375,0.026653029125928877,-0.007392302208393812,-0.0001717581040225923
1772044391116558000,3.17655810546875,0.021721417942643165,-0.0001946092566475272,0.002426971418596804
1772044391126544100,3.186544189453125,0.02053250041902065,-0.006212335176207125,0.0005426007104106247
1772044391136530200,3.1965302734375,0.024424831682443617,0.006610650311410427,-0.007840941025037318
1772044391146515200,3.20651513671875,0.022333996883034706,0.0010317542005330324,-0.0037182533381506797
1772044391156501000,3.2165009765625,0.025481062737107277,-0.0037139790218323468,0.0018358919239602981
1772044391166487300,3.2264873046875,0.01888824034333229,-0.007571275504492223,-0.0018504136396571994
1772044391176473000,3.23647314453125,0.024728783065080643,0.0033244317149743437,0.003659764616563916
1772044391186458000,3.2464580078125,0.027120646637678145,0.0014229820078238845,0.007972202721890061
1772044391196444200,3.256444091796875,0.023982348611950872,-0.00485416203290224,-0.0067190973882563405
1772044391206430200,3.26643017578125,0.02742810515165329,-0.0006182780288159846,0.0034679501052014526
1772044391216415200,3.276415283203125,0.027129414466023443,-0.002121229937672615,0.0007775785100646316
1772044391226401000,3.286401123046875,0.021596914780139923,-0.000777742906846106,0.0004407477711327374
1772044391236387300,3.29638720703125,0.031034605211019514,0.0013357421157881616,-0.0005812704866752028
1772044391246373000,3.306373046875,0.026254385197162628,0.0006285071618855,0.004356697372160851
1772044391256358100,3.316358154296875,0.025206921970844266,0.0011768617596477268,0.0045901956007815894
1772044391266344200,3.32634423828125,0.0244604875177145,-0.006286934782378375,0.00031136750411242244
1772044391276330200,3.336330322265625,0.025058453410863876,-0.0058031333208084105,0.001521766207180917
1772044391286316000,3.34631591796875,0.02581716282367706,-0.00003653261810541153,0.004633157959673553
1772044391296301000,3.356301025390625,0.028366262784600256,0.006208426186069846,-0.00453525054315105
1772044391306287000,3.366287109375,0.02896656676530838,0.005168159885518253,-0.0023593312761746345
1772044391316273200,3.376273193359375,0.021487024664878843,0.0008875234242528676,0.008972246609907596
1772044391326258200,3.386258056640625,0.02208382151424885,0.000032367899641394614,0.001468885242473334
1772044391336244200,3.396244140625,0.01445756441950798,-0.006536452564038336,0.004168189062736929
1772044391346230300,3.406230224609375,0.02492927407324314,-0.0023607012493535875,-0.0004290755996480584
1772044391356216300,3.41621630859375,0.024781390035152433,0.007020290558226406,0.004061239823233336
1772044391366201000,3.426201171875,0.03436754902601242,-0.004807327216491103,0.004925291040353477
1772044391376187100,3.436187255859375,0.025542437535524366,-0.004442950883507728,0.009140241854265332
1772044391386173200,3.446173095703125,0.032279636836051936,-0.0043407691506668926,0.003494618916418403
1772044391396158200,3.456158203125,0.022848960667848587,-0.01219473405405879,0.0024405432862229645
1772044391406144300,3.466144287109375,0.02224748764336109,-0.004865815938077867,-0.00021196225024759768
1772044391416130000,3.476130126953125,0.023147066831588743,0.0015543898351490497,-0.003763626849837601
1772044391426116400,3.486116455078125,0.02195464217662811,-0.0033794863704591986,0.0014573774677701294
1772044391436101000,3.49610107421875,0.031087796702980994,-0.004597593455947935,0.007297609662264585
1772044391446087200,3.506087158203125,0.03378302713632583,-0.003778787886351347,-0.004570175726059824
1772044391456073000,3.516072998046875,0.030192309167981147,0.0030627485714852807,-0.0019037695284001529
1772044391466059300,3.526059326171875,0.022414076381921767,-0.005888181255757808,0.00043713104194030165
1772044391476044300,3.536044189453125,0.019568039301037787,-0.0018443126924335956,0.00783940665507689
1772044391486030000,3.546030029296875,0.02555880414843559,-0.0013278510702773927,-0.0001710822505876422
1772044391496016400,3.556016357421875,0.022716274198889733,-0.0018606793053448198,-0.0027920418713241815
1772044391506001200,3.566001220703125,0.02481120065152645,0.001074424298480153,-0.004061495551560074
1772044391515987200,3.5759873046875,0.02346095508635044,-0.007681165619753301,-0.0016867475105449556
1772044391525973000,3.585972900390625,0.025713702449202538,-0.003362535235658288,0.0025800248221494256
1772044391535959300,3.595959228515625,0.030357144340872763,-0.0035026012934744354,-0.005657094179932028
1772044391545944300,3.6059443359375,0.028414778101444244,0.004434913707524538,-0.005281648463662713
1772044391555930000,3.61593017578125,0.02841886975467205,0.0019397358909249306,-0.0013877645639702677
1772044391565916200,3.625916259765625,0.025419687938690184,-0.0007325885908678174,0.0015968042047694324
1772044391575901200,3.635901123046875,0.028110826718807217,-0.004692395599931478,-0.004970226160623133
1772044391585887200,3.64588720703125,0.030054946523904797,0.0060074967864900825,0.0034452633493579922
1772044391595873000,3.655873046875,0.039789574074745176,0.0020397987319156524,-0.003286529123689979
1772044391605859300,3.665859375,0.03021510552167892,-0.001014766533114016,-0.006575779927428811
1772044391615844400,3.67584423828125,0.027820903861522674,-0.0036410964487120505,-0.003070310823433101
1772044391625830100,3.685830078125,0.019888357296586036,-0.0046126083619892596,-0.000926741189789027
1772044391635816200,3.695816162109375,0.021534370937943456,-0.005055895150080323,-0.0018188129249960183
1772044391645801000,3.705801025390625,0.028272154760360716,-0.006296762056648731,-0.0015940094594843685
1772044391655787300,3.715787353515625,0.03455868768393993,-0.003944755570404231,-0.0024835421777330336
1772044391665773000,3.72577294921875,0.030522564035654065,-0.006049838090874254,-0.001793075695540756
1772044391675759000,3.735759033203125,0.024389175847172737,-0.00869034266229719,0.007283124479185789
1772044391685744000,3.745744140625,0.02394552373290062,-0.01222713848631829,0.0055371575946919615
1772044391695730200,3.755730224609375,0.029784897410869596,-0.008148673533648253,-0.001348254537489265
1772044391705716200,3.76571630859375,0.024700726014375684,0.001708886277116835,-0.005312573324888944
1772044391715702000,3.775701904296875,0.02948679124712944,0.001984378750249743,-0.001370923027023673
1772044391725687300,3.785687255859375,0.023058219504356384,-0.011045965877734125,0.0008747187416069209
1772044391735673000,3.795673095703125,0.02994038023352623,0.0037467122476547952,-0.0005355316488072276
1772044391745659100,3.8056591796875,0.026949381723999976,-0.00386164386421442,-0.0033111155756749213
1772044391755644200,3.81564404296875,0.0266477684289217,-0.005063603532500564,0.010976060712989419
1772044391765630200,3.825630126953125,0.02290624381303787,0.001580254928767681,-0.0026228775831870733
1772044391775616300,3.8356162109375,0.029792496195435524,-0.015000037265755235,-0.0073098480893298975
1772044391785602000,3.84560205078125,0.029052491483092305,-0.0057125689605250956,0.00012594620091840625
1772044391795587000,3.855587158203125,0.03055295917391777,0.0035507147515192626,-0.004092877070512623
1772044391805573000,3.865572998046875,0.026507483175396918,-0.004447700123861432,-0.0044686333140358326
1772044391815559200,3.87555908203125,0.02905366052687168,0.0007260492522269487,-0.010160323883313685
1772044391825544200,3.885544189453125,0.025758710634708405,-0.0007404065711423755,0.005204509840533137
1772044391835530200,3.8955302734375,0.02875087818801403,-0.002221292778663337,0.0007171352934092283
1772044391845516300,3.905516357421875,0.022006664624810216,-0.0029923502163961527,-0.006808383106905966
1772044391855502000,3.915502197265625,0.025289924079179762,-0.0006752689130604267,0.0031606742543168363
1772044391865487000,3.925487060546875,0.024846271964907643,-0.002041515764966607,-0.0031473398487083613
1772044391875473200,3.93547314453125,0.023496610921621322,-0.00016468904241919517,-0.005542838416807353
1772044391885459200,3.945459228515625,0.029482699593901634,-0.000350567003339529,0.002069134424254298
1772044391895445000,3.955445068359375,0.023348142361640928,-0.0018312340151518582,0.0001511354411020875
1772044391905430000,3.965429931640625,0.030986089894175527,-0.0018873481165617703,-0.0018094788410700858
1772044391915416300,3.975416259765625,0.026646599385142324,-0.004009381771832704,0.011010912830661981
1772044391925402000,3.985402099609375,0.022316461226344106,-0.00028250673580914736,-0.0030838644247502085
1772044391935387100,3.99538720703125,0.023363924452662468,-0.0016325696378946303,-0.008334295766241848
1772044391945373200,4.005373291015625,0.02920037552118301,0.00014945494066923856,-0.004435516495723277
1772044391955359200,4.015359130859375,0.02950198881626129,-0.015845182853005825,0.0006043956339359284
1772044391965345000,4.025344970703125,0.024267595294117927,-0.01767422491107136,-0.004284472386166453
1772044391975330000,4.035330078125,0.03503799563348293,-0.005304864942468702,-0.0014428009531460703
1772044391985316600,4.045316650390625,0.020372341421246526,-0.0007309811556711793,-0.0012538177196867763
1772044391995302400,4.055302490234375,0.022474866658449173,-0.01241272418629378,0.002554543321020901
1772044392005287700,4.06528759765625,0.023823358657956123,0.0006615691812708974,-0.003194704388082027
1772044392015273500,4.0752734375,0.023665537747740745,-0.003935987742058933,-0.004759195492137223
1772044392025259500,4.085259521484375,0.03264145588576794,0.000878061476163566,0.0025417751709930596
1772044392035245300,4.095245361328125,0.0262076234459877,-0.00399882384520024,-0.004135985559877008
1772044392045230600,4.105230712890625,0.024113281515240666,-0.006522387506067752,-0.005726725350040942
1772044392055216600,4.115216552734375,0.02351414657831192,-0.005622808317840099,-0.0044074229124002155
1772044392065202400,4.125202392578125,0.02860357867181301,0.0038503187526017424,-0.0004256415335461497
1772044392075187500,4.1351875,0.024860300490260123,0.0034407150384038686,0.00029711978305131193
1772044392085173500,4.145173583984375,0.03114507984817028,-0.00605568330977112,-0.001119816076476127
1772044392095159600,4.15515966796875,0.02814823611974716,-0.007008709718286991,-0.002789594185911119
1772044392105145300,4.165145263671875,0.021257307562232017,-0.009932524743117392,-0.003243895558360964
1772044392115130400,4.17513037109375,0.031284196057915686,-0.0020528408765792846,0.004837649289518594
1772044392125116700,4.18511669921875,0.0309872589379549,-0.01145451014600694,0.0019434622179716823
1772044392135102500,4.1951025390625,0.03323240751624107,0.0005928878592327237,-0.0032146877301856874
1772044392145088500,4.205088623046875,0.026043957316875456,-0.006271298821829259,-0.00008846373474225401
1772044392155073500,4.215073486328125,0.024846856486797332,-0.008797931222617626,0.0027807532923296093
1772044392165059600,4.2250595703125,0.01961363200843334,-0.0025785452511161563,-0.007333850019425154
1772044392175045400,4.23504541015625,0.022901567637920377,0.0021108181415125725,-0.006060030691325664
1772044392185030400,4.245030517578125,0.023794717085361478,-0.0058250894242897625,0.0006940284124575555
1772044392195016700,4.2550166015625,0.023792378997802732,-0.004644245609268546,-0.0019436083484441042
1772044392205002500,4.26500244140625,0.020350129589438437,0.0015452932132408023,0.0012300897842273115
1772044392214988500,4.274988525390625,0.02738017435669899,-0.004893763390928506,-0.005889642560482025
1772044392224973600,4.2849736328125,0.02243570369184017,-0.004095854478888213,-0.0008133622094988822
1772044392234959600,4.294959716796875,0.02153729354739189,-0.0005510214788839221,0.001209503653924912
1772044392244945400,4.3049453125,0.02947626985311508,-0.003828618377447128,0.007310396078601479
1772044392254930400,4.314930419921875,0.028272154760360716,-0.01038731930591166,-0.001245835342630744
1772044392264916500,4.32491650390625,0.026179566395282745,-0.001535246743261814,-0.0005355316488072276
1772044392274902500,4.334902587890625,0.018988193586468697,-0.0009061550594866275,-0.003762311675585806
1772044392284888600,4.344888671875,0.01973696612715721,-0.006985292310081422,-0.007571220705565065
1772044392294873600,4.35487353515625,0.02886193734705448,-0.007731836361065506,0.0010371610280126332
1772044392304859600,4.364859619140625,0.02346446221768856,-0.012146803259104489,-0.004713036529161036
1772044392314845400,4.374845458984375,0.03169160781502724,-0.0027031945440918206,0.0010462576499208807
1772044392324830500,4.38483056640625,0.03348959714770317,0.0024254370486363765,-0.008423325756564735
1772044392334816500,4.39481640625,0.018373861080408095,-0.0019904066322371365,-0.0085689082397148
1772044392344802600,4.404802490234375,0.028395488879084586,0.0007536679115146398,-0.0014685199162922798
1772044392354788600,4.41478857421875,0.029893033960461616,0.001074241635389626,-0.003796086081024259
1772044392364773600,4.424773681640625,0.031097149053215978,-0.0012367387207224965,-0.005158314344938844
1772044392374759400,4.434759521484375,0.026158523607254028,-0.010582476551830767,-0.0007531564548611641
1772044392384745500,4.444745361328125,0.020931144347786902,-0.011185922337695955,0.005658445886801928
1772044392394731500,4.4547314453125,0.022878771284222603,-0.0028425664821639654,0.004195789455715567
1772044392404716500,4.464716552734375,0.02961713962852955,-0.004847220835462213,0.0032311274083331224
1772044392414702600,4.47470263671875,0.03456277933716774,-0.010058196949400007,0.004678915063850582
1772044392424688600,4.484688720703125,0.029774376016855238,0.004727357315458357,-0.002674680835660547
1772044392434673700,4.494673583984375,0.02932546320557594,-0.005154350555874407,-0.005238576506916433
1772044392444659500,4.504659423828125,0.03142623487710953,0.0005185439813882113,-0.007177380816079676
1772044392454645800,4.514645751953125,0.01960311061441898,-0.01288717329762876,-0.0041610652022063726
1772044392464631600,4.524631591796875,0.031869886991381643,-0.0037376521583646536,0.0033756504455581303
1772044392474616600,4.534616455078125,0.026187749701738355,-0.00457757358122617,-0.001085913806874305
1772044392484602400,4.544602294921875,0.0264864403873682,-0.004583637995831668,-0.00829036529297009
1772044392494588700,4.554588623046875,0.021992051577568054,-0.00462820778992027,-0.00040341143542900677
1772044392504573700,4.56457373046875,0.019893033471703528,-0.00016629647761583327,-0.0018909465794451534
1772044392514559500,4.5745595703125,0.01973521256148815,-0.0025878976013511417,-0.005918338932003825
1772044392524545500,4.584545654296875,0.020925299128890035,-0.007846110390499234,-0.003743497377261519
1772044392534531600,4.594531494140625,0.015386954224109649,-0.004608735904470086,0.00047008346347138285
1772044392544516600,4.6045166015625,0.01851999155282974,0.002883957938477397,0.003661627780087292
1772044392554502400,4.61450244140625,0.01582651468515396,-0.004675407932512462,-0.007184121084120124
1772044392564488700,4.62448876953125,0.019864976420998572,-0.009970080274529754,-0.0008506985452026129
1772044392574473700,4.6344736328125,0.029286884760856627,-0.0062358256496489045,0.002745700245257467
1772044392584459500,4.64445947265625,0.02584463535249233,0.0012112754859030246,0.0001486694893799722
1772044392594445600,4.654445556640625,0.02809036845266819,-0.0026954130964353677,0.001954732530657202
1772044392604431600,4.664431640625,0.016419804403185842,-0.012889913243986665,-0.004318539052549749
1772044392614416600,4.674416748046875,0.02000876880586147,-0.013327647074125707,0.002815495812147856
1772044392624402400,4.68440234375,0.02703939809501171,-0.010685133208706975,0.0011688793825916945
1772044392634388500,4.694388427734375,0.030926468661427495,-0.005101889716275036,0.003811922970972955
1772044392644373800,4.704373779296875,0.021644261053204536,-0.008542787417769431,-0.008001940273027867
1772044392654359600,4.714359619140625,0.0220902512550354,-0.0033050328947603702,-0.007792608371283858
1772044392664345600,4.724345703125,0.023430559948086738,-0.007547638900578022,0.0004879844463430345
1772044392674331400,4.734331298828125,0.02208849768936634,-0.0000786181941628456,-0.00012532514641061423
1772044392684316700,4.744316650390625,0.029871406650543213,-0.004244980625994503,0.002345887272711843
1772044392694302500,4.754302490234375,0.02403963175714016,-0.002608100139163434,-0.0018678031658753752
1772044392704288500,4.76428857421875,0.03106792295873165,-0.0025902722215279937,-0.006771832222491502
1772044392714273500,4.7742734375,0.02238251219987869,0.0004386106129735708,-0.0003181260384619236
1772044392724259600,4.784259521484375,0.024170564660429952,-0.004441014654748141,0.00535500596081838
1772044392734245600,4.79424560546875,0.022376082459092138,-0.0038716903341934083,-0.0039076749630272386
1772044392744231400,4.8042314453125,0.03569850536882877,-0.001716521594300866,0.0007500694486312567
1772044392754216400,4.814216552734375,0.024474516043066975,-0.0059788917465135455,0.0005031820154748857
1772044392764202500,4.824202392578125,0.02372983515560627,-0.002190641912072897,-0.007121686839777976
1772044392774188500,4.8341884765625,0.029718846437335012,-0.004507504019699991,-0.00948675373699516
1772044392784173600,4.844173583984375,0.02657762580215931,-0.0013439984874799847,-0.0028335611918009814
1772044392794159600,4.85415966796875,0.0159597856760025,0.006488960160501301,0.0007035999584011733
1772044392804145700,4.864145751953125,0.011918401330709457,0.006889394187554717,-0.0038780652760528026
1772044392814131500,4.87413134765625,0.024040216279029844,0.0021287556570023297,-0.00485631745737046
1772044392824116500,4.884116455078125,0.028085107755661008,-0.010812705111131072,-0.006889266323391347
1772044392834102500,4.8941025390625,0.023903438156843183,-0.016359854376874865,-0.006954623177181929
1772044392844088600,4.904088623046875,0.03587853811085224,-0.005318126282840967,-0.004945310915075243
1772044392854074400,4.914074462890625,0.024949147817492485,-0.0024351181924343107,-0.006104728349577635
1772044392864059400,4.924059326171875,0.021354922717809675,-0.007843589639849961,0.0020068463103845714
1772044392874045700,4.934045654296875,0.020606734699010847,0.00020396160688251257,0.004518756066076457
1772044392884031500,4.944031494140625,0.02195288861095905,0.003249357184767723,-0.005780044706165791
1772044392894016500,4.9540166015625,0.017158640071749685,-0.005161218688078224,-0.0056682183621451256
1772044392904002300,4.964002197265625,0.028681320083141327,-0.0043920974791049954,0.005147153630107641
1772044392913988600,4.973988525390625,0.01865209349989891,0.0007915887691080569,0.000353672275878489
1772044392923974400,4.983974365234375,0.02538987732231617,-0.0002607698280364275,-0.0013240882106125354
1772044392933959400,4.99395947265625,0.03092237700819969,-0.005186718455515801,-0.0033854777198284863
1772044392943945700,5.00394580078125,0.023588380858302116,-0.006522424038685858,0.00286737212985754
1772044392953931500,5.013931640625,0.021344985845685005,-0.0024122853061184285,0.0017655301014892755
1772044392963916500,5.02391650390625,0.023289105650782585,-0.004372735191509127,-0.007121467644069343
1772044392973902300,5.03390234375,0.021043372550606728,-0.00658873074054718,-0.005328227551747113
1772044392983888600,5.043888671875,0.023592472511529922,-0.003710179629549384,-0.007374675220157951
1772044392993874400,5.05387451171875,0.025833529436588287,-0.003939641003869474,0.00007648103600367903
1772044393003859200,5.063859130859375,0.024940964511036872,0.0035177623299881815,0.002145323199313134
1772044393013845200,5.07384521484375,0.014465747725963592,-0.00933054026197642,-0.0017492548201233147
1772044393023831300,5.083831298828125,0.01641220561861992,-0.0030846681423485275,0.0008049779736436903
1772044393033816300,5.09381640625,0.027336335214972494,0.00445814845263958,-0.005551405315753072
1772044393043802400,5.10380224609375,0.03332476197481155,0.0014553864400833844,-0.007119659279473126
1772044393053788200,5.1137880859375,0.019705401945114134,-0.003210742207430303,-0.005558602241519838
1772044393063774500,5.1237744140625,0.0220990190833807,-0.005264386801607906,-0.0001406871123239398
1772044393073759200,5.13375927734375,0.03197042475640774,-0.007035232399031519,-0.0005603738291189074
1772044393083745300,5.143745361328125,0.027031214788556097,-0.0015187705324962734,-0.001963774353638291
1772044393093731300,5.1537314453125,0.01281973408460617,-0.012802052297443151,-0.00714399000313133
1772044393103716400,5.16371630859375,0.027632103291153905,-0.005602459649555385,-0.0014943667436018585
1772044393113702400,5.173702392578125,0.017454992669820785,-0.008425225452706218,-0.0015265885127708316
1772044393123688200,5.183688232421875,0.020751111605763435,-0.0005839373677968978,0.0025461225525476036
1772044393133674500,5.193674560546875,0.020301029750704764,-0.0010420563988387584,-0.0008013429781422018
1772044393143659300,5.2036591796875,0.024941549032926558,-0.009638254504278302,0.0003816379950381815
1772044393153645300,5.213645263671875,0.03332125484347343,-0.002491962946206331,-0.00039911885280162094
1772044393163631000,5.223631103515625,0.028234160837531087,-0.0024704452341422437,-0.0055995370401069515
1772044393173616000,5.2336162109375,0.026734862190484997,-0.009094356885924935,-0.005861512444540858
1772044393183602400,5.2436025390625,0.030770985838770866,-0.003243183172307908,0.005994290245044976
1772044393193588200,5.253588134765625,0.025381694015860556,-0.004962188984639943,-0.007331749393884092
1772044393203574300,5.26357421875,0.025681553745269772,-0.012927724503725766,-0.008582681036740541
1772044393213559300,5.273559326171875,0.03286123611629009,-0.008286291906051338,0.0016580694053322075
1772044393223545300,5.28354541015625,0.02643207985162735,-0.005312317596562206,-0.005978033229988068
1772044393233531100,5.29353125,0.023289105650782585,0.0037944969121366736,0.0008623524503782391
1772044393243516200,5.30351611328125,0.02628302676975727,-0.002671155438013375,-0.000032367899641394614
1772044393253502500,5.31350244140625,0.029128479328751563,-0.004583455332741141,-0.002348243626579642
1772044393263487200,5.3234873046875,0.029127310284972188,-0.004613850471004844,-0.002405380641296506
1772044393273473300,5.333473388671875,0.030624855366349218,-0.0014381065117195248,-0.0008429536301642656
1772044393283459000,5.343458984375,0.018055881172418593,-0.005700513196550309,-0.003127995827421546
1772044393293445400,5.3534453125,0.027037060007452964,-0.005232128499820828,0.005785944723989815
1772044393303430400,5.363430419921875,0.030624855366349218,-0.009777334181405603,-0.007668342670798301
1772044393313416200,5.373416259765625,0.024498481440544128,-0.0030135391348972917,-0.003487933447305113
1772044393323402500,5.383402587890625,0.022846038058400152,-0.0044203371929004785,0.0013464461728930472
1772044393333387300,5.39338720703125,0.034215573334693904,-0.001899476945772767,0.0004981405141763389
1772044393343373300,5.403373291015625,0.02763151876926422,-0.0054940308390185235,-0.005785067941155284
1772044393353359000,5.413359130859375,0.025979075387120246,0.003060995005816221,-0.005229041493590921
1772044393363345400,5.423345458984375,0.024335984355211258,-0.00451101115103811,-0.003289013341721147
1772044393373330400,5.433330322265625,0.027625673550367352,-0.007100150861404836,-0.0008688735227100551
1772044393383316200,5.443316162109375,0.0228396083176136,0.0013407836170867085,-0.0050715859095565976
1772044393393302300,5.45330224609375,0.022836101186275482,-0.0025152707565575835,-0.0034848829736933112
1772044393403287300,5.463287353515625,0.020588614520430565,-0.000050451545603573316,-0.0033590098380111154
1772044393413273300,5.4732734375,0.025074820023775098,-0.010686229187250137,-0.006302315014600753
1772044393423259100,5.483259033203125,0.0351046311289072,0.006095869189687073,-0.00018291881885379552
1772044393433245200,5.4932451171875,0.011171966877579688,-0.016399346137046814,-0.014781663541030138
1772044393443230500,5.50323046875,0.042592941057682035,-0.0018708719057962298,0.014019830589368938
1772044393453216300,5.51321630859375,0.01954699651300907,-0.00006254384219646453,-0.005775423329975456
1772044393463202300,5.523202392578125,0.030170681858062744,-0.010656089777313173,0.006049691960401833
1772044393473187300,5.533187255859375,0.018353987336158752,-0.0011841317506507039,-0.009041256725508718
1772044393483173400,5.54317333984375,0.013124854511022566,-0.008038637287914752,-0.0008354644434526562
1772044393493159200,5.5531591796875,0.028089783930778503,0.004714022909849882,-0.0018096797704696655
1772044393503145200,5.563145263671875,0.022107786911725998,-0.00026062369756400583,0.004544895154330879
1772044393513130200,5.573130126953125,0.029449381846189497,-0.0005344722028821706,-0.005467727353982627
1772044393523116300,5.5831162109375,0.02705459566414356,-0.00908993643913418,-0.004018953317776322
1772044393533102300,5.593102294921875,0.02660626737475395,0.001912701753526926,0.0038641098159365355
1772044393543087400,5.60308740234375,0.02166413479745388,-0.009306063407845795,0.00030744024766609073
1772044393553073400,5.613073486328125,0.02420212884247303,-0.004215827596746385,-0.005121160672325641
1772044393563059500,5.6230595703125,0.020461773270368574,-0.006004099253006279,0.0013364179692231118
1772044393573045200,5.633045166015625,0.02690554258227348,0.0017997428983449935,0.0010464585793204604
1772044393583030300,5.6430302734375,0.0269090497136116,-0.005145180868729948,-0.003709302846714854
1772044393593016300,5.653016357421875,0.03319324454963207,0.002529445412382483,-0.0030735622264444827
1772044393603002400,5.66300244140625,0.018972411495447157,-0.004685965859144926,-0.003994805257208645
1772044393612987400,5.6729873046875,0.017175591206550597,-0.0011385390432551502,-0.0029033567586913703
1772044393622973200,5.68297314453125,0.024210896670818327,-0.005815590943582355,-0.001810191227123141
1772044393632959500,5.69295947265625,0.019122633621096608,-0.015072810241021216,0.0002836757795885205
1772044393642945300,5.7029453125,0.028248189362883567,0.002798288949020207,0.002821286232117563
1772044393652930300,5.712930419921875,0.026156185519695282,-0.007554360902309418,-0.00009754209034144878
1772044393662916000,5.722916015625,0.016285364368557927,0.0004249108811840415,-0.009794760240241885
1772044393672902400,5.73290234375,0.0333487273722887,-0.0036256431512534616,-0.002921550002507865
1772044393682888200,5.74288818359375,0.02601063956916332,-0.006270093245431781,-0.0018442030945792793
1772044393692873200,5.752873291015625,0.023766660034656523,-0.007122874149866402,-0.005230210537370294
1772044393702859500,5.762859619140625,0.028251111972332,-0.0019948636116459964,-0.004236870384775102
1772044393712845300,5.77284521484375,0.030191724646091458,-0.007981719468906521,-0.003182685156725347
1772044393722830300,5.782830322265625,0.03288461699187755,-0.007418021171540021,-0.0008271167402155696
1772044393732816100,5.792816162109375,0.028399580532312393,-0.013566095472499727,0.00214165167119354
1772044393742802400,5.802802490234375,0.023612346255779265,-0.0021939663803204894,-0.0026106391561217606
1772044393752788200,5.812788330078125,0.01672492482960224,0.0016152166442945598,-0.0034137174336239693
1772044393762773200,5.822773193359375,0.022259178081154823,-0.0028425664821639654,-0.0025464330798015
1772044393772759300,5.83275927734375,0.022104279780387877,-0.0072176762938499445,0.0026528525963425637
1772044393782745300,5.842745361328125,0.02659282337129116,0.0024796514539048072,0.004238642216753214
1772044393792731400,5.8527314453125,0.02763794851005077,-0.000050086219422519204,-0.004192885112576187
1772044393802716200,5.862716064453125,0.03661562021374702,0.004065094014443457,0.0018508520310744642
1772044393812702200,5.8727021484375,0.0014595511585474012,-0.002811769485101104,-0.01006725703869015
1772044393822688300,5.882688232421875,-0.5405260960936547,0.06277034442871808,-0.15913754577189684
1772044393832673300,5.89267333984375,0.9033990387767553,-0.09385474359821527,0.22062972349096088
1772044393842659300,5.902659423828125,-0.4022977750986814,0.03769852007962763,-0.10500636180751025
1772044393852645400,5.912645263671875,0.16574878060519693,-0.013302877959050238,0.025717721037194132
1772044393862630400,5.92263037109375,0.04997019182741642,-0.0020846242543309927,0.002501534492149949
1772044393872616200,5.9326162109375,0.00974105729162693,0.003940773515030742,-0.0034950390415266156
1772044393882602200,5.942602294921875,0.1410369486749172,-0.019154416998848317,0.02910254116989672
1772044393892588300,5.95258837890625,0.17789923712611197,-0.020368907355144617,0.06084964203182607
1772044393902573300,5.9625732421875,-0.2709568755298853,0.03196352009158581,-0.08738795873690396
1772044393912559400,5.972559326171875,-0.07675941455364227,0.002013531779497862,-0.036874526878260074
1772044393922545200,5.982545166015625,0.24705109928548336,-0.023489267865382135,0.07131393556408584
