time,seconds_elapsed,z,y,x
1772044388010996700,0.070996826171875,0.0003298996016383171,-0.00042833713814616203,-0.0005197071004658937
1772044388020982800,0.080982666015625,-0.0009065335616469383,0.0011472967453300953,-0.0001934962347149849
1772044388030967800,0.0909677734375,-0.00035792216658592224,0.0008650016388855875,0.0012917486019432545
1772044388040953600,0.10095361328125,0.0008039204403758049,0.0002852922189049423,0.0016852642875164747
1772044388050940000,0.11093994140625,-0.0007375171408057213,0.0014485609717667103,-0.002383513143286109
1772044388060925700,0.12092578125,-0.0005709044635295868,0.002439668867737055,0.00039187073707580566
1772044388070910700,0.13091064453125,-0.0007967408746480942,0.0009490975644439459,0.0019346399931237102
1772044388080896500,0.140896484375,-0.00008274801075458527,-0.0018879679264500737,0.00017029582522809505
1772044388090882800,0.1508828125,-0.0014694565907120705,-0.0009587910026311874,0.0005679058376699686
1772044388100868600,0.16086865234375,-0.0006405049934983253,-0.000777200039010495,-0.0003765830770134926
1772044388110853600,0.170853515625,0.0007539261132478714,0.0005490542389452457,-0.00006898795254528522
1772044388120839700,0.180839599609375,-0.0006538284942507744,0.0008264714269898832,0.0008662834297865629
1772044388130825700,0.19082568359375,0.002172051928937435,0.0008594946702942252,0.0005845208652317524
1772044388140810800,0.200810791015625,-0.0002961987629532814,-0.00043579511111602187,0.00045483862049877644
1772044388150796500,0.210796630859375,-0.0025194063782691956,0.0010566402925178409,0.0009030485525727272
1772044388160782800,0.220782958984375,-0.003898962400853634,0.0012603600043803453,0.00010860990732908249
1772044388170768600,0.2307685546875,-0.0016107745468616486,0.00035435263998806477,0.0001759878359735012
1772044388180753700,0.240753662109375,-0.0007951250299811363,0.0020627472549676895,0.0007812879048287868
1772044388190739700,0.25073974609375,-0.001136542297899723,0.0012978874146938324,-0.000875730998814106
1772044388200725800,0.260725830078125,-0.0025334013625979424,-0.0013918336480855942,0.001639904803596437
1772044388210711800,0.2707119140625,-0.0008212551474571228,0.0016747962217777967,0.0005322960205376148
1772044388220696600,0.280696533203125,-0.0004431242123246193,-0.0009513588738627732,0.0018177861347794533
1772044388230682600,0.2906826171875,0.00032013747841119766,-0.0004485541139729321,0.0013551951851695776
1772044388240668700,0.300668701171875,-0.0007175933569669724,0.001449601724743843,-0.0012569373939186335
1772044388250654700,0.31065478515625,0.00015672296285629272,-0.001805313746444881,0.0013708036858588457
1772044388260639700,0.3206396484375,-0.001184878870844841,-0.0009048606152646244,0.0007988864090293646
1772044388270625500,0.33062548828125,0.0018540546298027039,0.00035827665124088526,0.001389309298247099
1772044388280611800,0.34061181640625,0.0018212301656603813,0.0015087369829416275,0.00027323816902935505
1772044388290597600,0.35059765625,0.00038392189890146255,-0.001937393331900239,-0.0021947131026536226
1772044388300582700,0.360582763671875,0.0003126021474599838,0.0000457897549495101,-0.0013722479343414307
1772044388310568700,0.370568603515625,0.0013040965422987938,-0.0027771610766649246,0.002230210229754448
1772044388320554800,0.3805546875,-0.0005845325067639351,-0.001088427030481398,-0.0013490417040884495
1772044388330540500,0.39054052734375,0.00041069090366363525,-0.0014788465341553092,0.00014632311649620533
1772044388340525600,0.400525634765625,0.00031312089413404465,-0.0003676303313113749,-0.0007153721526265144
1772044388350511900,0.410511962890625,-0.00032044481486082077,-0.0009663089876994491,0.0013773399405181408
1772044388360497700,0.42049755859375,-0.00038514938205480576,0.0003430828219279647,0.001466086134314537
1772044388370482700,0.430482666015625,-0.0003028577193617821,-0.00037836754927411675,-0.0010370190721005201
1772044388380468500,0.440468505859375,-0.0017738919705152512,-0.001972063910216093,-0.00016473419964313507
1772044388390454800,0.450454833984375,-0.0016905348747968674,0.000815999461337924,-0.001255831215530634
1772044388400440600,0.460440673828125,-0.0006927447393536568,-0.0009458026615902781,0.0006076863501220942
1772044388410425600,0.470425537109375,0.0007522869855165482,-0.002561009954661131,-0.0010996661148965359
1772044388420411600,0.48041162109375,0.000888393260538578,0.0007816211436875165,-0.0011647874489426613
1772044388430397700,0.490397705078125,0.0008838651701807976,0.0009725698037073016,0.003947149962186813
1772044388440383700,0.5003837890625,-0.0001226244494318962,-0.0014781916979700327,0.0006707669235765934
1772044388450368800,0.51036865234375,-0.001097341999411583,0.00060653081163764,0.0006414719391614199
1772044388460354800,0.520354736328125,-0.001338893547654152,-0.0006678894278593361,0.0018711937591433525
1772044388470340600,0.530340576171875,-0.0004632463678717613,0.00004929979331791401,-0.0010447013191878796
1772044388480326700,0.54032666015625,-0.0007963245734572411,0.0012011306826025248,0.0005638978909701109
1772044388490311700,0.550311767578125,-0.0020392220467329025,-0.0029965436551719904,0.00020383833907544613
1772044388500297700,0.560297607421875,0.000891772098839283,-0.0007440922781825066,0.0017337623285129666
1772044388510283800,0.57028369140625,0.0013383841142058372,-0.0008839082438498735,0.0025825118646025658
1772044388520269600,0.58026953125,-0.00038514193147420883,-0.00024194043362513185,0.00021568220108747482
1772044388530254600,0.590254638671875,0.0009355200454592705,-0.0019748592749238014,0.00267670932225883
1772044388540240600,0.60024072265625,-0.0012303246185183525,0.000011961383279412985,-0.0008649090304970741
1772044388550226700,0.610226806640625,-0.002269224263727665,-0.0030735768377780914,-0.0005434656050056219
1772044388560211700,0.620211669921875,0.0024164514616131783,0.0016045900993049145,-0.00015529943630099297
1772044388570197800,0.63019775390625,-0.0016139764338731766,0.0008487851009704173,-0.0006626315880566835
1772044388580183800,0.640183837890625,-0.000023502856492996216,-0.0006734409835189581,-0.0011234122794121504
1772044388590169600,0.650169677734375,-0.0005848966538906097,-0.0015291146701201797,0.00004598195664584637
1772044388600154600,0.660154541015625,0.0005076378583908081,0.002959677716717124,-0.0006235914770513773
1772044388610141000,0.670140869140625,-0.0005387188866734505,-0.000006817339453846216,-0.0003586066886782646
1772044388620126700,0.680126708984375,0.0018094833940267563,-0.00020963884890079498,0.0006069387309253216
1772044388630112800,0.69011279296875,-0.003361309878528118,0.0007240654085762799,-0.0026474441401660442
1772044388640097500,0.70009765625,0.0015229033306241035,0.003071105806156993,0.0014322686474770308
1772044388650083800,0.710083740234375,-0.0005684774369001389,-0.0007907440885901451,0.00123972212895751
1772044388660069600,0.720069580078125,0.0032271016389131546,-0.0009453034144826233,0.0017086697043851018
1772044388670055700,0.7300556640625,-0.0006973333656787872,0.0026779272593557835,0.000652992632240057
1772044388680040700,0.740040771484375,0.0005467841401696205,0.0014641089364886284,0.0013841360341757536
1772044388690026800,0.75002685546875,0.002811003476381302,0.0012683665845543146,0.00021127983927726746
1772044388700012800,0.7600126953125,0.0033338190987706184,-0.0007443911745212972,0.0007643394637852907
1772044388709998600,0.76999853515625,-0.0027909185737371445,0.00007453083526343107,-0.00020478502847254276
1772044388719983900,0.77998388671875,-0.0004863385111093521,0.0013310601934790611,0.0023882072418928146
1772044388729969700,0.7899697265625,0.00030435342341661453,-0.00005697936285287142,0.0011668815277516842
1772044388739955700,0.799955810546875,0.0004755426198244095,0.0009202181827276945,-0.00043289014138281345
1772044388749940700,0.809940673828125,0.0007943231612443924,-0.0005397267523221672,0.00004940829239785671
1772044388759926800,0.8199267578125,-0.0010153735056519508,-0.0006408290937542915,0.002264426089823246
1772044388769912800,0.829912841796875,0.0012315362691879272,-0.0003550719702616334,0.0014553576475009322
1772044388779898600,0.839898681640625,-0.0004179254174232483,-0.0015611423877999187,0.00027797697111964226
1772044388789883600,0.849883544921875,0.000257185660302639,-0.0007717813132330775,-0.0003843512386083603
1772044388799869700,0.85986962890625,0.003005305305123329,-0.0009117510635405779,-0.0007828462403267622
1772044388809855700,0.869855712890625,-0.0015180734917521477,0.0018379627726972103,-0.0013000324834138155
1772044388819841500,0.879841552734375,0.00017009954899549484,0.001995052443817258,0.0032581056002527475
1772044388829826600,0.88982666015625,0.0013935556635260582,-0.00189529312774539,-0.0012764586135745049
1772044388839812900,0.899812744140625,0.0014843577519059181,-0.00005026545841246843,0.000005149282515048981
1772044388849798700,0.909798583984375,0.0000963183119893074,0.0018914452521130443,-0.000393525930121541
1772044388859784700,0.91978466796875,0.0016916021704673767,-0.00024474208476021886,0.00009175180457532406
1772044388869769700,0.929769775390625,0.0006601596251130104,0.0021568965166807175,0.000794293824583292
1772044388879755800,0.939755859375,0.0037819836288690567,-0.001468090107664466,-0.0008241049945354462
1772044388889741600,0.949741455078125,0.003489568829536438,0.00018493403331376612,-0.0019436981528997421
1772044388899728000,0.959727783203125,-0.00014977343380451202,0.0007324359612539411,0.0003173144068568945
1772044388909713000,0.969712890625,0.002241212874650955,-0.0014116750098764896,0.0010278457775712013
1772044388919698700,0.97969873046875,0.000619351863861084,0.0013395720161497593,0.0008425861597061157
1772044388929684700,0.989684814453125,0.001870770938694477,-0.0026666210032999516,0.0017464630072936416
1772044388939669500,0.99966943359375,0.0002839472144842148,0.00046718629891984165,-0.0011676568537950516
1772044388949655800,1.00965576171875,0.0008035292848944664,-0.0029440566431730986,-0.00007682596333324909
1772044388959641600,1.0196416015625,-0.0011388082057237625,0.0011386461555957794,0.00009677419438958168
1772044388969627600,1.029627685546875,-0.0020157871767878532,-0.0007119844085536897,0.0034520907793194056
1772044388979612700,1.03961279296875,0.0009214505553245544,0.0005650576786138117,0.0009632545989006758
1772044388989598700,1.0495986328125,0.0011696573346853256,-0.0028203525580465794,0.0019771200604736805
1772044388999584800,1.059584716796875,0.0018811943009495735,0.001732545904815197,0.0016668891767039895
1772044389009570600,1.069570556640625,-0.0015817144885659218,-3.729364834725857e-7,0.00273321894928813
1772044389019555600,1.0795556640625,0.0009262757375836372,-0.0006559977773576975,0.0014817637857049704
1772044389029541600,1.089541748046875,0.0005568945780396461,-0.0037495256401598454,0.0004652352072298527
1772044389039527700,1.099527587890625,0.0010302504524588585,0.0019182380056008697,-0.0012555141001939774
1772044389049512700,1.1095126953125,0.0002566017210483551,0.0007302018348127604,0.0029339042957872152
1772044389059498500,1.11949853515625,0.0020070504397153854,-0.002425020094960928,0.0012131743133068085
1772044389069484800,1.12948486328125,0.0007476415485143661,-0.00016878993483260274,-0.00042200670577585697
1772044389079470600,1.139470703125,0.0010060518980026245,0.001362104550935328,0.0010501323267817497
1772044389089455600,1.14945556640625,0.0009463969618082047,-0.0024917558766901493,0.0004003210924565792
1772044389099441700,1.159441650390625,0.00042918696999549866,-0.0013077694457024336,-0.0004204767756164074
1772044389109427700,1.169427734375,-0.0002057114616036415,-0.0013740821741521358,0.00028366316109895706
1772044389119413500,1.17941357421875,0.0010244743898510933,0.0002107297768816352,0.0006126214284449816
1772044389129398500,1.1893984375,0.0017411308363080025,-0.001503280596807599,0.0007921184878796339
1772044389139384800,1.199384765625,0.0023652976378798485,-0.002621530322358012,0.0010067163966596127
1772044389149370600,1.20937060546875,0.0019128266721963882,-0.0012745035346597433,-0.0002494966611266136
1772044389159356700,1.219356689453125,0.0022866670042276382,0.0033474373631179333,-0.0004353453405201435
1772044389169341400,1.229341552734375,0.0004237852990627289,0.001148465322330594,-0.0006598499603569508
1772044389179327700,1.23932763671875,0.00202806293964386,0.0005314105655997992,-0.000011530239135026932
1772044389189313500,1.2493134765625,0.0014043506234884262,-0.0013655591756105423,0.0020835786126554012
1772044389199298600,1.259298583984375,0.001469154842197895,0.0028325291350483894,-0.00039148726500570774
1772044389209284600,1.26928466796875,0.00043052248656749725,-0.002471955493092537,0.0018990975804626942
1772044389219270700,1.279270751953125,0.0013161106035113335,0.0015102825127542019,0.00028551602736115456
1772044389229256700,1.289256591796875,-0.00005674920976161957,-0.0005147850606590509,0.0008849937003105879
1772044389239241700,1.29924169921875,0.002548482269048691,-0.0010177504736930132,0.0003220613580197096
1772044389249227800,1.309227783203125,0.0006033089011907578,-0.001829215558245778,0.0012874571839347482
1772044389259213600,1.319213623046875,-0.00019248947501182556,0.0009352340712212026,0.0009828817564994097
1772044389269199600,1.32919970703125,-0.00044815242290496826,0.0005283030332066119,0.0022596013732254505
1772044389279184600,1.3391845703125,-0.001693657599389553,-0.00013669539475813508,0.0013753979001194239
1772044389289170700,1.349170654296875,-0.0007956391200423241,-0.0008325794478878379,-0.0007130531594157219
1772044389299156700,1.35915673828125,0.0018014078959822655,0.0021763199474662542,0.0002249132376164198
1772044389309142500,1.369142578125,-0.0005040904507040977,-0.0002982893493026495,-0.0009961461182683706
1772044389319127600,1.37912744140625,-0.002207239158451557,0.0019230047473683953,0.0011853573378175497
1772044389329113600,1.389113525390625,-0.00014621950685977936,-0.00031857797876000404,0.00027056154794991016
1772044389339099600,1.399099609375,-0.001202763058245182,-0.0006519915768876672,0.000816642539575696
1772044389349084700,1.409084716796875,0.000306449830532074,-0.00010045093949884176,0.0011290311813354492
1772044389359070700,1.41907080078125,0.0018530907109379768,0.0004784264601767063,-0.0010023473296314478
1772044389369056800,1.429056884765625,-0.0011858418583869934,0.0017466237768530846,-0.0010481534991413355
1772044389379042600,1.43904248046875,0.0018717404454946518,0.00045479164691641927,0.000919451005756855
1772044389389027600,1.449027587890625,0.0001734429970383644,0.0012864968739449978,-0.00014607980847358704
1772044389399013600,1.459013671875,-0.00040481239557266235,-0.00030091736698523164,0.00014106789603829384
1772044389408999700,1.468999755859375,0.002055947668850422,-0.00010251183994114399,-0.00018943031318485737
1772044389418985700,1.47898583984375,-0.0005503473803400993,0.002073882147669792,0.00008051865734159946
1772044389428970500,1.488970458984375,-0.0007080063223838806,0.00014628598000854254,0.001323149655945599
1772044389438956800,1.498956787109375,0.0009251870214939117,0.0003299875825177878,0.0003307121805846691
1772044389448942600,1.508942626953125,0.0007528802379965782,-0.00006735604256391525,-0.0009830249473452568
1772044389458928600,1.5189287109375,-0.00006200466305017471,0.0023035253398120403,0.0008759889751672745
1772044389468913700,1.52891357421875,0.0006831474602222443,0.0007434457074850798,-0.0001730301883071661
1772044389478899700,1.538899658203125,0.0006492286920547485,-0.0004965038388036191,0.0019961046054959297
1772044389488885800,1.5488857421875,0.000055077485740184784,0.0012627802789211273,0.003631019266322255
1772044389498870500,1.55887060546875,-0.0006140638142824173,0.003315810114145279,-0.0000693777110427618
1772044389508856800,1.56885693359375,-0.00044868141412734985,0.0029781213961541653,-0.000704009085893631
1772044389518842600,1.578842529296875,0.0005484763532876968,0.0029991527553647757,0.0023839278146624565
1772044389528828700,1.58882861328125,0.0006334315985441208,0.001087802229449153,0.0014140047132968903
1772044389538813700,1.598813720703125,0.0009703990072011948,0.000556649174541235,-0.0010238529648631811
1772044389548799700,1.6087998046875,0.00044256076216697693,-0.00033577607246115804,0.0012656666804105043
1772044389558785800,1.618785888671875,-0.001025436446070671,-0.0014725936343893409,0.00017761113122105598
1772044389568771600,1.628771484375,0.0003727227449417114,-0.0005205136258155107,-0.000503891846165061
1772044389578756600,1.638756591796875,-0.0017762351781129837,0.0009051380911841989,-0.001365669071674347
1772044389588742700,1.64874267578125,-0.001904333010315895,0.0022130166180431843,0.001547829364426434
1772044389598728700,1.658728759765625,-0.0018744952976703644,0.0013119843788444996,-0.00015282933600246906
1772044389608713700,1.668713623046875,-0.0008222805336117744,0.00017081992700695992,0.0007590369787067175
1772044389618699500,1.678699462890625,-0.0003335829824209213,0.00046284793643280864,-0.00028895027935504913
1772044389628685800,1.688685791015625,-0.0011266721412539482,0.0012511436361819506,0.0010194606147706509
1772044389638671600,1.698671630859375,-0.00026905443519353867,0.0001035751192830503,-0.0010203646961599588
1772044389648656600,1.70865673828125,0.0010433513671159744,-0.00062613096088171,-0.0005995852407068014
1772044389658642700,1.718642578125,0.00032913684844970703,0.0005030918400734663,0.0012988168746232986
1772044389668628700,1.728628662109375,-0.00036301836371421814,0.0014043054543435574,0.000035945791751146317
1772044389678614500,1.738614501953125,-0.0004589911550283432,0.0013937930343672633,-0.00011827819980680943
1772044389688599600,1.748599609375,-0.0006648534908890724,-0.0003740132669918239,-0.0015979304444044828
1772044389698585900,1.7585859375,-0.00028655584901571274,-0.000542521825991571,0.002070888876914978
1772044389708571600,1.768571533203125,-0.0013507548719644547,0.0001461716601625085,-0.00029053608886897564
1772044389718556700,1.778556640625,-0.0007209256291389465,-0.00008722755592316389,-0.00010741106234490871
1772044389728542500,1.78854248046875,-0.002733210101723671,-0.0027344096451997757,0.0005333453882485628
1772044389738528800,1.79852880859375,-0.0003927266225218773,-0.0006595177692361176,-0.0011802180670201778
1772044389748514600,1.8085146484375,0.0014403266832232475,-0.0018835065420717,-0.00019378308206796646
1772044389758499600,1.81849951171875,-0.0020313989371061325,0.0013524119276553392,0.0007076002657413483
1772044389768485600,1.828485595703125,-0.002930748276412487,0.0006120530888438225,0.0006378255784511566
1772044389778471700,1.8384716796875,0.0008344464004039764,-0.0015389051986858249,0.00023773778229951859
1772044389788457700,1.848457763671875,-0.0011567994952201843,-0.0009034750983119011,0.00024412921629846096
1772044389798442500,1.8584423828125,0.002002594992518425,-0.0026845759712159634,-0.0019397700671106577
1772044389808428800,1.8684287109375,-0.002335428260266781,0.0002989634231198579,-0.0003647764679044485
1772044389818414600,1.87841455078125,-0.0013038404285907745,-0.0010185643332079053,-0.0008723030332475901
1772044389828400600,1.888400634765625,-0.003426380455493927,0.00208481727167964,-0.001569518819451332
1772044389838385700,1.8983857421875,-0.0018158890306949615,-0.0005318743642419577,0.00243770657107234
1772044389848371700,1.908371826171875,-0.0025852760300040245,-0.0018160507315769792,-0.000611612806096673
1772044389858357800,1.918357666015625,-0.001855732873082161,0.0002865125716198236,0.00046367174945771694
1772044389868342500,1.928342529296875,-0.0006610387936234474,0.0022836169227957726,0.0004860423505306244
1772044389878328600,1.93832861328125,-0.0026372643187642097,0.00040150689892470837,-0.0013977582566440105
1772044389888314600,1.948314697265625,-0.0006263116374611855,-0.002840359229594469,-0.0016965647228062153
1772044389898300700,1.95830078125,0.0007495228201150894,0.00029923205147497356,0.0012540280586108565
1772044389908285700,1.96828564453125,-0.0006568925455212593,0.0008947148453444242,-0.00032336218282580376
1772044389918271700,1.978271728515625,0.000957670621573925,0.0005078986869193614,0.0002766947727650404
1772044389928257800,1.9882578125,-0.002840530127286911,-0.000007156631909310818,-0.0013704702723771334
1772044389938243600,1.99824365234375,0.0009999275207519531,-0.0004933817544952035,0.000811522826552391
1772044389948228600,2.008228515625,0.0002555735409259796,0.00034578025224618614,0.00025332439690828323
1772044389958214700,2.018214599609375,0.001020318828523159,-0.0009532690746709704,0.0013964582467451692
1772044389968200700,2.02820068359375,0.0023231375962495804,-0.0014715201687067747,-0.002892828779295087
1772044389978185700,2.038185791015625,0.00120537169277668,0.0008561313152313232,-0.00014826282858848572
1772044389988171500,2.048171630859375,-0.0009951982647180557,0.0008739745244383812,0.002942069200798869
1772044389998157600,2.058157470703125,-0.0023856498301029205,-0.0006851539365015924,-0.0007632945198565722
1772044390008143400,2.068143310546875,0.0008064145222306252,0.0003114009741693735,-0.00006741052493453026
1772044390018128600,2.078128662109375,-0.000749523751437664,0.000001784064806997776,-0.00047812238335609436
1772044390028114400,2.088114501953125,0.0006337221711874008,-0.00256816647015512,0.0019610668532550335
1772044390038100500,2.0981005859375,-0.00043613091111183167,-0.00045328785199671984,-0.000650802394375205
1772044390048086500,2.10808642578125,-0.0003865957260131836,-0.001534265000373125,0.0006275149062275887
1772044390058071600,2.118071533203125,0.001897364854812622,-0.0012529928935691714,-0.0002806044649332762
1772044390068057600,2.1280576171875,-0.0017927112057805061,0.0008106906316243112,0.0019085138337686658
1772044390078043400,2.13804345703125,-0.001043085940182209,0.00002193683758378029,0.0008398033678531647
1772044390088028400,2.1480283203125,-0.0015940936282277107,0.0034235925413668156,-0.00007153046317398548
1772044390098014700,2.1580146484375,0.0012409156188368797,-0.0008047072333283722,0.0013907707761973143
1772044390108000500,2.16800048828125,-0.001422511413693428,-0.0036526916082948446,-0.0020465711131691933
1772044390117986600,2.177986572265625,-0.00000998564064502716,0.0013443643692880869,0.0010697019752115011
1772044390127971600,2.1879716796875,-0.0011607380583882332,-0.0007430212572216988,0.0012531938264146447
1772044390137957600,2.19795751953125,-0.0013103671371936798,0.0005140946013852954,-0.001353834755718708
1772044390147943400,2.207943359375,0.0017538666725158691,-0.0016031183768063784,0.0002933305222541094
1772044390157929500,2.217929443359375,0.0008525624871253967,0.0005857085925526917,0.0009748917073011398
1772044390167914800,2.227914794921875,0.002371096983551979,0.00027411876362748444,-0.0015018479898571968
1772044390177900500,2.237900634765625,0.0013675577938556671,0.0002412672620266676,-0.0024651954881846905
1772044390187886600,2.247886474609375,-0.0005344720557332039,0.0014130581403151155,-0.000023609260097146034
1772044390197871400,2.257871337890625,0.0005393801257014275,0.0012550238752737641,0.0024402812123298645
1772044390207857700,2.267857666015625,-0.000006834045052528381,0.0003271785390097648,-0.0001195492222905159
1772044390217843500,2.277843505859375,0.001378062181174755,-0.0005447689909487963,-0.0016638906672596931
1772044390227829500,2.28782958984375,0.0003130640834569931,-0.000621201703324914,0.0004613117780536413
1772044390237814500,2.297814453125,-0.0004734303802251816,0.0011865347623825073,0.0005070560146123171
1772044390247800600,2.307800537109375,0.00016093440353870392,-0.0009333414491266012,-0.00027245120145380497
1772044390257786600,2.31778662109375,-0.0005790982395410538,0.0015964051708579063,0.0010522899683564901
1772044390267772400,2.3277724609375,-0.0018512904644012451,-0.0018044514581561089,0.0011327174725010991
1772044390277757700,2.3377578125,0.0012454800307750702,0.0006917989230714738,-0.001368200872093439
1772044390287743500,2.347743408203125,-0.001175600104033947,-0.00017719052266329527,0.00013515353202819824
1772044390297729500,2.3577294921875,-0.00040901172906160355,-0.0022915496956557035,0.0002862210385501385
1772044390307715600,2.367715576171875,0.0002125697210431099,-0.00005396176129579544,-0.00024001975543797016
1772044390317700600,2.37770068359375,0.00012947991490364075,-0.000775409338530153,0.0006371354684233665
1772044390327686700,2.387686767578125,0.0007561212405562401,0.0023761754855513573,-0.000783128198236227
1772044390337672400,2.39767236328125,-0.0015061749145388603,-0.0023203284945338964,-0.002506838645786047
1772044390347657500,2.407657470703125,0.00019425339996814728,0.0002735904126893729,0.0007600609678775072
1772044390357643500,2.4176435546875,-0.0006607603281736374,-0.000816787127405405,0.0020394460298120975
1772044390367629600,2.427629638671875,0.000055363401770591736,0.0021912534721195698,-0.0009201248176395893
1772044390377615400,2.437615478515625,0.00043712276965379715,0.002157667651772499,0.002086866181343794
1772044390387600400,2.447600341796875,-0.001013234257698059,0.0012039896100759506,0.000706816092133522
1772044390397586700,2.457586669921875,0.00158720463514328,-0.0007291355868801475,0.0017387924017384648
1772044390407572500,2.467572509765625,0.001654050312936306,-0.0012652300065383315,0.0009475674014538527
1772044390417557500,2.4775576171875,0.0030422257259488106,-0.0008244670461863279,-0.0004168215673416853
1772044390427543600,2.48754345703125,0.0006818659603595734,-0.0003134063445031643,-0.0009361379779875278
1772044390437529600,2.497529541015625,-0.0015713097527623177,-0.0009597873431630433,-0.00016844249330461025
1772044390447515400,2.507515380859375,0.00048252008855342865,-0.001337157329544425,-0.0000589864794164896
1772044390457500400,2.51750048828125,0.0014894381165504456,-0.002497129375115037,-0.00021188752725720406
1772044390467486700,2.52748681640625,0.0006763748824596405,-0.001119476044550538,-0.0001455747988075018
1772044390477472500,2.537472412109375,0.001453016884624958,0.004080879036337137,-0.0015590470284223557
1772044390487458600,2.54745849609375,-0.0011496907100081444,0.002057409379631281,0.00022873282432556152
1772044390497443300,2.557443359375,0.0004916517063975334,-0.0017453311011195183,0.0004485917743295431
1772044390507429600,2.5674296875,0.0015092464163899422,0.0016597865615040064,-0.0013730102218687534
1772044390517415400,2.57741552734375,0.0023107510060071945,-0.0007894969312474132,-0.0000020524021238088608
1772044390527400400,2.587400390625,-0.00025919917970895767,0.0017165376339107752,0.0006794503424316645
1772044390537386800,2.59738671875,0.0008347416296601295,-0.0007367858197540045,0.000044206855818629265
1772044390547372500,2.60737255859375,-0.0010308027267456055,0.001820647856220603,-0.0020975072402507067
1772044390557358600,2.617358642578125,-0.0013361210003495216,-0.001413168152794242,-0.0023458534851670265
1772044390567343400,2.62734326171875,-0.0006069475784897804,0.001287277089431882,-0.00023236870765686035
1772044390577329700,2.63732958984375,-0.0013126842677593231,0.0021961117163300514,-0.0010601694229990244
1772044390587315500,2.6473154296875,0.002083112485706806,0.0013489602133631706,0.0008658287115395069
1772044390597301500,2.657301513671875,-0.0006439471617341042,-0.0005536168464459479,0.002141429577022791
1772044390607286500,2.66728662109375,0.002216820605099201,-0.000705683312844485,-0.0005768588744103909
1772044390617272600,2.6772724609375,0.00017568841576576233,-0.0012102860491722822,-0.0012863213196396828
1772044390627258600,2.687258544921875,0.0012345612049102783,0.0009900176664814353,0.00002768239937722683
1772044390637243400,2.697243408203125,-0.0010326318442821503,0.002232118509709835,-0.002537389053031802
1772044390647229400,2.7072294921875,0.000527980737388134,-0.0007636713562533259,0.0009873046074062586
1772044390657215500,2.717215576171875,0.0003155423328280449,-0.002572900615632534,-0.0027353791519999504
1772044390667201500,2.727201416015625,-0.0012125801295042038,-0.00037126534152776003,0.0013576330384239554
1772044390677186600,2.7371865234375,0.001423405483365059,0.0005381646333262324,-0.0005052541382610798
1772044390687172600,2.747172607421875,-0.00005571451038122177,-0.0007023357320576906,0.0009949044324457645
1772044390697158700,2.75715869140625,-0.00004033651202917099,0.0000018826685845851898,-0.00016801292076706886
1772044390707144400,2.76714453125,0.00009575113654136658,0.0019571755547076464,0.0013284172164276242
1772044390717129500,2.77712939453125,-0.0007056035101413727,0.0008356261532753706,0.0001438097096979618
1772044390727115500,2.787115478515625,0.0016515599563717842,-0.0013455026783049107,0.0006250429432839155
1772044390737101600,2.7971015625,-0.00045862607657909393,-0.0000988985993899405,-0.002110992092639208
1772044390747086600,2.807086669921875,-0.001320691779255867,0.0011666355421766639,0.0010091676376760006
1772044390757072400,2.817072265625,0.0012710867449641228,0.0017265846254304051,-0.0014416684862226248
1772044390767058700,2.82705859375,0.0007901201024651527,0.001642695046029985,-0.0006147569511085749
1772044390777044500,2.83704443359375,-0.00007652584463357925,0.0011518180835992098,0.0013641964178532362
1772044390787029500,2.847029541015625,0.00184574443846941,0.0015523575711995363,0.00031997100450098515
1772044390797015600,2.857015625,0.0008806120604276657,0.00041032119770534337,-0.001145911868661642
1772044390807001600,2.867001708984375,0.002018580213189125,0.0007213784265331924,0.0010061883367598057
1772044390816987400,2.8769873046875,0.00033829454332590103,0.0012003864394500852,0.001388353994116187
1772044390826972400,2.886972412109375,0.0030318154022097588,0.0012704276014119387,-0.001418618019670248
1772044390836958700,2.896958740234375,0.000685596838593483,0.0019242959097027779,-0.000568523770198226
1772044390846944500,2.906944580078125,-0.0006569018587470055,0.0010433222632855177,0.0007034018635749817
1772044390856929500,2.916929443359375,0.000284695066511631,-0.0003733736230060458,0.00025653233751654625
1772044390866915600,2.92691552734375,-0.00017017312347888947,-0.0011131997453048825,0.0010964933317154646
1772044390876901600,2.936901611328125,0.000022922642529010773,-0.0008022304973565042,0.0013896898599341512
1772044390886887400,2.946887451171875,0.0008604861795902252,-0.0005087501485832036,-0.0012127510271966457
1772044390896872400,2.95687255859375,0.0033968212082982063,0.0016295514069497585,-0.0005413249600678682
1772044390906858500,2.9668583984375,-0.0016184430569410324,-0.0007973873289301991,0.0012906634947285056
1772044390916844500,2.976844482421875,0.0012620864436030388,-0.0003496390418149531,-0.0021774997003376484
1772044390926829600,2.98682958984375,0.00025487877428531647,-0.0011653653346002102,0.0011631697416305542
1772044390936815600,2.996815673828125,0.0008204327896237373,0.0001235921517945826,0.00134421163238585
1772044390946801400,3.006801513671875,-0.00006320420652627945,0.00010441738413646817,-0.00053544738329947
1772044390956787700,3.01678759765625,-0.00014559738337993622,0.0005972294602543116,-0.0007152694743126631
1772044390966772500,3.0267724609375,-0.000008177943527698517,-0.0018502157181501389,-0.0011027592699974775
1772044390976758500,3.036758544921875,-0.00031656213104724884,-0.0025486245285719633,0.00030347402207553387
1772044390986744000,3.046744140625,-0.0008444013074040413,0.0007720710127614439,0.0004419581964612007
1772044390996730000,3.056730224609375,0.00042353104799985886,0.0007298775017261505,-0.0005158449057489634
1772044391006715100,3.066715087890625,-0.00029845163226127625,0.0006971206166781485,-0.0016120020300149918
1772044391016701200,3.076701171875,0.0007648905739188194,-0.0005461793625727296,-0.0009613595902919769
1772044391026687200,3.086687255859375,0.0006578313186764717,0.0020980732515454292,-0.000539248576387763
1772044391036672000,3.096672119140625,0.000018843449652194977,0.0018026097677648067,0.0011965391458943486
1772044391046658300,3.106658203125,-0.0005207126960158348,0.0004657029057852924,0.0011973381042480469
1772044391056644000,3.11664404296875,0.0011594071984291077,0.0015848914626985788,-0.0012561858166009188
1772044391066630100,3.126630126953125,0.0009042760357260704,-0.00017812108853831887,0.0011867318535223603
1772044391076615200,3.136615234375,-0.00003855675458908081,0.0001200955593958497,-0.001693500205874443
1772044391086601200,3.146601318359375,0.00036837346851825714,0.0028594229370355606,-0.0009845667518675327
1772044391096587300,3.156587158203125,0.0003805132582783699,-0.0003096983418799937,0.0014333461876958609
1772044391106572000,3.166572021484375,0.0012250011786818504,-0.000027669593691825867,-0.001758185913786292
1772044391116558000,3.17655810546875,0.0013206321746110916,-0.0006240142392925918,-0.00011510960757732391
1772044391126544100,3.186544189453125,0.00042687542736530304,0.00010755611583590508,-0.0014879691880196333
1772044391136530200,3.1965302734375,-0.00018469709903001785,-0.0011874404735863209,-0.0016772015951573849
1772044391146515200,3.20651513671875,0.0007636547088623047,0.001171321258880198,-0.00014907983131706715
1772044391156501000,3.2165009765625,-0.000812324695289135,0.0019256968516856432,-0.0014299177564680576
1772044391166487300,3.2264873046875,-0.0012623993679881096,0.0015094447880983353,0.0010436263401061296
1772044391176473000,3.23647314453125,0.002180008217692375,-0.0010499815689399838,0.0011014774208888412
1772044391186458000,3.2464580078125,-0.00008980371057987213,-0.000949314096942544,-0.0005060066469013691
1772044391196444200,3.256444091796875,-0.0004989439621567726,-0.0015107227955013514,-0.0008100725244730711
1772044391206430200,3.26643017578125,-0.002342917025089264,-0.0009056527051143348,-0.00008542626164853573
1772044391216415200,3.276415283203125,-0.0006138598546385765,-0.0013300051214173436,-0.0014850832521915436
1772044391226401000,3.286401123046875,-0.000761132687330246,0.0012002643197774887,-0.0005364655517041683
1772044391236387300,3.29638720703125,-0.00025428179651498795,-0.004706334322690964,-0.001533763250336051
1772044391246373000,3.306373046875,-0.00031127315014600754,0.0003235780750401318,-0.0003422652371227741
1772044391256358100,3.316358154296875,-0.0030953893437981606,0.000288008974166587,-0.0011479048989713192
1772044391266344200,3.32634423828125,0.0006415583193302155,-0.0021218855399638414,0.0004262896254658699
1772044391276330200,3.336330322265625,-0.00003445986658334732,-0.001581861055456102,0.001651659025810659
1772044391286316000,3.34631591796875,-0.0002624262124300003,-0.0021664248779416084,0.00020343204960227013
1772044391296301000,3.356301025390625,0.0006897523999214172,-0.0013017307501286268,0.0007603070698678493
1772044391306287000,3.366287109375,-0.0022732801735401154,0.0006474367692135274,-0.0011659571900963783
1772044391316273200,3.376273193359375,-0.0009696101769804955,0.0032714037224650383,-0.0011702834162861109
1772044391326258200,3.386258056640625,-0.0016399277374148369,-0.0006359861581586301,-0.0023633798118680716
1772044391336244200,3.396244140625,-0.0002743219956755638,-0.0017235616687685251,0.00004347064532339573
1772044391346230300,3.406230224609375,0.0004761563614010811,-0.0002452409244142473,-0.0007938272319734097
1772044391356216300,3.41621630859375,0.0017056502401828766,-0.0020405491814017296,-0.00036622118204832077
1772044391366201000,3.426201171875,0.0019767601042985916,-0.001728692906908691,-0.0026022111997008324
1772044391376187100,3.436187255859375,-0.0012083472684025764,0.0002743315708357841,-0.0006399687845259905
1772044391386173200,3.446173095703125,0.00019966531544923782,0.0011630284134298563,0.000392804853618145
1772044391396158200,3.456158203125,-0.0008475575596094131,-0.00086144485976547,-0.0007017692551016808
1772044391406144300,3.466144287109375,-0.001682458445429802,0.0013484461233019829,-0.0008972452487796545
1772044391416130000,3.476130126953125,0.0010499963536858559,0.0007057792390696704,-0.0005994646344333887
1772044391426116400,3.486116455078125,0.0006726263090968132,-0.0014359347987920046,-0.0005808223504573107
1772044391436101000,3.49610107421875,-0.0015277592465281487,-0.0017147061880677938,-0.0004416918382048607
1772044391446087200,3.506087158203125,0.00003525055944919586,-0.001807384192943573,-0.0012326505966484547
1772044391456073000,3.516072998046875,-0.0012923413887619972,-0.00044574920320883393,-0.000021881423890590668
1772044391466059300,3.526059326171875,-0.002451615408062935,0.0005390877486206591,-0.0004527810961008072
1772044391476044300,3.536044189453125,-0.002512809820473194,-0.0005991623038426042,0.0002158761490136385
1772044391486030000,3.546030029296875,0.0005301181226968765,0.001281828386709094,-0.000558837316930294
1772044391496016400,3.556016357421875,-0.0004717577248811722,0.0020864754915237427,-0.002586289308965206
1772044391506001200,3.566001220703125,0.00010428484529256821,0.0016811423702165484,0.00009950855746865273
1772044391515987200,3.5759873046875,0.002143467776477337,-0.0013922532089054585,0.0016629943856969476
1772044391525973000,3.585972900390625,-0.002109067514538765,-0.0022226269356906414,-0.0006326504517346621
1772044391535959300,3.595959228515625,0.0011449940502643585,-0.00013333099195733666,-0.0010799099691212177
1772044391545944300,3.6059443359375,-0.0017818193882703781,0.0011583021841943264,-0.0019014952704310417
1772044391555930000,3.61593017578125,-0.0035956762731075287,-0.0005811099545098841,-0.0010250357445329428
1772044391565916200,3.625916259765625,0.0005162442103028297,0.0005017313524149358,0.003633365733548999
1772044391575901200,3.635901123046875,0.0006677033379673958,0.001808623317629099,0.0002361317165195942
1772044391585887200,3.64588720703125,-0.0005480293184518814,0.0016962378285825253,-0.0009921181481331587
1772044391595873000,3.655873046875,0.00003539863973855972,-0.0015465072356164455,0.00027421186678111553
1772044391605859300,3.665859375,-0.0004120124503970146,0.0006037291022948921,-0.00019157514907419682
1772044391615844400,3.67584423828125,-0.001175716519355774,0.0001268669730052352,0.001089834375306964
1772044391625830100,3.685830078125,-0.00003508478403091431,-0.001477421261370182,-0.0006934183184057474
1772044391635816200,3.695816162109375,0.0023424318060278893,-0.001363073941320181,-0.0003573726862668991
1772044391645801000,3.705801025390625,0.0011237692087888718,0.0018396434606984258,-0.0007603091653436422
1772044391655787300,3.715787353515625,0.00035652145743370056,0.000562647357583046,0.001773810014128685
1772044391665773000,3.72577294921875,-0.0005819769576191902,-0.0005470918258652091,-0.0005876149516552687
1772044391675759000,3.735759033203125,0.0005922559648752213,0.00035832752473652363,-0.00016082217916846275
1772044391685744000,3.745744140625,-0.0012719566002488136,-0.0012896365951746702,-0.0007456524763256311
1772044391695730200,3.755730224609375,-0.0006405441090464592,0.001951209269464016,0.001095150364562869
1772044391705716200,3.76571630859375,0.00001992005854845047,-0.0007130170706659555,-0.0005315085873007774
1772044391715702000,3.775701904296875,-0.00003919936716556549,0.001938147353939712,-0.0010759609285742044
1772044391725687300,3.785687255859375,-0.0010304274037480354,0.00017673263209871948,-0.001686889911070466
1772044391735673000,3.795673095703125,-0.0002376055344939232,0.0035009635612368584,-0.0022720606066286564
1772044391745659100,3.8056591796875,0.002289467491209507,-0.0007281361031346023,-0.0003742920234799385
1772044391755644200,3.81564404296875,-0.002367207780480385,0.00031571160070598125,-0.0015501969028264284
1772044391765630200,3.825630126953125,0.0022994494065642357,0.0020840505603700876,0.00006287987343966961
1772044391775616300,3.8356162109375,0.00004583969712257385,-0.0001244985032826662,-0.0014526292216032743
1772044391785602000,3.84560205078125,-0.001035137102007866,0.00026219250867143273,-0.0015447742771357298
1772044391795587000,3.855587158203125,-0.00004403013736009598,-0.0026993858627974987,0.0006825998425483704
1772044391805573000,3.865572998046875,0.00016422942280769348,-0.0005046749720349908,-0.00009024934843182564
1772044391815559200,3.87555908203125,0.0012888265773653984,0.0016246531158685684,0.0015761054819449782
1772044391825544200,3.885544189453125,3.8929283618927e-7,-0.00020174263045191765,-0.00048677902668714523
1772044391835530200,3.8955302734375,-0.0003011878579854965,0.003211804199963808,0.0013158698566257954
1772044391845516300,3.905516357421875,0.0010652802884578705,0.0031002177856862545,0.0014905731659382582
1772044391855502000,3.915502197265625,-0.0015899203717708588,0.0017981575801968575,-0.0016031567938625813
1772044391865487000,3.925487060546875,-0.00013530254364013672,-0.0007819128804840147,-0.0028186235576868057
1772044391875473200,3.93547314453125,0.0010896697640419006,0.0010136095806956291,0.0008778446353971958
1772044391885459200,3.945459228515625,0.0008148318156599998,-0.0006511323153972626,-0.0022535002790391445
1772044391895445000,3.955445068359375,0.001255890354514122,0.0009177891770377755,-0.0001111945603042841
1772044391905430000,3.965429931640625,0.0016654841601848602,0.0006815668311901391,-0.0011679369490593672
1772044391915416300,3.975416259765625,-0.0015621669590473175,-0.00044206419261172414,-0.000760568305850029
1772044391925402000,3.985402099609375,-0.0004702713340520859,-0.0003959915484301746,-0.001467370893806219
1772044391935387100,3.99538720703125,0.0015284456312656403,0.00003317551454529166,0.0001339227892458439
1772044391945373200,4.005373291015625,0.00024160649627447128,-0.00045285141095519066,0.00016614701598882675
1772044391955359200,4.015359130859375,0.0018971646204590797,0.0007477831677533686,-0.00008775829337537289
1772044391965345000,4.025344970703125,0.0011464199051260948,-0.001896203146316111,-0.0010496920440346003
1772044391975330000,4.035330078125,0.0005180677399039268,0.002389664528891444,0.0017269978998228908
1772044391985316600,4.045316650390625,-0.0012111226096749306,-0.00033181975595653057,-0.0019303211010992527
1772044391995302400,4.055302490234375,-0.0014289375394582748,0.0007142027607187629,-0.001293742097914219
1772044392005287700,4.06528759765625,0.0005702981725335121,0.001797576667740941,0.00003490876406431198
1772044392015273500,4.0752734375,-0.000512261874973774,0.0021394575014710426,0.0010143187828361988
1772044392025259500,4.085259521484375,0.0011319741606712341,-0.001293090870603919,0.0007045932579785585
1772044392035245300,4.095245361328125,0.001715121790766716,-0.00028840271988883615,-0.0005067232996225357
1772044392045230600,4.105230712890625,-0.00014030281454324722,-0.0018823046702891588,0.000653083436191082
1772044392055216600,4.115216552734375,-0.0017349440604448318,0.0009523630142211914,-0.001839315751567483
1772044392065202400,4.125202392578125,0.0001391218975186348,-0.0014202471356838942,-0.0012137393932789564
1772044392075187500,4.1351875,0.0014586616307497025,-0.0007676832028664649,-0.000884620938450098
1772044392085173500,4.145173583984375,-0.0008257981389760971,-0.0007077621412463486,-0.001172508578747511
1772044392095159600,4.15515966796875,-0.0006682677194476128,0.0005251076072454453,0.002635473618283868
1772044392105145300,4.165145263671875,0.00018527545034885406,-0.0006890275399200618,-0.0005411449819803238
1772044392115130400,4.17513037109375,0.0006558280438184738,-0.003020681906491518,0.0009099880699068308
1772044392125116700,4.18511669921875,0.0016726227477192879,-0.0008643204346299171,0.0018005491001531482
1772044392135102500,4.1951025390625,0.0005682855844497681,0.0005097612738609314,-0.00024437811225652695
1772044392145088500,4.205088623046875,-0.00010283105075359344,0.0028951545245945454,-0.002103264443576336
1772044392155073500,4.215073486328125,0.00185435451567173,-0.0028803544119000435,0.0009684863034635782
1772044392165059600,4.2250595703125,0.002046634443104267,0.001309064100496471,0.0007580965757369995
1772044392175045400,4.23504541015625,-0.0007129041478037834,-0.00014531321357935667,0.0011876672506332397
1772044392185030400,4.245030517578125,0.0007108217105269432,0.003691236488521099,-0.0009370027109980583
1772044392195016700,4.2550166015625,0.00007712375372648239,-0.0004267067415639758,0.0005888296291232109
1772044392205002500,4.26500244140625,0.002078489400446415,0.0019893129356205463,-0.0003563263453543186
1772044392214988500,4.274988525390625,-0.0006617056205868721,0.00024743477115407586,0.0005880093667656183
1772044392224973600,4.2849736328125,-0.0008140383288264275,0.002663987223058939,-0.0003696633502840996
1772044392234959600,4.294959716796875,-0.00045833364129066467,0.0005021292017772794,-0.002751558553427458
1772044392244945400,4.3049453125,0.00010678917169570923,0.0005055913352407515,-0.0002247511874884367
1772044392254930400,4.314930419921875,0.0008646231144666672,-0.0012427540495991707,0.0018382107373327017
1772044392264916500,4.32491650390625,0.0019195005297660828,-0.0016550114378333092,0.0003769344184547663
1772044392274902500,4.334902587890625,0.0008577015250921249,-0.0005394637119024992,0.0008141288999468088
1772044392284888600,4.344888671875,0.00017167069017887115,-0.0005594374379143119,0.0008234498091042042
1772044392294873600,4.35487353515625,0.0016486616805195808,-0.0006559733883477747,0.0019713412038981915
1772044392304859600,4.364859619140625,0.001965045928955078,-0.0005893944180570543,0.0012336457148194313
1772044392314845400,4.374845458984375,-0.0019048452377319336,0.0015179372858256102,-0.001724821049720049
1772044392324830500,4.38483056640625,0.0010256972163915634,-0.00028369115898385644,0.0012778928503394127
1772044392334816500,4.39481640625,0.0010033110156655312,-0.001478714868426323,-0.00038341106846928596
1772044392344802600,4.404802490234375,-0.0011684969067573547,0.0012957663275301456,0.0007620144169777632
1772044392354788600,4.41478857421875,-0.000853419303894043,-0.00013933732407167554,0.000006203074008226395
1772044392364773600,4.424773681640625,0.0020193327218294144,0.0015813310164958239,-0.002284914255142212
1772044392374759400,4.434759521484375,0.0014957943931221962,-0.0034724464640021324,-0.0007878588512539864
1772044392384745500,4.444745361328125,0.0004513021558523178,-0.0007261948194354773,0.00028805830515921116
1772044392394731500,4.4547314453125,-0.0001942189410328865,-0.0015591065166518092,-0.0016790833324193954
1772044392404716500,4.464716552734375,-0.0027684299275279045,-0.0005721390480175614,-0.0017083780840039253
1772044392414702600,4.47470263671875,0.0016901753842830658,-0.0004978570505045354,-0.0007725097239017487
1772044392424688600,4.484688720703125,0.0022001704201102257,0.00043025455670431256,-0.0005948767066001892
1772044392434673700,4.494673583984375,-0.0005574198439717293,0.0009675301844254136,-0.001293829409405589
1772044392444659500,4.504659423828125,0.0018996121361851692,-0.0008932204800657928,-0.001353750703856349
1772044392454645800,4.514645751953125,0.00011279899626970291,-0.0008955204975791276,0.0015903007006272674
1772044392464631600,4.524631591796875,0.0008704680949449539,0.0015306191053241491,-4.05358150601387e-7
1772044392474616600,4.534616455078125,-0.0006150426343083382,-0.00111113500315696,0.00015346496365964413
1772044392484602400,4.544602294921875,0.0015580961480736732,0.0021957121789455414,-0.0004076629411429167
1772044392494588700,4.554588623046875,0.0021742628887295723,-0.0006553092389367521,0.0007541750092059374
1772044392504573700,4.56457373046875,0.002212345600128174,-0.00024518242571502924,0.0004388566594570875
1772044392514559500,4.5745595703125,0.0009197685867547989,-0.0005768831470049918,-0.0001692725345492363
1772044392524545500,4.584545654296875,-0.00040115974843502045,0.0011264747008681297,0.0007758834399282932
1772044392534531600,4.594531494140625,0.000509350560605526,0.003929330967366695,0.001464851200580597
1772044392544516600,4.6045166015625,0.0006113499402999878,0.0005396596388891339,-0.000027850503101944923
1772044392554502400,4.61450244140625,0.00010622944682836533,-0.004160231910645962,0.00035178614780306816
1772044392564488700,4.62448876953125,-0.0001619504764676094,0.0008869909215718508,-0.00032092840410768986
1772044392574473700,4.6344736328125,0.0005080299451947212,9.51054971665144e-7,0.00004163431003689766
1772044392584459500,4.64445947265625,-0.000620085746049881,-0.00017321965424343944,-0.0006254874169826508
1772044392594445600,4.654445556640625,0.00042064953595399857,-0.00030890112975612283,0.0012465869076550007
1772044392604431600,4.664431640625,-0.00020386185497045517,-0.0003797412500716746,0.002337151439860463
1772044392614416600,4.674416748046875,-0.0003109443932771683,0.002265886403620243,-0.00046617421321570873
1772044392624402400,4.68440234375,0.0005250219255685806,-0.00044973893091082573,0.0011266625951975584
1772044392634388500,4.694388427734375,-0.0007474599406123161,0.0029047667048871517,0.0015798326348885894
1772044392644373800,4.704373779296875,-0.00028966274112463,-0.0012010288191959262,-0.00008437666110694408
1772044392654359600,4.714359619140625,0.0006628269329667091,0.0012365560978651047,0.0006213448941707611
1772044392664345600,4.724345703125,0.0005336636677384377,-0.0011613541282713413,0.0011076380033046007
1772044392674331400,4.734331298828125,-0.0016105249524116516,0.0010400782339274883,-0.0005738858599215746
1772044392684316700,4.744316650390625,-0.0018989453092217445,-0.000008141971193253994,-0.0003840024583041668
1772044392694302500,4.754302490234375,0.0016240114346146584,0.00022306546452455223,0.0009291775058954954
1772044392704288500,4.76428857421875,0.0006173374131321907,-0.0013945386745035648,0.0008990839123725891
1772044392714273500,4.7742734375,-0.00013486947864294052,-0.0004641011473722756,0.0002048080787062645
1772044392724259600,4.784259521484375,-0.00014845188707113266,0.00006480258889496326,0.0010588839650154114
1772044392734245600,4.79424560546875,-0.0014875475317239761,0.003260089084506035,-0.0006866524927318096
1772044392744231400,4.8042314453125,-0.0003242790699005127,0.0007250260096043348,0.000487535260617733
1772044392754216400,4.814216552734375,0.00002596992999315262,-0.001473599812015891,-0.0004316649865359068
1772044392764202500,4.824202392578125,-0.0015836451202630997,-0.00015799811808392406,-0.0012141016777604818
1772044392774188500,4.8341884765625,0.0014621056616306305,-0.0005624780314974487,-0.0019561976660043
1772044392784173600,4.844173583984375,-0.0016756299883127213,-0.0029502680990844965,0.00069258245639503
1772044392794159600,4.85415966796875,0.00033854320645332336,0.0005437424406409264,-0.000319118145853281
1772044392804145700,4.864145751953125,-0.0008380413055419922,0.00044600441469810903,-0.0003809034824371338
1772044392814131500,4.87413134765625,0.0008051022887229919,0.0010028749238699675,0.0018833904759958386
1772044392824116500,4.884116455078125,-0.0015488658100366592,-0.00195323396474123,-0.00045300088822841644
1772044392834102500,4.8941025390625,-0.0005217939615249634,0.000917973811738193,-0.0002066013403236866
1772044392844088600,4.904088623046875,-0.0021425941959023476,-0.00016113900346681476,-0.0011826499830931425
1772044392854074400,4.914074462890625,0.001001136377453804,-0.000047021894715726376,-0.0010570480953902006
1772044392864059400,4.924059326171875,-0.00008623208850622177,0.002029977273195982,0.0010335335973650217
1772044392874045700,4.934045654296875,0.001027209684252739,-0.0040151323191821575,0.00046521774493157864
1772044392884031500,4.944031494140625,-0.003215738572180271,0.0016486122040078044,0.0015477925771847367
1772044392894016500,4.9540166015625,-0.0026185931637883186,0.00007544126128777862,0.0004884365480393171
1772044392904002300,4.964002197265625,-0.0026476215571165085,0.0000424180761910975,0.000019720057025551796
1772044392913988600,4.973988525390625,0.0017008138820528984,0.0010793772526085377,0.0003127062227576971
1772044392923974400,4.983974365234375,0.0002832133322954178,-0.0013691330095753074,0.00014226394705474377
1772044392933959400,4.99395947265625,-0.0021968260407447815,0.0029591890051960945,0.0014264099299907684
1772044392943945700,5.00394580078125,-0.0008242325857281685,-0.0018550072563812137,-0.0009054536931216717
1772044392953931500,5.013931640625,-0.0018206993117928505,0.0018538839649409056,-0.00020103948190808296
1772044392963916500,5.02391650390625,-0.0021235011518001556,0.0016866375226527452,0.0001443724613636732
1772044392973902300,5.03390234375,-0.0019098380580544472,-0.00007176632061600685,0.0011579592246562243
1772044392983888600,5.043888671875,-0.0003937007859349251,-0.0010970833245664835,-0.0013456782326102257
1772044392993874400,5.05387451171875,-0.000008258037269115448,0.0014434277545660734,0.0002927833702415228
1772044393003859200,5.063859130859375,-0.002131597138941288,-0.0014988326001912355,-0.0029847691766917706
1772044393013845200,5.07384521484375,-0.0000056782737374305725,-0.00011648936197161674,0.0002942802384495735
1772044393023831300,5.083831298828125,-0.002058975398540497,0.0005570240318775177,0.0009068073704838753
1772044393033816300,5.09381640625,-0.002328721806406975,-0.0002983430167660117,-0.0007356409914791584
1772044393043802400,5.10380224609375,-0.000410446897149086,0.00009580483310855925,0.001880648429505527
1772044393053788200,5.1137880859375,-0.0010121390223503113,-0.00046807032776996493,-0.00043282913975417614
1772044393063774500,5.1237744140625,-0.0025780778378248215,0.0033519677817821503,-0.0005244417116045952
1772044393073759200,5.13375927734375,-0.0017830803990364075,-0.0008802691008895636,-0.00035722204484045506
1772044393083745300,5.143745361328125,0.0005120318382978439,-0.00076894904486835,-0.000131652457639575
1772044393093731300,5.1537314453125,-0.000940362922847271,-0.0006414354429580271,-0.0017499916721135378
1772044393103716400,5.16371630859375,-0.0012559471651911736,0.001932509709149599,0.0011238253209739923
1772044393113702400,5.173702392578125,-0.001619541086256504,-0.0003736245562322438,-0.0007135712075978518
1772044393123688200,5.183688232421875,-0.0017063599079847336,-0.0008609830983914435,-0.0009623102378100157
1772044393133674500,5.193674560546875,-0.0002877693623304367,-0.002623104490339756,-0.000018789200112223625
1772044393143659300,5.2036591796875,-0.0014302656054496765,-0.00018844270380213857,-0.0003333084750920534
1772044393153645300,5.213645263671875,-0.0015590488910675049,-0.0005048267194069922,0.0006958139128983021
1772044393163631000,5.223631103515625,-0.0008535776287317276,-0.0011868623550981283,-0.000039484817534685135
1772044393173616000,5.2336162109375,-0.000041396357119083405,0.0029182322323322296,0.0011299471370875835
1772044393183602400,5.2436025390625,0.000376187264919281,0.0009869079804047942,-0.0010988523717969656
1772044393193588200,5.253588134765625,-0.0028936676681041718,0.003234005765989423,-0.0029450790025293827
1772044393203574300,5.26357421875,-0.0015146825462579727,0.0008483460987918079,0.0006906683556735516
1772044393213559300,5.273559326171875,-0.002204691991209984,-0.0010207472369074821,0.0006260054651647806
1772044393223545300,5.28354541015625,-0.001964208669960499,0.0004117672215215862,-0.0016595195047557354
1772044393233531100,5.29353125,-0.0011531421914696693,-0.0008226895006373525,-0.0008752818685024977
1772044393243516200,5.30351611328125,-0.0006530005484819412,0.00016241383855231106,-0.0011559792328625917
1772044393253502500,5.31350244140625,-0.001701226457953453,0.001262773759663105,-0.003114051418378949
1772044393263487200,5.3234873046875,-0.0017102817073464394,0.0003176179016008973,-0.001762230647727847
1772044393273473300,5.333473388671875,0.00013908743858337402,-0.0002414453192614019,0.0003655294422060251
1772044393283459000,5.343458984375,-0.0009584017097949982,0.0013995945919305086,0.001068337820470333
1772044393293445400,5.3534453125,0.0009007351472973824,0.000030597730074077845,-0.001148958457633853
1772044393303430400,5.363430419921875,0.0015894286334514618,-0.0012370669282972813,-0.00017717084847390652
1772044393313416200,5.373416259765625,-0.000008505769073963165,0.0016165494453161955,0.0008213724941015244
1772044393323402500,5.383402587890625,0.00028257817029953003,0.0007504894747398794,0.0029886530246585608
1772044393333387300,5.39338720703125,-0.0006770910695195198,0.0005686685326509178,0.0004307881463319063
1772044393343373300,5.403373291015625,-0.0016360953450202942,-0.0004960632068105042,0.00021959957666695118
1772044393353359000,5.413359130859375,0.001507285051047802,0.0021098684519529343,-0.00018067867495119572
1772044393363345400,5.423345458984375,-0.000604068860411644,-0.0013415883295238018,0.0004265222232788801
1772044393373330400,5.433330322265625,0.0007950197905302048,-0.0005344105302356184,-0.00014779786579310894
1772044393383316200,5.443316162109375,-0.00020712800323963165,-0.0008726319647394121,0.0005131987854838371
1772044393393302300,5.45330224609375,-0.001605580560863018,-0.0013984928373247385,0.0008130883798003197
1772044393403287300,5.463287353515625,-0.00027799420058727264,0.0004292347002774477,0.0005797955673187971
1772044393413273300,5.4732734375,-0.00046593230217695236,-0.002196535002440214,-0.003349016886204481
1772044393423259100,5.483259033203125,-0.0004912326112389565,0.0034989016130566597,-0.002075759693980217
1772044393433245200,5.4932451171875,0.0021149059757590294,-0.0020814400631934404,-0.0014847456477582455
1772044393443230500,5.50323046875,-0.0007860753685235977,0.0006522946059703827,-0.0005196160636842251
1772044393453216300,5.51321630859375,0.00241087656468153,0.0022812860552221537,-0.002091534435749054
1772044393463202300,5.523202392578125,0.0017339009791612625,-0.0010585843119770288,-0.0006883149035274982
1772044393473187300,5.533187255859375,0.0009905360639095306,-0.001881997101008892,-0.003240789519622922
1772044393483173400,5.54317333984375,0.001124759204685688,0.0008701136102899909,0.0008460974786430597
1772044393493159200,5.5531591796875,-0.0031619174405932426,-0.0006618865299969912,-0.0011154566891491413
1772044393503145200,5.563145263671875,0.0024336501955986023,-0.001158566097728908,0.0005657970905303955
1772044393513130200,5.573130126953125,-0.0022878311574459076,-0.0005394263425841928,-0.0031473746057599783
1772044393523116300,5.5831162109375,-0.000149579718708992,0.0008912237826734781,-0.0012296324130147696
1772044393533102300,5.593102294921875,0.0005449149757623672,-0.003124289447441697,0.0005312575958669186
1772044393543087400,5.60308740234375,0.0008541084825992584,0.002552238292992115,0.0005381819792091846
1772044393553073400,5.613073486328125,0.000689399428665638,-0.00008300627814605832,-0.0012771622277796268
1772044393563059500,5.6230595703125,0.001699003390967846,-0.001778108300641179,0.000641112681478262
1772044393573045200,5.633045166015625,0.0011655203998088837,-0.0009237908525392413,-0.001116137020289898
1772044393583030300,5.6430302734375,-0.0006102751940488815,-0.0005842377431690693,-0.00027750758454203606
1772044393593016300,5.653016357421875,-0.0015115812420845032,-0.0008886843570508063,0.0008725866209715605
1772044393603002400,5.66300244140625,-0.0012047849595546722,-0.000810387369710952,0.0014523568097501993
1772044393612987400,5.6729873046875,-0.00191531702876091,0.002271961886435747,-0.0019110767170786858
1772044393622973200,5.68297314453125,0.0006655529141426086,-0.00013393769040703773,-0.000367242144420743
1772044393632959500,5.69295947265625,0.0017613004893064499,0.0020202610176056623,0.0007270111236721277
1772044393642945300,5.7029453125,-0.0007431367412209511,-0.0005936315865255892,0.0002313968725502491
1772044393652930300,5.712930419921875,0.0016638049855828285,0.002178038004785776,-0.000955317635089159
1772044393662916000,5.722916015625,0.00045765936374664307,-0.000033450894989073277,-0.0012631788849830627
1772044393672902400,5.73290234375,0.0024198703467845917,0.00012448406778275967,0.00018409988842904568
1772044393682888200,5.74288818359375,0.0011306339874863625,0.0005314151057973504,0.0009425680618733168
1772044393692873200,5.752873291015625,0.0037409691140055656,-0.0009422122966498137,0.00042935810051858425
1772044393702859500,5.762859619140625,-0.0014655105769634247,0.0009771279292181134,-0.0006609398405998945
1772044393712845300,5.77284521484375,0.0016155019402503967,-0.0014245217898860574,0.0008896298240870237
1772044393722830300,5.782830322265625,-0.0002582985907793045,-0.0005478091770783067,-0.00041744974441826344
1772044393732816100,5.792816162109375,0.002057359553873539,-0.0003633539890870452,-0.00034803198650479317
1772044393742802400,5.802802490234375,0.0007164580747485161,0.0019831571262329817,-0.0019390045199543238
1772044393752788200,5.812788330078125,-0.0006270091980695724,-0.0021937829442322254,-0.0009338224772363901
1772044393762773200,5.822773193359375,0.003134971484541893,-0.0015386452432721853,0.0007010921835899353
1772044393772759300,5.83275927734375,-0.002244110219180584,-0.0000725289573892951,-0.0002143457531929016
1772044393782745300,5.842745361328125,-0.00019773747771978378,-0.0004291262594051659,-0.0005070273764431477
1772044393792731400,5.8527314453125,0.0024105850607156754,0.00021099980222061276,-0.001484158681705594
1772044393802716200,5.862716064453125,0.0007905848324298859,-0.001296615693718195,-0.00007641175761818886
1772044393812702200,5.8727021484375,-0.003690820187330246,0.1248803436756134,0.056417565792798996
1772044393822688300,5.882688232421875,0.0037921294569969177,-0.013313477858901024,-0.0050617726519703865
1772044393832673300,5.89267333984375,-0.0026772329583764076,0.04227689653635025,0.01983392797410488
1772044393842659300,5.902659423828125,-0.00038851238787174225,-0.049156080931425095,-0.0181488748639822
1772044393852645400,5.912645263671875,-0.00029917526990175247,0.0055175041779875755,0.0020432337187230587
1772044393862630400,5.92263037109375,-0.00008985120803117752,0.007527125999331474,0.002032048534601927
1772044393872616200,5.9326162109375,0.00154864601790905,-0.014773973263800144,-0.007091551553457975
1772044393882602200,5.942602294921875,0.0029657138511538506,-0.08380044251680374,-0.036767687648534775
1772044393892588300,5.95258837890625,0.0030572814866900444,-0.10467927902936935,-0.04473791643977165
1772044393902573300,5.9625732421875,-0.0016061803326010704,0.06494809687137604,0.026692591607570648
1772044393912559400,5.972559326171875,0.0009704986587166786,-0.0038152316119521856,-0.0027885595336556435
1772044393922545200,5.982545166015625,0.0017779683694243431,-0.03288203477859497,-0.015945641323924065
