time,seconds_elapsed,z,y,x
1772043771633744600,0.10174462890625,0.015526070433855056,-0.0025446429815143344,-0.007777593465242535
1772043771643731000,0.11173095703125,0.021218729117512703,0.008718217049911619,0.009579473521746694
1772043771653717800,0.1217177734375,0.016124620848894117,-0.00661938160713762,-0.0011252503034193068
1772043771663703800,0.131703857421875,0.016561843222379684,0.015111827077157795,0.017050859715184195
1772043771673689900,0.14168994140625,0.022404724031686783,0.001968450528755784,-0.006493225343665108
1772043771683675600,0.151675537109375,0.01836801586151123,0.00249762550201267,0.0029806963112205265
1772043771693662000,0.161661865234375,0.015229717835783958,-0.0043140638068318365,-0.0015127243841998278
1772043771703647700,0.171647705078125,0.02226093164682388,0.004233399786055088,0.0009800422796048223
1772043771713633800,0.1816337890625,0.020468203011155126,0.019471739319711922,0.010204574016993866
1772043771723619800,0.191619873046875,0.029604280146956444,-0.009403532432951032,-0.010735036765038966
1772043771733606000,0.20160595703125,0.022720950374007225,0.009579071662947535,0.016008912914199754
1772043771743592700,0.2115927734375,0.019579729738831517,-0.007349595577828586,-0.01452810890506953
1772043771753579000,0.2215791015625,0.021978023052215575,0.008006963508017361,0.007804965529358014
1772043771763564800,0.231564697265625,0.023486089527606963,0.003754493695311248,-0.007644742599502205
1772043771773550800,0.24155078125,0.012873510098457336,0.0007230901101604103,0.0032733682480175046
1772043771783537000,0.251536865234375,0.015723638832569123,0.004359035459719598,-0.003100358901824802
1772043771793523000,0.26152294921875,0.026804420295357703,-0.003578077682480216,0.003536978487111628
1772043771803508700,0.2715087890625,0.015604396367073059,0.011422653703019023,0.013343648360855876
1772043771813495000,0.2814951171875,0.019070611172914503,0.004902677349746227,-0.012273142185667529
1772043771823480800,0.291480712890625,0.034302667096257206,0.0038101694053038954,-0.001326663760188967
1772043771833467600,0.301467529296875,0.023849077621102333,-0.007380282977037131,-0.002027998696267605
1772043771843454000,0.311453857421875,0.022383681243658065,0.009007920711487531,0.0037624395397491753
1772043771853439700,0.321439697265625,0.016706804651021957,0.0020932459522038697,0.009392773576918988
1772043771863425800,0.33142578125,0.023768413600325583,-0.0005764481810852885,0.005376560205500573
1772043771873411800,0.341411865234375,0.019400866040587425,-0.006996398225985467,0.00719985750936903
1772043771883398000,0.35139794921875,0.02674129193127155,0.003537672606855631,0.007736092411074787
1772043771893383700,0.3613837890625,0.02300736609995365,-0.003451601758599281,-0.0027429420325905084
1772043771903370000,0.371369873046875,0.0294318461894989,-0.0027122546333819626,0.0027560389761812983
1772043771913356800,0.381356689453125,0.025948095726966856,0.02125321590900421,0.005540573394484817
1772043771923342600,0.391342529296875,0.02239478715956211,-0.0049938627645373344,-0.002300842554587871
1772043771933329000,0.401328857421875,0.02076046395599842,-0.00479286029972136,0.0011024722160305827
1772043771943314700,0.411314697265625,0.02196224096119404,0.009974829514883458,0.0071200428719632326
1772043771953300700,0.42130078125,0.019548165556788445,0.007866824384965002,0.004479109042277559
1772043771963286800,0.431286865234375,0.022103110736608506,-0.01516903715711087,-0.003641881900001317
1772043771973272800,0.44127294921875,0.026274843463301657,0.0005334492895752191,0.004104530975688248
1772043771983258600,0.451258544921875,0.03464110527038574,-0.002230681661516428,-0.0042140557647682726
1772043771993246000,0.461245849609375,0.03364683353602886,0.0035423487819731233,-0.008211272174771874
1772043772003231700,0.471231689453125,0.021209376767277716,-0.0036425212208181616,0.004058262414857745
1772043772013218300,0.48121826171875,0.02703238383233547,0.009162417153455317,-0.005511027639592066
1772043772023204600,0.49120458984375,0.02764846990406513,0.001856149260699749,-0.005018522281758487
1772043772033190400,0.5011904296875,0.016288871499896048,-0.008842099157907068,0.002973079260345548
1772043772043176400,0.511176513671875,0.02193593747615814,-0.012338891765102743,-0.005985020093200728
1772043772053162200,0.521162353515625,0.02836392469704151,0.0009807181330397726,-0.0009482680350076407
1772043772063148500,0.5311484375,0.03269172476828098,0.021067264882847665,0.00025506160645745696
1772043772073135400,0.54113525390625,0.039270518636703486,0.01108125638682395,0.0016125771626364438
1772043772083121700,0.55112158203125,0.022347440886497497,-0.0039080768218263985,-0.0008625716460868715
1772043772093107500,0.561107421875,0.01936930185854435,0.003859744168072939,0.004146433888655155
1772043772103093500,0.571093505859375,0.02924304561913013,0.007030044767260551,-0.00024230258958414196
1772043772113079600,0.58107958984375,0.026537293791770934,0.0035061449574306605,-0.0034907555920537557
1772043772123065300,0.5910654296875,0.027858897784352302,0.0018105930859223006,0.007037296491954476
1772043772133051400,0.601051513671875,0.026061492973566053,-0.005061849966831505,0.008342360341688618
1772043772143037400,0.611037353515625,0.035220950984954834,0.009485548160597681,0.00754310885593295
1772043772153024500,0.6210244140625,0.02266483627259731,-0.0019830635759979487,-0.0007957260881084949
1772043772163010300,0.63101025390625,0.026997897040843963,0.007851115359179674,0.0022064696688670663
1772043772172996600,0.64099658203125,0.023562661895155906,0.008801474886573851,0.004549571329448372
1772043772182982400,0.650982421875,0.022079145339131353,0.0037912089765071866,0.003411351946601644
1772043772192968400,0.660968505859375,0.022537410500645637,0.0006089256785809993,0.0024540786212310195
1772043772202954500,0.67095458984375,0.023147066831588743,0.004333097300864756,0.005114831396238878
1772043772212940500,0.6809404296875,0.021199439895153046,0.007085355151072144,-0.005807371104508638
1772043772222926300,0.69092626953125,0.01747135928273201,0.005685534823127091,-0.0008883362750057131
1772043772232913400,0.700913330078125,0.032283728489279746,-0.005655030087009072,0.0018355996630154549
1772043772242899500,0.7108994140625,0.03828033855557442,-0.00017630641497671604,-0.0028264829970430583
1772043772252885200,0.72088525390625,0.021239771905541417,0.009252798850648105,-0.0019437270794529467
1772043772262871600,0.73087158203125,0.02812777785360813,0.010092026153765619,0.0023772687916643917
1772043772272857300,0.740857421875,0.029914076748490333,-0.0008207052657380699,0.0031815343792550264
1772043772282843400,0.750843505859375,0.02962006223797798,-0.007047763087041675,0.0028652897706255313
1772043772292829400,0.760829345703125,0.019298574709892272,-0.0029565482506528494,0.004680677762674167
1772043772302815500,0.7708154296875,0.018853169029951093,0.008358663022518158,-0.00011028284090571104
1772043772312802600,0.780802490234375,0.02662204946577549,0.006040778001584112,-0.004311415192019194
1772043772322788400,0.790788330078125,0.02392798807621002,-0.00142835230268538,-0.0004403733117971569
1772043772332774400,0.8007744140625,0.016159692162275315,-0.0075409534314647315,0.0006734514153096824
1772043772342760400,0.810760498046875,0.023804069435596466,-0.0052366950770840045,0.0017427428809460251
1772043772352746500,0.82074658203125,0.02514846978187561,0.0015416764840483666,0.0028165004591457544
1772043772362732300,0.830732177734375,0.02992985883951187,-0.003419270391575992,0.0067069320264272385
1772043772372718300,0.84071826171875,0.024241876330971718,-0.006219020645320415,0.0034891664231661706
1772043772382704400,0.850704345703125,0.014821137034893034,-0.002283434762060642,-0.006444390366412699
1772043772392691500,0.86069140625,0.02903495582640171,-0.004083652584441006,0.0037460911931470036
1772043772402677500,0.870677490234375,0.03472235381305218,0.010258980218507349,0.004793609218392521
1772043772412663600,0.88066357421875,0.031125790625810622,0.00511069407723844,0.003537215949129313
1772043772422649300,0.8906494140625,0.029476854375004767,0.000058525254204869265,0.009158572095399721
1772043772432635600,0.9006357421875,0.028574937099218368,0.0016322408443316817,0.0015471929093822836
1772043772442621400,0.910621337890625,0.021834230667352676,0.0019393705647438764,-0.0026903350625187158
1772043772452607500,0.920607421875,0.018386136040091514,0.010026340506412088,0.0026574374399147924
1772043772462593500,0.930593505859375,0.016139818418025968,-0.0008687456585466861,-0.0031774244597181675
1772043772472580400,0.940580322265625,0.025566987454891204,0.0003247384423390031,-0.002296403841488063
1772043772482566400,0.95056640625,0.020937574088573455,0.006455423217080533,0.0002912836973089725
1772043772492552400,0.960552490234375,0.021388824987411497,0.0034357466023415325,-0.0018615560881793498
1772043772502538500,0.97053857421875,0.025280571728944778,0.016760288403928278,0.009932698273053393
1772043772512524300,0.980524169921875,0.014653963774442672,0.0001835398733615875,-0.0009010313597973436
1772043772522510600,0.990510498046875,0.05204758262336254,-0.03618018793854862,0.006192415766185149
1772043772532496400,1.000496337890625,0.022126491612195966,0.035821912552788854,0.004866062533250079
1772043772542482400,1.010482421875,0.014202712875604628,0.000692073917388916,0.00020535897952504454
1772043772552469500,1.020469482421875,0.027228783187270164,-0.04118479129280895,0.010000210551312193
1772043772562455300,1.030455322265625,0.029629414588212964,0.03220017839167267,0.003235045531624928
1772043772572441300,1.04044140625,0.02229191130697727,0.008493249187618493,0.011510268054390326
1772043772582427400,1.050427490234375,0.024982465565204618,-0.015523549683205783,-0.00219937320780009
1772043772592413400,1.060413330078125,0.01719546495079994,0.016024083083868025,-0.002315181607194245
1772043772602399200,1.070399169921875,0.022429858472943303,0.0012799933405593037,-0.003138170161563903
1772043772612385500,1.080385498046875,0.029761516535282133,-0.010080262650735675,-0.004966764695057645
1772043772622371300,1.090371337890625,0.0275146143913269,0.015103570705465972,0.007755272035580128
1772043772632358700,1.100358642578125,0.02570610366463661,0.0012571969868615269,-0.0016242858667392282
1772043772642344400,1.110344482421875,0.02585340318083763,0.0014473492641001939,0.002912928304634988
1772043772652330500,1.12033056640625,0.025402152281999588,-0.0036046734284609556,-0.0076899608475621785
1772043772662316500,1.130316650390625,0.024041969844698904,-0.0030893443174660204,-0.006721572473132983
1772043772672302600,1.140302490234375,0.02658931623995304,0.004171550063602626,0.0008027677502483129
1772043772682288400,1.150288330078125,0.026740707409381864,0.008007730692997574,-0.0016583890657406299
1772043772692274400,1.1602744140625,0.03376315339207649,0.006272869724407792,-0.0008476024058181792
1772043772702260500,1.170260498046875,0.02988017447888851,0.006891074687987566,0.0010466138429474085
1772043772712247300,1.180247314453125,0.02210018812716007,0.0043063919570297,0.009668832305632532
1772043772722233600,1.190233642578125,0.03182487880587578,-0.005237535327300429,-0.0006417045701760798
1772043772732219400,1.200219482421875,0.036900866895914076,-0.003400090767070651,0.001303008889965713
1772043772742205400,1.210205322265625,0.0371960504502058,0.0041202582677826284,-0.0007372008339036255
1772043772752191500,1.22019140625,0.028369185394048688,0.012164375448413192,-0.002373085806891322
1772043772762177500,1.230177490234375,0.031955811709165574,-0.0025586715068668126,-0.0002810180316213518
1772043772772163300,1.240163330078125,0.023279168778657912,0.000389803035184741,0.001179190714051947
1772043772782149600,1.250149658203125,0.01924246060848236,0.00842679635528475,0.000916959581291303
1772043772792136400,1.260136474609375,0.025979659909009932,-0.0005856178682297468,-0.0022588300437666473
1772043772802122200,1.270122314453125,0.031357845816016194,-0.00792209823615849,0.00038194852229207754
1772043772812108500,1.280108642578125,0.02641980489194393,0.002594948396645486,-0.003586900309752673
1772043772822094300,1.29009423828125,0.03645253860652446,0.006671111794374883,0.0020238796435762194
1772043772832080400,1.300080322265625,0.031820202630758285,0.005497428372502326,0.0029742026383522894
1772043772842066400,1.31006640625,0.02284428449273109,-0.003377440543845296,-0.006897659692401066
1772043772852052500,1.320052490234375,0.021495207971334456,-0.000034559856727719304,-0.0012802216694224626
1772043772862038300,1.330038330078125,0.024038462713360784,0.004309826023131609,-0.0008055624955333769
1772043772872025600,1.340025634765625,0.015661679512262345,0.000678228055126965,0.0018390611285809427
1772043772882011400,1.350011474609375,0.021944705304503438,-0.0026010858764871953,0.004337262019328773
1772043772891997400,1.35999755859375,0.03361643839776516,0.0023139394981786608,0.011676664996705948
1772043772901983500,1.3699833984375,0.022999182793498038,-0.00005523731857538223,-0.004205717194685712
1772043772911969500,1.379969482421875,0.035575171250104905,-0.010937135208398103,0.006524031473882496
1772043772921955300,1.389955322265625,0.03362286813855171,-0.0030480624590069052,0.0024437033576890825
1772043772931941600,1.399941650390625,0.030633623194694516,0.001508870192989707,-0.0007817797611467539
1772043772941927400,1.409927490234375,0.03407178094983101,-0.004563179729692638,-0.0007484346139710396
1772043772951914500,1.41991455078125,0.031079028874635695,0.001565166957490146,-0.0015885569662321358
1772043772961900500,1.429900634765625,0.03048398559093475,0.013169205109402537,-0.0008208331299014389
1772043772971886300,1.43988623046875,0.03826104933321476,-0.00783960758447647,0.005327971823420375
1772043772981872600,1.44987255859375,0.027192542830109596,0.004644939729012549,0.0019252689741551875
1772043772991858400,1.4598583984375,0.025840543699264525,-0.0007984934339299798,0.0031396405994426457
1772043773001844500,1.469844482421875,0.03436287285089493,-0.006192242236249148,0.001822192192170769
1772043773011829500,1.47982958984375,0.03451426402032375,0.007972549781762064,-0.005087824658304453
1772043773021815600,1.489815673828125,0.024339491486549375,-0.0029779563648626205,-0.004806943624000996
1772043773031802400,1.49980224609375,0.03272270442843437,-0.0023168621076270937,-0.003081371073564514
1772043773041788400,1.509788330078125,0.02973287496268749,0.008710252939164638,0.0012343823668546975
1772043773051774500,1.5197744140625,0.020306290447711945,0.00107325525470078,-0.001061044227099046
1772043773061760500,1.529760498046875,0.027040567138791084,-0.011786701242439449,-0.003835860968986526
1772043773071746300,1.539746337890625,0.02598725869357586,0.009731960669718683,-0.0006106153121683746
1772043773081732600,1.549732666015625,0.02687982361912727,0.009825082313269376,-0.0003022252164315432
1772043773091718400,1.559718505859375,0.020744097343087194,0.00039217765536159275,0.00577072888854891
1772043773101704400,1.569704345703125,0.02702536956965923,-0.0018063187696039675,-0.0007248254095204174
1772043773111691500,1.57969140625,0.019544073903560638,0.02225307713393122,-0.0031432025297079232
1772043773121677300,1.58967724609375,0.024188684839010238,0.005384761778265238,-0.004134980912879109
1772043773131663600,1.59966357421875,0.02418283962011337,-0.005313888499140739,-0.006799770542187616
1772043773141649400,1.6096494140625,0.031209377256035804,-0.00402366602551192,0.005614214019430801
1772043773151635500,1.619635498046875,0.01895195322930813,0.02253372070621699,0.005560812464915216
1772043773161621200,1.629621337890625,0.025237901630997657,0.003509104099497199,-0.0028192130060400813
1772043773171607600,1.639607666015625,0.0277805718511343,-0.027419739182107147,0.005544281455222517
1772043773181593300,1.64959326171875,0.03285948255062103,-0.011826777524501085,0.001113815593952313
1772043773191580400,1.659580322265625,0.02882394342422485,0.012297061917372048,0.0062173584111966185
1772043773201566500,1.66956640625,0.023887656065821647,-0.0019654548540711404,-0.005995989011786878
1772043773211552300,1.67955224609375,0.0237327577650547,-0.007119403551146388,0.006956650737486779
1772043773221538600,1.68953857421875,0.03390811482071876,0.0011077420461922884,-0.004974801871040836
1772043773231524400,1.6995244140625,0.030929975792765615,0.0005308920063078404,0.001675605062022805
1772043773241510400,1.709510498046875,0.020612579917907714,0.0059020271180197596,-0.0027007194592151788
1772043773251496400,1.719496337890625,0.0333224238872528,0.006982077439688146,0.003566926100803539
1772043773261482500,1.729482421875,0.037353286838531494,0.0014433306761085986,-0.0037885329622309653
1772043773271469300,1.73946923828125,0.03421440429091453,0.0018170228267088532,0.008526594334794208
1772043773281455600,1.74945556640625,0.02613572725355625,0.004015701914764941,0.0012977938587311654
1772043773291441400,1.75944140625,0.024486791002750394,0.006020027474500238,0.002926408840715885
1772043773301427500,1.769427490234375,0.022397125247120855,0.0032004034765064715,-0.001583204937679693
1772043773311413500,1.77941357421875,0.026733693146705626,-0.0031667569352313873,0.0010399649064522236
1772043773321399600,1.789399658203125,0.02284019283950329,0.0049354105755686755,0.007516787104588002
1772043773331385300,1.79938525390625,0.03256312995254993,0.006475479624420404,0.00029756730762310325
1772043773341371600,1.80937158203125,0.03285480637550354,0.002689458279684186,0.009302565409662202
1772043773351358500,1.8193583984375,0.028210779961943624,0.0002667977100238204,0.006804684179322794
1772043773361344300,1.82934423828125,0.022819734573364257,0.007833397039398551,0.0004242532940581441
1772043773371330600,1.83933056640625,0.03164543058574199,0.0065641442885622375,-0.0009114522891119122
1772043773381316400,1.84931640625,0.030450667843222617,0.002811915615573525,0.007615279043000191
1772043773391302400,1.859302490234375,0.0259592016428709,0.003016169483400881,0.0069419463586993515
1772043773401288400,1.869288330078125,0.02954991961121559,-0.00009874766673892736,-0.0013662103192880748
1772043773411274500,1.8792744140625,0.0341851781964302,-0.0027456454463303088,-0.0029431681792717423
1772043773421260300,1.88926025390625,0.028507132560014723,-0.00048117111306637524,0.005805644938303157
1772043773431247400,1.899247314453125,0.019530629900097844,0.0028150574207305907,0.0020100063818506895
1772043773441233400,1.9092333984375,0.028963059633970258,-0.008940627628937364,-0.0022893256467301395
1772043773451219500,1.919219482421875,0.023732173243165015,-0.0076864628493785855,-0.00240574596747756
1772043773461205500,1.92920556640625,0.028968904852867124,-0.007089702532626688,0.00750452127805911
1772043773471191300,1.93919140625,0.028068741142749785,0.007925495769642294,0.012863765022577717
1772043773481177300,1.94917724609375,0.022376082459092138,0.021809790345840154,-0.0010206208851654083
1772043773491163400,1.959163330078125,0.02103226663470268,-0.005341251430101692,0.002302842715429142
1772043773501149400,1.9691494140625,0.022384850287437436,-0.009920724707469344,0.0022244893827475607
1772043773511136500,1.979136474609375,0.01640343779027462,0.01380651663225144,0.00009292071415111422
1772043773521122600,1.98912255859375,0.020143208840489386,0.019942717832326887,0.008700790991075336
1772043773531108400,1.9991083984375,0.028069910186529157,-0.009736527246981859,-0.003671153660258278
1772043773541094700,2.0090947265625,0.027021277916431427,0.01753280714638531,-0.005848506832495331
1772043773551080400,2.01908056640625,0.0382417601108551,0.011143361837603151,0.005041062907129526
1772043773561066500,2.02906640625,0.02822539300918579,-0.02060249691531062,0.0029708233711775393
1772043773571052500,2.039052490234375,0.025530747097730636,0.011434161477722226,0.012869391045765951
1772043773581038600,2.04903857421875,0.02821311804950237,0.009120806501433253,0.00031184242814779277
1772043773591025400,2.059025390625,0.03106616939306259,-0.01049783047568053,-0.0008580872672144323
1772043773601011500,2.069011474609375,0.020299276185035704,-0.00955649450495839,0.008919785770308226
1772043773610997500,2.07899755859375,0.025831191349029538,0.006380312154255807,0.0020756920292042194
1772043773620983300,2.0889833984375,0.025087679505348202,-0.003738419343344867,-0.002657209111051634
1772043773630969600,2.098969482421875,0.0267436300188303,-0.005266724889166653,0.0019823420567903665
1772043773640955400,2.108955322265625,0.031070845568180083,0.004397833100147545,0.0035192053684033452
1772043773650941400,2.11894140625,0.03496493039727211,-0.0030081323074176904,0.00013929887283593417
1772043773660927500,2.128927490234375,0.0342202495098114,-0.011411182460933924,0.002757354150433093
1772043773670914300,2.138914306640625,0.0330219796359539,-0.00777520057875663,0.00489257608084008
1772043773680900400,2.148900390625,0.034215573334693904,0.005290142297372222,0.004957932934630662
1772043773690886400,2.158886474609375,0.03361351578831673,0.008910451686382293,-0.0011231679441872984
1772043773700872400,2.16887255859375,0.027473113337159155,0.044147038631886244,0.005604943867586553
1772043773710858200,2.178858154296875,0.020890812337398527,0.031542846994102,0.005930020236643031
1772043773720844500,2.188844482421875,0.029576223096251485,-0.01795567220095545,0.004307360071409493
1772043773730830300,2.198830322265625,0.02627951963841915,-0.009646803136914968,-0.00030068171331658957
1772043773740816400,2.20881640625,0.03121346890926361,0.003906725114956498,-0.00067866644654423
1772043773750803500,2.218803466796875,0.02626958276629448,-0.000634023587219417,0.002692024696106091
1772043773760789500,2.22878955078125,0.019094576570391653,-0.009171732971072197,-0.0008164492157287896
1772043773770775600,2.238775634765625,0.030465865412354468,-0.008998093437217176,-0.003505021579423919
1772043773780761600,2.24876171875,0.032115970706939695,0.0015463161265477537,-0.0011221541640348731
1772043773790747400,2.258747314453125,0.02104804872572422,0.006385974710062146,0.005792785456730052
1772043773800733400,2.2687333984375,0.02373626489639282,-0.0075519132168963546,-0.0003639288084115833
1772043773810719500,2.278719482421875,0.03960077350437641,0.005128777723200619,0.0016337112822104244
1772043773820705500,2.28870556640625,0.03826221837699413,0.005586750623770058,-0.0026288963320199397
1772043773830691300,2.29869140625,0.022701661151647567,-0.004607786056399345,-0.003880047170585021
1772043773840678400,2.308678466796875,0.025693244183063506,-0.0030962855149060486,-0.006077164489217102
1772043773850664400,2.31866455078125,0.024048399585485457,0.0037513518901541826,-0.0040578696892131115
1772043773860650500,2.328650390625,0.029434768798947332,0.010466229761019349,0.0010300737001001834
1772043773870636500,2.338636474609375,0.02330488774180412,0.008582534906268119,0.001921917106444016
1772043773880622300,2.348622314453125,0.022412907338142395,0.008304704345576465,0.004979213184677064
1772043773890608600,2.358608642578125,0.020619594180583952,0.0030317323787137865,0.0028774551324546337
1772043773900594400,2.368594482421875,0.023458616998791693,-0.00034373540375381707,-0.0024792221956420686
1772043773910580500,2.37858056640625,0.03243219704926014,0.0020017682764679194,-0.008223419270291923
1772043773920567600,2.388567626953125,0.031080782440304756,0.0017796134257689116,-0.0015785013630986212
1772043773930553300,2.39855322265625,0.02150514484345913,-0.0001745893819257617,0.005053995453938842
1772043773940539400,2.408539306640625,0.019856208592653274,-0.004182071457616985,0.007891346904868259
1772043773950525400,2.418525390625,0.031224574825167654,-0.0005232566891238093,0.005391794307250529
1772043773960511500,2.428511474609375,0.025537176838517188,0.008197225383110344,-0.000581663212319836
1772043773970497300,2.438497314453125,0.01805821925997734,0.00517462615892291,0.0007895338093396276
1772043773980483600,2.448483642578125,0.02838964366018772,-0.0022663009641692043,0.00475947861992754
1772043773990469400,2.458469482421875,0.03108838122487068,0.004216156390309334,0.0030210922536905854
1772043774000456400,2.46845654296875,0.03542962529957294,0.0029627587957307693,-0.0016578410764690487
1772043774010442500,2.4784423828125,0.02764671633839607,-0.0007511471608653665,0.0007507179026026279
1772043774020428800,2.4884287109375,0.036622049954533574,0.00321092487052083,-0.003529772428190335
1772043774030415000,2.4984150390625,0.0267436300188303,0.002366436870396137,0.0029947065702639517
1772043774040401000,2.50840087890625,0.027048165923357008,-0.0038936464376747608,0.005541413644701242
1772043774050387000,2.518386962890625,0.025700258445739744,-0.00298058671336621,0.001700136715080589
1772043774060373000,2.528373046875,0.029139585244655607,0.005917590013332664,-0.0017563878138083964
1772043774070359000,2.538359130859375,0.020012860459089277,0.003947897375561297,-0.0006973985464777797
1772043774080345900,2.548345947265625,0.029281624063849446,0.0015338585037738084,0.0037075310147367414
1772043774090332000,2.558331787109375,0.030472879675030706,-0.0018452625405043362,0.0042285500810015945
1772043774100318000,2.56831787109375,0.034515433064103124,-0.00009692103583365678,0.002022537069860846
1772043774110304000,2.578303955078125,0.03362403718233108,-0.00708674339056015,0.005858407172001898
1772043774120290000,2.5882900390625,0.0292401230096817,0.01396313196606934,0.002188577819149941
1772043774130275800,2.59827587890625,-0.008186813586950302,0.008162117537111043,-0.0003031385318841785
1772043774140262000,2.608261962890625,0.049263504862785336,0.0032514760766178367,0.0039889052393846216
1772043774150248000,2.618248046875,0.024865561187267304,0.005768354268372059,0.010744535245746374
1772043774160234000,2.62823388671875,0.023372692281007766,-0.0007311272861436009,0.004951156133972108
1772043774170221000,2.638220947265625,0.029503742381930348,0.002460873688198626,-0.0000028404110576957462
1772043774180207000,2.64820703125,0.03504208728671074,-0.0005765212463214993,0.007555785674415528
1772043774190193000,2.65819287109375,0.029653379985690113,0.004687427163869142,0.006236519769392907
1772043774200179200,2.66817919921875,0.02382745031118393,-0.0029577903596684336,0.006149435140984132
1772043774210165000,2.6781650390625,0.024281623819470403,0.007729534806124865,-0.0011281729128677397
1772043774220151000,2.688151123046875,0.020985504883527753,0.014098777577094733,0.00034810105161741376
1772043774230136800,2.69813671875,0.021882161462306975,0.0020321268821135163,0.00494934776937589
1772043774240123100,2.708123046875,0.024725860455632208,0.006994973453879356,-0.003233967819390818
1772043774250110000,2.71810986328125,0.028465631505846977,-0.00000383592490106821,0.0028558186893817036
1772043774260096000,2.728095947265625,0.03474924181997776,-0.0056795800063759085,0.001429366082837805
1772043774270082000,2.73808203125,0.020237901386618615,0.02164294587895274,0.006050340414373204
1772043774280067800,2.74806787109375,0.023381460109353065,-0.006657375529967248,-0.0023581713655497875
1772043774290054100,2.75805419921875,0.019340660285949707,-0.010091989621147513,-0.000692722371360287
1772043774300040000,2.7680400390625,0.032359716334939004,-0.0018931933354586362,-0.0007284786713309586
1772043774310026000,2.77802587890625,0.03804769884347915,0.002257423537969589,0.006663449077727273
1772043774320012000,2.788011962890625,0.02652911048531532,-0.0003463657522574067,0.005257801797194406
1772043774329998800,2.797998779296875,0.01965630210638046,0.0011222454955801366,0.004017291083652526
1772043774339985000,2.80798486328125,0.028633389288187025,0.010562785470671951,-0.00329281273400411
1772043774349971000,2.817970947265625,0.032819150540232656,0.00416840825844556,0.0008020096984226256
1772043774359957000,2.82795703125,0.02533142513334751,-0.00409421051107347,0.005505237219622358
1772043774369942800,2.83794287109375,0.025924130329489706,0.008312266597524284,0.0029637908421922474
1772043774379929000,2.84792919921875,0.03339899625480175,0.001261653966270387,-0.003477530784299597
1772043774389915000,2.857914794921875,0.0253232418268919,-0.0019544585360214113,-0.005944688082812353
1772043774399901000,2.86790087890625,0.020081834042072293,0.010271803167462349,0.004195150134898722
1772043774409888000,2.877887939453125,0.027415245670080184,-0.009928104296326637,-0.008926242910558357
1772043774419874000,2.8878740234375,0.037594109857082364,-0.0017654022373259067,0.004969057116843759
1772043774429859800,2.89785986328125,0.024433599510788915,0.007678389140777289,-0.0031432299291715023
1772043774439846100,2.90784619140625,0.025336101308465003,0.00010663871224969625,0.010340374891646206
1772043774449832000,2.91783203125,0.024589666855335233,0.008304010225832463,-0.003847852800879627
1772043774459818000,2.92781787109375,0.0169575645416975,0.003649754679203033,-0.001762461361568421
1772043774469804000,2.937803955078125,0.02982347585558891,0.004426474672742188,0.0010727894638199358
1772043774479790000,2.9477900390625,0.032523966985940934,0.001311192196421325,0.007195866320841014
1772043774489777200,2.957777099609375,0.027442718198895454,0.0014999197015538811,0.0019117336391471325
1772043774499763000,2.967762939453125,0.01995616183578968,-0.0020138605730608103,-0.0019682587325107305
1772043774509749000,2.9777490234375,0.018158172503113745,0.002360299390554428,0.005113050431106239
1772043774519735000,2.987735107421875,0.03386895185410976,0.01407514097318053,-0.007709871124429628
1772043774529721000,2.99772119140625,0.029829321074485778,0.011977182313241064,0.002564690255699679
1772043774539707000,3.007706787109375,0.029970190849900245,0.001208827800489962,0.005568027656991034
1772043774549693000,3.01769287109375,0.010219196197390555,0.011506642192043363,-0.0019696561051532626
1772043774559679000,3.027678955078125,0.022193711629509925,0.0053010290175676345,0.003697813338320702
1772043774569665000,3.0376650390625,0.013366846573352813,0.0001910655926913023,-0.0024957988711073993
1772043774579652000,3.047652099609375,0.018896423649787903,0.010497611279971897,-0.00040361236482858653
1772043774589638000,3.057637939453125,0.02742927419543266,0.0008422229778021574,-0.0030153109668754037
1772043774599624000,3.0676240234375,0.029985388419032095,-0.0007347440153360367,-0.005365454289596528
1772043774609610000,3.07760986328125,0.0380675725877285,0.006272467865608632,0.0002813011594116688
1772043774619596000,3.087595947265625,0.03088847473859787,0.010261647099629043,-0.001156522224517539
1772043774629581800,3.097581787109375,0.0187701669216156,-0.0018935586616396903,-0.0029615532193332907
1772043774639568100,3.107568115234375,0.018171616506576536,-0.0025097177986055613,0.00010959785431623458
1772043774649554000,3.117553955078125,0.03778115686178207,0.0004658639460802078,0.0008014708423055708
1772043774659541000,3.127541015625,0.02072773073017597,0.002477496029436588,-0.006465113494032994
1772043774669527000,3.137527099609375,0.02252279745340347,-0.0018386501366272569,-0.002772359923319891
1772043774679513000,3.14751318359375,0.020574585995078085,0.010191577538102865,0.005579727227939292
1772043774689499000,3.157498779296875,0.026711481314897537,0.005208199634961784,0.0015949958401732145
1772043774699485200,3.167485107421875,0.034655133795738216,-0.002417180676944554,0.004493913885764777
1772043774709471000,3.177470947265625,0.024029694885015485,0.002977700636535883,-0.0024474114184267815
1772043774719457000,3.18745703125,0.01969078889787197,-0.0010569982396438718,-0.003623661256721243
1772043774729443000,3.197443115234375,0.028818682727217673,0.002094341930747032,-0.007985089602926746
1772043774739429000,3.20742919921875,0.02912204958796501,-0.0006945216028019785,0.0030428656940814105
1772043774749416000,3.217416015625,0.029290391892194748,0.0044874476123601195,0.01101607306296937
1772043774759402000,3.227402099609375,0.008214286115765572,0.005296097114123404,-0.0015332191829569638
1772043774769388000,3.237387939453125,0.045480479192733764,0.006204334532842039,0.00174017646452412
1772043774779373800,3.247373779296875,0.027521044132113454,-0.003354205798730254,0.0069968092179391525
1772043774789360000,3.257360107421875,0.026779870375990868,-0.005435615182667971,0.0007449183494783937
1772043774799346000,3.267345947265625,0.04069616752564907,0.010279876876063644,-0.0033085400260984897
1772043774809332000,3.27733203125,0.031125206103920933,0.006143507723696529,-0.0006820548468735068
1772043774819318000,3.287318115234375,0.03037467999756336,-0.0009886091785505414,0.003918579949531704
1772043774829304800,3.297304931640625,0.02364040330648422,0.009478753093630075,0.002404659122088924
1772043774839291100,3.307291015625,0.022743162205815314,0.009446421726606785,-0.0024594489160925147
1772043774849277000,3.31727685546875,0.03112052992880344,0.005630735895968973,-0.00004813172435387969
1772043774859263000,3.327262939453125,0.031417467048764226,0.008517251117713748,-0.002753810486476868
1772043774869249000,3.3372490234375,0.023041268369555473,0.0011327668895944952,0.006586821911251172
1772043774879235000,3.347235107421875,0.029181670820713042,0.005666683992184699,0.0006223057499621063
1772043774889220900,3.357220947265625,0.034573300731182095,0.00465790880843997,-0.004318328989995643
1772043774899207000,3.36720703125,0.0338239436686039,0.0033331264780834314,0.004832799584465101
1772043774909194000,3.377194091796875,0.026204700836539266,0.0034161285864189265,-0.003630438057379797
1772043774919180000,3.387179931640625,0.03174655287265778,-0.005068608501181006,-0.00039433307982981205
1772043774929166000,3.397166015625,0.02471007836461067,0.0030482816547155378,0.004855468073999509
1772043774939152100,3.407152099609375,0.0269569805085659,-0.005388195844367146,0.0062730797869618975
1772043774949138000,3.417137939453125,0.02711070976555347,-0.0005284077882766723,-0.007774040668131783
1772043774959124000,3.4271240234375,0.027263269978761672,0.004970080030150711,0.0055873625451233234
1772043774969110000,3.437110107421875,0.03101122433543205,-0.0008416749885305761,0.0036306298536248503
1772043774979095800,3.447095703125,0.02593231363594532,-0.007727196718566119,-0.0016956614693626761
1772043774989083100,3.457083251953125,0.02728548181056976,-0.002140153833851218,-0.0034288602038286624
1772043774999069000,3.46706884765625,0.026985622081160544,-0.0007787658201530575,0.006150558518990874
1772043775009055000,3.477054931640625,0.023849077621102333,-0.002232106433622539,0.0013550496044568716
1772043775019041300,3.487041259765625,0.027890461966395375,-0.003438559613935649,-0.005462338792812079
1772043775029027600,3.497027587890625,0.03342822234928608,0.0022261150842532514,-0.001998781734937802
1772043775039013400,3.507013427734375,0.02173544646799564,0.006824731453508138,-0.0025734398177359253
1772043775048999400,3.51699951171875,0.018584873482584953,0.012223558289743959,0.006157106990786269
1772043775058985500,3.5269853515625,0.012618658554553986,0.008114625133574008,-0.004530967093678191
1772043775068971500,3.536971435546875,0.030417934617400166,0.0019805793579667805,0.0006250639626290649
1772043775078958300,3.546958251953125,0.03190846543610096,-0.008218304703757166,0.005501392161566764
1772043775088944400,3.5569443359375,0.021572364860773085,-0.009236505302973092,0.004274983038613573
1772043775098930400,3.566930419921875,0.03503682658970356,0.007414806301146745,-0.0031678529137745496
1772043775108916200,3.576916259765625,0.03699205231070518,-0.0032290085164830085,-0.0006626560266595334
1772043775118902500,3.586902587890625,0.028917466926574705,-0.002622165197134018,0.004284600250329822
1772043775128888300,3.596888427734375,0.03460778752267361,0.005680091463029384,0.003897016571694985
1772043775138874400,3.606874267578125,0.03985328696072101,0.00957147287838161,0.0029983506989199665
1772043775148860400,3.6168603515625,0.03701660223007202,-0.004914769646339118,0.0034604883179534226
1772043775158846500,3.626846435546875,0.03252455150783062,-0.0018979791084304451,-0.0034480398283340034
1772043775168833300,3.636833251953125,0.030734745481610298,-0.0012601561289280652,-0.002335968666896224
1772043775178819300,3.6468193359375,0.020565818166732787,-0.00392104590125382,-0.008181543756788597
1772043775188805400,3.656805419921875,0.025354221487045286,-0.0021362448437139392,0.0060600854902528225
1772043775198791200,3.666791259765625,0.024603695380687712,-0.007011705392971634,0.006523574816156178
1772043775208777500,3.676777587890625,0.035086510950326916,-0.005626753840595484,0.0038133386099245396
1772043775218763300,3.68676318359375,0.030450667843222617,-0.013466982479579746,-0.0008425152387470006
1772043775228749300,3.696749267578125,0.026859365352988242,-0.0030160964181646702,-0.004148790242522954
1772043775238735400,3.7067353515625,0.027009587478637694,0.0010171776859089733,-0.00009614471769891678
1772043775248722400,3.716722412109375,0.028066987577080725,-0.008433591422252357,0.004016889224853366
1772043775258708500,3.72670849609375,0.021631986093521117,-0.004356916567869484,0.0039970885458402335
1772043775268694500,3.736694580078125,0.025079496198892593,0.011286240907013415,0.0012640011869836597
1772043775278680300,3.746680419921875,0.026722002708911893,-0.0034675299800932405,0.000054123073723167175
1772043775288666400,3.756666259765625,0.024632336953282354,-0.0058176367701962585,0.0025340485222637653
1772043775298652400,3.76665234375,0.030617256581783294,-0.004035867919959127,-0.003764868958853185
1772043775308638200,3.77663818359375,0.028964813199639318,-0.0030494872311130163,0.006902874723635614
1772043775318624300,3.786624267578125,0.023129531174898146,-0.006664316727407276,0.0036739118729252366
1772043775328611300,3.796611328125,0.02417465631365776,-0.0018459931928664446,-0.0008832947737071662
1772043775338597400,3.806597412109375,0.02492050624489784,-0.004053074783086776,-0.0061004814327228814
1772043775348583400,3.81658349609375,0.02552665544450283,0.003908369082771241,-0.001459286297066137
1772043775358569500,3.826569580078125,0.0330003523260355,-0.0005763020506128669,0.005571836182428524
1772043775368555300,3.83655517578125,0.028511808735132215,-0.011516286803223192,0.00021176132084801792
1772043775378541600,3.84654150390625,0.03165302937030792,-0.0005591682527214288,-0.0050860162937082344
1772043775388527400,3.85652734375,0.029561025527119634,-0.005985577215626836,0.005425504780607298
1772043775398513400,3.866513427734375,0.02177344039082527,0.0032748569522053003,0.005385939955199137
1772043775408499500,3.87649951171875,0.03269289381206036,0.0058965106926858425,0.0028365386001765725
1772043775418486300,3.886486328125,0.025360066705942153,0.003057012950442731,0.001391006833827123
1772043775428472300,3.896472412109375,0.02326572477519512,0.0006477233190089464,-0.0019327946934849024
1772043775438458400,3.906458251953125,0.023863690668344498,0.0018641133714467286,-0.0009086849432904273
1772043775448444400,3.9164443359375,0.02505903793275356,-0.007366181386448442,0.004399111741781234
1772043775458430200,3.92643017578125,0.023709376889467237,0.00046407384779304265,-0.0043893849322106685
1772043775468416500,3.93641650390625,0.03088789021670818,0.0029317791355773803,-0.002750878743873909
1772043775478402300,3.94640234375,0.028641572594642638,-0.0009257730754092335,0.005638489944161847
1772043775488388400,3.956388427734375,0.03583119183778763,-0.0032867665857076642,-0.0011547777920030058
1772043775498375400,3.96637548828125,0.03837152397036552,0.005169255864061415,0.0015992336238734423
1772043775508361200,3.976361328125,0.025062545064091682,0.006198818107508122,0.00011674911431036889
1772043775518347300,3.98634716796875,0.02581365569233894,-0.0045945612486451865,0.0060447783232666545
1772043775528333300,3.996333251953125,0.035088849037885665,-0.007554762761108577,0.003432869658665731
1772043775538319400,4.0063193359375,0.02267886479794979,-0.0024669746354222294,0.0032687377386726437
1772043775548305200,4.01630517578125,0.024029694885015485,-0.0016665449727326631,0.0023507917766924947
1772043775558291500,4.02629150390625,0.024485037437081334,-0.008212276821769773,0.0006152001557406038
1772043775568277200,4.03627734375,0.024935119292140005,-0.003461173304542899,-0.0016844916213769464
1772043775578263300,4.04626318359375,0.02597790634334087,-0.0026437194418162105,0.005743347691278904
1772043775588250400,4.05625048828125,0.022541502153873443,-0.0003409954573959112,0.004536109059676528
1772043775598236400,4.066236328125,0.030177111598849296,0.005429843029007315,0.0010506780967116354
1772043775608222200,4.07622216796875,0.03002396686375141,0.002487250238470733,0.002159790116082877
1772043775618208500,4.08620849609375,0.030023382341861724,-0.004226641251705587,0.004820241496991366
1772043775628194300,4.0961943359375,0.020894319468736648,0.002963891306892037,0.00922353622354567
1772043775638180400,4.106180419921875,0.023740356549620627,0.009642857614159584,0.0014375402561388909
1772043775648166400,4.11616650390625,0.021645430096983907,0.005315203673392534,0.0025877514708787202
1772043775658152400,4.12615234375,0.02867722842991352,-0.0009429068733006716,0.004815583588182926
1772043775668139500,4.136139404296875,0.03077157036066055,-0.0012352408833801746,0.006616221535671502
1772043775678125300,4.146125244140625,0.018950199663639068,-0.0009400938617065549,0.0006463898784480989
1772043775688111400,4.156111328125,0.023887656065821647,-0.007071034364774823,0.003397305154940113
1772043775698097400,4.166097412109375,0.030464696368575093,-0.002011412887647748,-0.00214523186776787
1772043775708083500,4.17608349609375,0.029123218631744382,0.00014499796126037835,0.0012594985418021678
1772043775718069200,4.1860693359375,0.02013736362159252,-0.006727773885056376,0.0017796499583870172
1772043775728055600,4.1960556640625,0.026129882034659383,-0.00042713937088847156,0.007041196348937228
1772043775738041300,4.206041259765625,0.01924596773982048,-0.00474229915626347,-0.0020412965692579747
1772043775748027400,4.21602734375,0.026579963889718054,0.0022854440560564396,0.0033562059595715252
1772043775758014500,4.226014404296875,0.02568213826715946,-0.0013212021337822078,0.0004121335980016738
1772043775768000300,4.236000244140625,0.03661035951673984,-0.005612250391207635,0.0022935360309667883
1772043775777986300,4.245986328125,0.03197510093152523,0.0017922171790152788,-0.0004398527219891548
1772043775787972400,4.255972412109375,0.021201193460822103,0.0005830240523442625,-0.007292851288756355
1772043775797958400,4.26595849609375,0.025385201147198676,-0.0032115093924105164,0.00011169847985729574
1772043775807944200,4.275944091796875,0.02134732393324375,-0.004155110385455191,-0.003122479402087629
1772043775817930500,4.285930419921875,0.02104629516005516,-0.0017346052402630447,-0.0013185352526605128
1772043775827916300,4.295916259765625,0.024330723658204077,-0.004436375012248754,-0.0020489318864420057
1772043775837903400,4.3059033203125,0.029572715964913367,-0.001357077164761722,0.0020152305462397633
1772043775847889400,4.315889404296875,0.025084172374010085,0.0007318579385057092,0.0055297232069075105
1772043775857875500,4.32587548828125,0.033465631750226016,0.0016370996825397013,-0.0003303644655272364
1772043775867861200,4.335861328125,0.027184359523653983,-0.006515007917210459,0.0025218922935891894
1772043775877847600,4.34584765625,0.017908581656217573,-0.0044571986045688385,-0.0017888013792224228
1772043775887833300,4.355833251953125,0.026588147196173667,-0.0008480681966990232,-0.0007826565439812839
1772043775897819400,4.3658193359375,0.02390051554739475,-0.006645137102901935,0.0037651246871799227
1772043775907805400,4.375805419921875,0.022705752804875374,-0.006829772954806685,0.007318944711238146
1772043775917791500,4.38579150390625,0.0340676892966032,0.0026478841602802275,-0.0036670528738759456
1772043775927778300,4.3957783203125,0.02523731710910797,0.0016619053302332758,0.002763226768793538
1772043775937764400,4.405764404296875,0.025387539234757422,0.005670556449703872,-0.0007340224961284548
1772043775947750400,4.41575048828125,0.031521511945128436,-0.0040206338182091714,-0.0007816792964469641
1772043775957736200,4.425736083984375,0.02403378653824329,0.008056903596967459,0.0028140527737326917
1772043775967722500,4.435722412109375,0.02852291465103626,0.008953815904073417,0.0032340956835541874
1772043775977708300,4.445708251953125,0.020892565903067588,0.0014635697465389967,-0.0019070848634932188
1772043775987694300,4.4556943359375,0.029719430959224698,-0.006240246096439659,0.0017339841857552528
1772043775997680400,4.465680419921875,0.02867021416723728,-0.004695573937706649,0.003135631144605577
1772043776007666400,4.47566650390625,0.03286415872573852,-0.0016306334091350436,-0.006003432532725855
1772043776017653000,4.485653076171875,0.024334815311431883,0.004350413761846721,-0.000155729417828843
1772043776027639000,4.49563916015625,0.02313888352513313,0.0006071721129119396,0.0025892036424484104
1772043776037624800,4.505624755859375,0.030312136155366896,-0.00234714764803648,0.0038430396284442393
1772043776047611000,4.51561083984375,0.02836392469704151,-0.003643872927688062,-0.007068659744597971
1772043776057597000,4.525596923828125,0.02057867764830589,-0.00027505408171564337,0.0022211923139635473
1772043776067582700,4.535582763671875,0.02461421677470207,-0.0016897431852295993,0.0028351868933066725
1772043776077569000,4.545569091796875,0.02206803942322731,0.005400763064995408,0.0017018811475951225
1772043776087554800,4.555554931640625,0.026406945410370825,0.005835026296414435,-0.004005207920214161
1772043776097540900,4.565540771484375,0.02849894925355911,0.02144607159998268,-0.0027512623363640156
1772043776107528000,4.57552783203125,0.03059036857485771,0.0207670763598755,-0.0023539518481586127
1772043776117514000,4.585513916015625,0.02864800233542919,-0.01965575411710888,0.0006422342931386083
1772043776127500000,4.5955,0.02760579980611801,-0.039821503582969306,-0.0037695451339706774
1772043776137486000,4.605486083984375,0.020870938593149185,-0.010475910904817283,-0.004939292166242375
1772043776147472000,4.615471923828125,0.025957448077201843,0.013640256687253712,-0.0022668580865953117
1772043776157458000,4.6254580078125,0.03343406756818294,-0.01198788637034595,-0.008607815477997063
1772043776167444000,4.63544384765625,0.02445698038637638,-0.0049719066610559816,0.0005027801566757262
1772043776177430000,4.645429931640625,0.02924304561913013,0.024976583813689647,-0.009106723177153617
1772043776187415800,4.655415771484375,0.029093992537260055,0.006405154334567487,0.005999139950098469
1772043776197403000,4.66540283203125,0.02160918973982334,-0.036763394653983414,0.0041107871865388
1772043776207389000,4.675388916015625,0.026239187628030774,-0.012499598752148448,-0.0077527238854672754
1772043776217375000,4.685375,0.0323684841632843,0.021732012401893732,0.00043769729752093554
1772043776227361000,4.695361083984375,0.025783845075964925,0.004834799745306372,-0.007973225635197013
1772043776237346800,4.705346923828125,0.02338730532824993,-0.011745090590417385,0.000621702961763367
1772043776247333000,4.7153330078125,0.016057985353469847,-0.01871529492922127,-0.003827294070040807
1772043776257319000,4.72531884765625,0.028327099817991256,0.010323168028518556,-0.0013275953419506548
1772043776267305000,4.735304931640625,0.02878185784816742,-0.0017595935510471461,-0.005677753375470638
1772043776277292000,4.7452919921875,0.03431903370916843,-0.018980156410485505,0.007644185477076098
1772043776287277800,4.75527783203125,0.02877133645415306,-0.001562061684951186,0.000755485409265384
1772043776297263900,4.765263916015625,0.03265957606434822,0.013737323853559791,0.0009162563283927739
1772043776307250000,4.77525,0.0338543388068676,-0.0049271542038768525,-0.000214455601433292
1772043776317236000,4.785236083984375,0.028763737669587133,-0.005499620329588652,0.005433277095109224
1772043776327221800,4.7952216796875,0.023673721054196357,-0.0041061566771939395,-0.004267265523038804
1772043776337208000,4.8052080078125,0.028010873475670814,-0.001973601627908647,0.002162073404714465
1772043776347193900,4.81519384765625,0.02786123587191105,-0.004823438101075589,0.003883846562867984
1772043776357180000,4.825179931640625,0.025616087293624877,-0.007653656558319926,0.006390632618870586
1772043776367167000,4.8351669921875,0.028008535388112068,-0.0023844839837402106,-0.002560653401399031
1772043776377153000,4.845153076171875,0.023370938715338706,0.006416187185235321,-0.001075200616614893
1772043776387138800,4.855138916015625,0.016330957075953483,0.0017677768575027585,0.0054606765586882825
1772043776397125000,4.865125,0.02336976967155933,-0.0071667132915928956,-0.0005046341870445758
1772043776407111000,4.87511083984375,0.03174947548210621,-0.008049012551456689,-0.007188304068893194
1772043776417097000,4.885096923828125,0.026505729609727857,0.00764868812225759,-0.005377729249279946
1772043776427083000,4.8950830078125,0.026060908451676367,0.008334989885985852,0.002920901548536494
1772043776437069000,4.905069091796875,0.022469605961441992,0.004762063302658498,0.0004211023557465523
1772043776447054800,4.915054931640625,0.026810850036144255,0.0007085135955363512,0.0034898970755282786
1772043776457042000,4.9250419921875,0.025914777979254722,0.005292188123986125,-0.005537641651881859
1772043776467028000,4.935028076171875,0.026072598889470097,0.003356836147233844,0.0014246899077203124
1772043776477014000,4.945013916015625,0.021293547919392586,-0.011343414454348385,0.003755918467417359
1772043776487000000,4.955,0.030276480320096014,-0.009199059369415044,0.003823695607157424
1772043776496985900,4.96498583984375,0.027132921597361564,-0.0047087256802245975,-0.0008190430316142738
1772043776506972000,4.974971923828125,0.024590835899114608,0.001839125060662627,-0.0010719674799125642
1772043776516958000,4.9849580078125,0.024442951861023902,0.004234313101507723,-0.003808324508089572
1772043776526944000,4.994944091796875,0.025188801792263984,0.0037010830076411364,0.005924695607554167
1772043776536929800,5.0049296875,0.029829905596375463,-0.001424625975638628,-0.0026261198530439286
1772043776546916900,5.014916748046875,0.024294483301043508,-0.0062268386255949736,-0.0074597231551073485
1772043776556903000,5.02490283203125,0.01965630210638046,-0.002338014493510127,0.002364591973181814
1772043776566889000,5.034888916015625,0.023099136036634445,-0.00194547151196748,0.007630266549577936
1772043776576875000,5.044875,0.027885201269388198,-0.0020486396254971624,-0.0009030223874840885
1772043776586860800,5.05486083984375,0.023401333853602407,0.005776829835772514,-0.005172580332309007
1772043776596847000,5.06484716796875,0.02490004797875881,0.0022719269873574376,-0.002253642411995679
1772043776606833000,5.0748330078125,0.029834581771492955,0.00829582691937685,0.00030881935399957
1772043776616819000,5.08481884765625,0.026238018584251403,-0.0030075843181461095,-0.00011668518222868442
1772043776626804700,5.0948046875,0.026681086176633832,0.007265095632150768,0.003062940367730334
1772043776636792000,5.1047919921875,0.027732641056179997,-0.0020826514929533,-0.002037095318175852
1772043776646777900,5.11477783203125,0.01995557731389999,-0.007996551711857319,-0.0011570428143255413
1772043776656764000,5.124763916015625,0.030873861691355704,-0.006083703827857971,0.004301807113457471
1772043776666750000,5.13475,0.01935527333319187,-0.0036024814713746306,0.008034025044878945
1772043776676736000,5.144736083984375,0.023846155011653897,-0.000040624271333217616,0.004558512687729672
1772043776686722000,5.15472216796875,0.03267652719914913,-0.003076704031601548,0.0033956794534344224
1772043776696707800,5.164707763671875,0.03581891687810421,-0.009210676741972566,0.0026877777792513368
1772043776706694000,5.17469384765625,0.02414367665350437,0.0002608794258907437,0.0014331563419662414
1772043776716680000,5.184679931640625,0.02219254258573055,-0.003519333232566714,0.003199462761590257
1772043776726667000,5.1946669921875,0.02608253576159477,-0.005303147909417748,-0.0002408778174780309
1772043776736652800,5.20465283203125,0.022339257580041884,-0.0025697043575346468,0.0018791922095697372
1772043776746639000,5.21463916015625,0.024432430467009544,0.001042385192401707,0.001963208098057657
1772043776756625000,5.224625,0.021447861698269843,0.00029423370622098444,0.001655566920991987
1772043776766611000,5.23461083984375,0.027291327029466628,-0.0010470613675191997,0.0030388014403171836
1772043776776597000,5.244596923828125,0.038061142846941946,0.0009735212072730064,0.004353592099621891
1772043776786583000,5.2545830078125,0.037760698595643044,-0.0012610329117625951,0.004009445703914389
1772043776796568800,5.26456884765625,0.02667991713285446,-0.004268251903727651,-0.0031807854605838655
1772043776806555100,5.27455517578125,0.029670915642380714,0.0025029227316379545,0.0032190990438219157
1772043776816542000,5.2845419921875,0.035060791987180706,-0.006977730058133602,0.007094369574589654
1772043776826527700,5.29452783203125,0.02578618316352367,0.001080013789050281,-0.001317037415318191
1772043776836514000,5.30451416015625,0.023237083202600477,0.0016470365546643734,0.0035428693717811256
1772043776846499800,5.314499755859375,0.02038520090281963,0.001206599310785532,-0.0018650266868993639
1772043776856486000,5.32448583984375,0.033093291306495666,-0.0056462622586637735,0.004705519942985847
1772043776866472000,5.334471923828125,0.02785071447789669,-0.008125183060206473,0.0011604129483457654
1772043776876458000,5.3444580078125,0.03383037340939045,-0.0022153014292940498,0.004655588987190276
1772043776886443800,5.35444384765625,0.023208441630005835,-0.000909041136316955,0.005416216362453997
1772043776896430000,5.36443017578125,0.030382278782129287,-0.002104023074544966,0.0026114428737200796
1772043776906415900,5.374415771484375,0.028886487266421318,-0.009151932292059064,0.0030513047288637605
1772043776916402000,5.38440185546875,0.027093174108862875,0.0029315234072506426,-0.0037104992899578064
1772043776926389000,5.394388916015625,0.02499941670000553,0.004568367361463606,0.0022517609821632503
1772043776936374800,5.404374755859375,0.02200783366858959,0.001835398733615875,-0.0038051553034689277
1772043776946361000,5.414361083984375,0.023352234014868734,0.002173471581563353,0.00009772475343197584
1772043776956347000,5.424346923828125,0.024849194574356078,-0.008296484506502748,-0.0033961178448516875
1772043776966333000,5.4343330078125,0.022458500045537948,0.005108757848478853,-0.0035701044385787095
1772043776976318700,5.444318603515625,0.02020633720457554,0.005699271087534726,0.00045268480409868056
1772043776986305000,5.454304931640625,0.02977905219197273,0.0023292101325467227,0.003778121166070923
1772043776996290800,5.464290771484375,0.02169452993571758,0.000904511091671884,0.0025824816407170144
1772043777006276900,5.47427685546875,0.02138356429040432,-0.00621770547106862,0.002881683783000335
1772043777016264000,5.484263916015625,0.03126023066043854,-0.00487272060289979,-0.0015082217390183358
1772043777026250500,5.49425048828125,0.03574643616378307,0.000304134045727551,0.002062047096341848
1772043777036236500,5.504236572265625,0.0381458985209465,0.006940503320284187,0.00009529533432796598
1772043777046222300,5.514222412109375,0.03156418204307556,0.0056748672986403105,0.00009013510202057659
1772043777056208400,5.52420849609375,0.024535306319594382,-0.0014485913731157778,0.004524610418127849
1772043777066194400,5.5341943359375,0.026186580657958983,0.00009169687144458293,-0.0029080238006543367
1772043777076180500,5.544180419921875,0.028124855244159697,0.006648753832094371,0.0002977499707136303
1772043777086166300,5.554166259765625,0.026617957812547683,0.005050963246636092,-0.0009563691430725156
1772043777096152600,5.564152587890625,0.042326399075984955,0.000030285540409386158,0.005022486070822924
1772043777106139400,5.574139404296875,0.03499240292608738,-0.002467266896367073,0.00014917181287892162
1772043777116125700,5.584125732421875,0.020173603978753087,-0.00776540983710438,-0.006874982069712132
1772043777126111500,5.594111572265625,0.023915713116526603,-0.00238400905970484,0.00006854432472027838
1772043777136097500,5.60409765625,0.025568156498670575,0.0009531725389882921,0.0013180968612432479
1772043777146083600,5.61408349609375,0.02721592370569706,0.005549304690212011,0.0004851623015943914
1772043777156069600,5.624069580078125,0.02780979794561863,-0.0031943025292828675,0.004538100087363273
1772043777166055400,5.634055419921875,0.02631342190802097,-0.0048522623367607595,0.0024798158506862816
1772043777176041700,5.644041748046875,0.02481646134853363,0.0026314810147508977,0.0014918551261071116
1772043777186027500,5.654027587890625,0.03693769177496433,0.009046974080242217,-0.0025023747423663736
1772043777196014300,5.664014404296875,0.031108254969120022,0.004154745059274136,0.0043462216439191246
1772043777206000600,5.674000732421875,0.019438275441527365,0.007244308572448789,0.006807816851325333
1772043777215986400,5.683986328125,0.030221535262465474,-0.0056537149127572775,0.0022154566929209977
1772043777225972500,5.693972412109375,0.024686112967133522,-0.0018058438455685972,0.000685680709220469
1772043777235958500,5.70395849609375,0.03172024938762188,-0.0019522665789350865,0.001000372681580484
1772043777245944600,5.713944580078125,0.02274725385904312,-0.0004161795854568481,0.004863185589574277
1772043777255930400,5.723930419921875,0.018552140256762502,-0.00037292496562004086,-0.0002705697028432041
1772043777265916700,5.733916748046875,0.026928923457860944,0.0034240926971659063,-0.001274020257499069
1772043777275902500,5.74390234375,0.01930091279745102,0.0018901245955377816,-0.0052163190093357115
1772043777285889300,5.75388916015625,0.02649170108437538,-0.0018279095469042658,-0.0033887747886124997
1772043777295875600,5.76387548828125,0.028287352329492567,0.004616261623799801,0.003758064758731052
1772043777305861400,5.773861328125,0.03143208009600639,-0.0012604483898729084,0.00536722612157464
1772043777315847400,5.783847412109375,0.0266477684289217,0.0033095629394054413,0.001436042418796569
1772043777325833500,5.79383349609375,0.03383037340939045,-0.0011827069785445927,0.0023354206776246425
1772043777335819500,5.803819580078125,0.020213351467251776,-0.0007651026209816337,0.00014992073155008256
1772043777345805300,5.813805419921875,0.026201778227090834,0.0017108590384945271,0.005285365657554939
1772043777355791600,5.82379150390625,0.03502922780513763,-0.004852773793414235,0.010559314871951936
1772043777365777400,5.83377734375,0.024553426498174664,-0.0009564970072358846,0.002119805165566504
1772043777375764500,5.843764404296875,0.026800913164019582,-0.004015848045237362,0.0005311203351709992
1772043777385750500,5.85375048828125,0.030832945159077644,-0.0031222236737608908,-0.0058404331238940356
1772043777395736600,5.863736572265625,0.030979660153388974,-0.0024519962619990107,0.0004758647502865642
1772043777405722400,5.873722412109375,0.027398879057168958,0.0029164719685912132,0.004542109542200342
1772043777415708400,5.88370849609375,0.024411387678980826,0.0034219007400795817,0.0013750786123331636
1772043777425694500,5.893694580078125,0.02037175689935684,-0.007031396474130452,0.0004482369578443467
1772043777435680500,5.903680419921875,0.02470481766760349,0.0011874196862801908,-0.005807005778327584
1772043777445666600,5.91366650390625,0.02994038023352623,0.012882825916074215,-0.005809654393140226
1772043777455652400,5.92365234375,0.029493805509805678,-0.0024351912576705214,-0.0016737327653449027
1772043777465638400,5.933638427734375,0.02964578120112419,-0.008470489366538821,0.0007671849802136421
1772043777475625500,5.94362548828125,0.03143383366167545,0.0019663681695237752,-0.0059780788957606995
1772043777485611500,5.953611572265625,0.024102760121226308,-0.0026921982260420915,-0.003741168422857299
1772043777495597600,5.96359765625,0.02245440839231014,-0.0020468129945918918,0.003251613073935732
1772043777505583600,5.97358349609375,0.030538346126675605,-0.0014914076015353202,-0.00012411043685860932
1772043777515569400,5.9835693359375,0.025455343773961067,0.0038003055984154343,0.0005331204960122704
1772043777525555500,5.993555419921875,0.029348844081163405,0.0031533494643867016,0.011439668769901618
1772043777535541500,6.00354150390625,0.03114507984817028,0.0017993775721639393,0.00452303038239479
1772043777545527600,6.013527587890625,0.02964928833246231,-0.006738185681216418,-0.0051123563113622365
1772043777555514600,6.0235146484375,0.025752280893921852,0.003231638864986598,-0.006146293335827067
1772043777565500400,6.03350048828125,0.029342414340376852,0.0019093042200431227,-0.0003132215344812721
1772043777575486500,6.043486572265625,0.020069559082388878,-0.002077756122127175,0.0011037234582006931
1772043777585472500,6.053472412109375,0.022462591698765754,-0.0024902824457734823,-0.0025931948309764266
1772043777595458600,6.06345849609375,0.02291150451004505,0.0019891279906034467,0.00014946407382376492
1772043777605444400,6.0734443359375,0.02081657805740833,0.00665536623597145,0.004670183768123388
1772043777615430700,6.0834306640625,0.02350362518429756,-0.005497830231301486,0.005213378133578226
1772043777625416400,6.09341650390625,0.024101591077446936,0.008424787061288953,0.0030056206899229435
1772043777635402500,6.103402587890625,0.021108254480361938,0.0030315497156232596,0.00805356999556534
1772043777645388500,6.113388427734375,0.03218143715858459,-0.007559950392879545,0.0017433274028357116
1772043777655375400,6.123375244140625,0.027990415209531782,0.006975026644393801,0.0021873174438253045
1772043777665361400,6.133361328125,0.02139993090331554,0.0066583984432742,0.004055723397899419
1772043777675347500,6.143347412109375,0.027680034086108207,-0.002964073969982564,-0.0015714779672678558
1772043777685333500,6.15333349609375,0.026490532040596006,-0.0005726853214204311,-0.00032883009556680914
1772043777695319300,6.1633193359375,0.03621405367553234,-0.0029114304672926664,-0.00034125118572264905
1772043777705305600,6.1733056640625,0.03502338258624076,0.004432867880910634,0.002495844536880031
1772043777715291400,6.18329150390625,0.03159223909378051,-0.0041438218064606186,0.0056465910522267215
1772043777725277400,6.19327734375,0.023365678018331525,0.0007282777419313788,0.005480614235019311
1772043777735263500,6.203263427734375,0.0218681329369545,0.004793554419465363,0.004611457584518939
1772043777745250600,6.21325048828125,0.02501519879102707,-0.0014230550730600952,0.001546708852192387
1772043777755236400,6.223236328125,0.028166940820217132,0.0003737652158364653,0.004995397134497761
1772043777765222700,6.23322265625,0.02817570864856243,-0.005019325999356806,0.0060215892439242445
1772043777775208400,6.24320849609375,0.025479893693327902,-0.003013064210861921,-0.0016887294050771742
1772043777785194500,6.253194580078125,0.03101473146677017,0.005286525568179786,-0.011167920890124514
1772043777795180500,6.2631806640625,0.024729952108860014,-0.007715908139571547,-0.00932530696443282
1772043777805166600,6.27316650390625,0.027875848919153214,-0.0014783654568716882,-0.0033278749142307785
1772043777815152400,6.28315234375,0.03431085040271282,0.0028619287697598337,0.0021782847539987414
1772043777825138700,6.293138671875,0.0317716873139143,-0.007247998366877436,-0.007405901475483551
1772043777835125500,6.30312548828125,0.024296821388602254,0.006852898102067411,-0.00064160410547629
1772043777845111300,6.313111328125,0.030130934369564055,0.004797682605311274,-0.001730732782743871
1772043777855097600,6.32309765625,0.024887188497185707,0.005688822758756578,-0.00275162766254507
1772043777865083400,6.33308349609375,0.02758300345242023,-0.0038012919791042803,-0.0008500135586131364
1772043777875069400,6.3430693359375,0.026692192092537877,0.0002579202838242054,0.0017179463664069772
1772043777885055500,6.353055419921875,0.023549217891693112,0.00281681098639965,-0.006270093245431781
1772043777895041500,6.36304150390625,0.029084055665135382,-0.006266841842420399,-0.0025901626236736774
1772043777905027300,6.37302734375,0.023100305080413816,0.0013518164677545428,-0.005222511288104578
1772043777915013600,6.383013671875,0.02444645899236202,0.009300327786803245,0.0007172266249544919
1772043777924999400,6.39299951171875,0.025642975300550458,0.006766206199303269,0.001624541595065966
1772043777934986500,6.402986572265625,0.030876784300804136,0.0018909283131361007,-0.0018023275810759513
1772043777944972500,6.41297265625,0.02967792990505695,-0.005416764351725578,-0.0026646708982996643
1772043777954958300,6.422958251953125,0.02399111644029617,-0.0000098272742703557,0.0005770692355930805
1772043777964944600,6.432944580078125,0.029230186137557027,0.0083143854893744,-0.002614301551086828
1772043777974930400,6.442930419921875,0.035359482672810555,-0.0021918840210884806,0.0073842924318742
1772043777984916500,6.45291650390625,0.03191431065499782,-0.0021303630921989678,0.005023792111920193
1772043777994902300,6.46290234375,0.03087619977891445,0.002624649415165186,0.0022206534578464924
1772043778004888600,6.472888671875,0.027435703936219212,-0.004722242748923599,0.002056147078517824
1772043778014874400,6.482874267578125,0.03551379645168781,0.008058145705983042,-0.0013509305517654866
1772043778024860700,6.492860595703125,0.020844635108113286,0.004086684791743755,0.0027465222291648385
1772043778034846500,6.502846435546875,0.025036826100945472,0.0024198840906843543,0.0007190075900871307
1772043778044832500,6.51283251953125,0.026088380980491637,0.0005624196557328105,0.00404567692792043
1772043778054818600,6.522818603515625,0.02518587918281555,0.0010902794547379016,-0.01043612688370049
1772043778064804600,6.5328046875,0.02039747586250305,-0.00011759849768131971,0.0005510762778110802
1772043778074790400,6.542790283203125,0.027134090641140935,0.004448869167640805,0.006791331507405266
1772043778084776700,6.552776611328125,0.027426936107873914,0.009798230838961898,-0.0013946144298650324
1772043778094762500,6.562762451171875,0.029516017341613767,0.0012334507850930094,-0.00004300802466459572
1772043778104748500,6.57274853515625,0.02248188092112541,0.0015516864214092491,-0.001399966458417475
1772043778114735600,6.582735595703125,0.028167525342106817,0.007574490374885499,-0.00003674268065951764
1772043778124721400,6.592721435546875,0.020536592072248457,-0.005325834665261209,0.00019122085631825028
1772043778134707700,6.602707763671875,0.02801438060700893,-0.009146415866725146,-0.0027687066615093496
1772043778144693500,6.612693603515625,0.030853987947106358,0.0043803705086931585,0.00388162720631808
1772043778154679600,6.622679443359375,0.027709260180592537,-0.0015626462068408728,0.003419042062712833
1772043778164665300,6.632665283203125,0.031903789260983466,-0.004023044971004129,-0.001185456058057025
1772043778174651600,6.642651611328125,0.025173604223132133,0.0022032091327011585,-0.004493639891128987
1772043778184637400,6.652637451171875,0.013499533042311667,-0.00004113572798669338,-0.00066857431079261
1772043778194623500,6.66262353515625,0.0287608150601387,-0.004662219657376408,-0.0007229622459970414
1772043778204610600,6.672610595703125,0.027709260180592537,-0.008330094515159725,0.0015325341963674873
1772043778214596600,6.6825966796875,0.03189619047641754,-0.0025819062519818544,-0.0007774963116738945
1772043778224582700,6.692582763671875,0.01992167504429817,-0.0013162702303379772,0.00456222074846737
1772043778234568700,6.702568603515625,0.020672201150655746,0.00031772417966276407,0.0019908906894270328
1772043778244554500,6.712554443359375,0.03294423822462558,0.003905665669031441,-0.003840363614168018
1772043778254540800,6.722540771484375,0.02501344522535801,0.0013765855828300117,-0.0024544530805666
1772043778264526600,6.732526611328125,0.02411445055902004,0.004826872167177498,-0.002961352289933711
1772043778274512600,6.7425126953125,0.026059154886007307,-0.0014431480130180716,-0.0037125816491898147
1772043778284498400,6.75249853515625,0.028900515791773794,-0.000967091466486454,-0.00013715258152224123
1772043778294484700,6.762484619140625,0.01168517709672451,0.015745594936050475,0.003471502902312204
1772043778304471600,6.772471435546875,0.04176701162755489,-0.021615436817519366,-0.004958919315319508
1772043778314457600,6.78245751953125,0.022315292182564735,0.0010811463002115488,0.007016454633325338
1772043778324443600,6.792443603515625,0.040275896286964416,0.04487440305836499,-0.004946708287717774
1772043778334429400,6.802429443359375,0.01722819817662239,-0.03841821265630424,-0.0030966965068597346
1772043778344415700,6.812415771484375,0.02351239301264286,0.0010881605628877877,-0.001702703131502494
1772043778354401500,6.822401611328125,0.033247020563483234,0.032520459854602814,0.007681585744861513
1772043778364387600,6.8323876953125,0.03174947548210621,-0.013548121424391865,0.002885620172601193
1772043778374373600,6.84237353515625,0.02067278567254543,-0.022026428771205246,-0.002283699623541906
1772043778384359700,6.852359619140625,0.027253333106637,0.029817849832400677,0.0005579900757875293
1772043778394346500,6.862346435546875,0.0155851071447134,-0.013036957031860946,0.002014280698169023
1772043778404332500,6.87233251953125,0.027259178325533866,-0.0058549000406637785,-0.007031560870911926
1772043778414318600,6.882318603515625,0.034140170010924335,0.018436916379258036,0.010118576233973726
1772043778424304400,6.892304443359375,0.027858897784352302,0.01059767412096262,-0.00671892385832034
1772043778434290700,6.902290771484375,0.02292377946972847,-0.007106361406482756,0.002551438048481941
1772043778444276500,6.9122763671875,0.0224736976146698,0.009977313732914626,-0.0004649506306275725
1772043778454262500,6.922262451171875,0.030707857474684713,0.012873692761547862,0.001757986115850508
1772043778464248600,6.93224853515625,0.029959669455885886,-0.00988620138335973,0.00035706980936229225
1772043778474234600,6.942234619140625,0.027861820393800734,0.0015229352509602903,0.002536578406067565
1772043778484220400,6.952220458984375,0.025467034211754797,0.012596446722745895,-0.001903541199536994
1772043778494207700,6.962207763671875,0.034897710379958154,-0.007515197935700416,0.007958073731837793
1772043778504193500,6.972193603515625,0.02651566648185253,0.0033035715900361536,0.006301182503439486
1772043778514179600,6.9821796875,0.027117724028229713,0.00771795396618545,0.0008499222270678729
1772043778524165600,6.99216552734375,0.028012627041339874,-0.0025844270026311278,-0.0043724977294914424
1772043778534151700,7.002151611328125,0.028455694633722304,-0.00667980655748397,-0.0013072375405114144
1772043778544137500,7.012137451171875,0.030252514922618864,0.00006217851601541041,-0.0037049919977784154
1772043778554123500,7.02212353515625,0.03055295917391777,-0.005184088107012212,-0.0006360054817516356
1772043778564109600,7.032109619140625,0.03429448378980159,0.005587152482569217,-0.00009145027627237141
1772043778574095400,7.042095458984375,0.022919103294610974,0.002502703535929322,-0.00537606701515615
1772043778584082700,7.052082763671875,0.03593465221226215,-0.0019394070973619817,0.002621544142626226
1772043778594068500,7.062068359375,0.03234744137525558,-0.007267251056618988,-0.0020832542811520397
1772043778604054800,7.0720546875,0.031895021432638164,-0.0022663009641692043,0.0054218423856422305
1772043778614040600,7.08204052734375,0.031147417935729026,-0.002130472690053284,-0.00030407924680039285
1772043778624026600,7.092026611328125,0.029499066206812856,-0.004165850975178182,0.003958035177085548
1772043778634012400,7.102012451171875,0.03234451876580715,0.005527238988876342,-0.0023504721162840724
1772043778643998700,7.111998779296875,0.01992167504429817,0.0008111337197944521,-0.002347330311127007
1772043778653984500,7.121984619140625,0.02185761154294014,0.00026069676280021664,-0.0024649744745809583
1772043778663970600,7.131970458984375,0.026644261297583578,-0.0033073709823191163,-0.0006532123448792844
1772043778673956600,7.14195654296875,0.02813303855061531,-0.0034443683002144095,-0.001662736447295174
1772043778683943400,7.151943359375,0.02140051542520523,0.0020539733877405525,0.0072341616377700115
1772043778693929700,7.1619296875,0.030083003574609756,-0.003707622346282005,-0.003768924079462886
1772043778703915500,7.17191552734375,0.0339805955350399,-0.00038176585920155046,-0.0017147862949408589
1772043778713901600,7.181901611328125,0.02530745973587036,-0.003762092479877174,0.0014708397375419735
1772043778723887600,7.1918876953125,0.03324292891025543,0.005431413931585848,0.0034033969690091905
1772043778733873700,7.201873779296875,0.02532265730500221,0.0008901903053745627,0.004005454515386373
1772043778743859500,7.211859375,0.028618191719055174,-0.0030731238350272176,-0.0011786792573984712
1772043778753845500,7.221845458984375,0.024130232650041578,-0.00879789468999952,0.0020543935128487646
1772043778763831600,7.23183154296875,0.028020810347795484,-0.004292034638114273,0.00015867942674085498
1772043778773818400,7.241818359375,0.03161328188180923,-0.0051817500194534655,-0.003849241040367633
1772043778783804700,7.2518046875,0.029070027139782902,0.0021360987132415174,0.005266743155475705
1772043778793790500,7.26179052734375,0.027870588222146032,0.0015614406304433942,-0.002103009294392541
1772043778803776500,7.271776611328125,0.02487608258128166,-0.0036276889778673648,-0.00322246917784214
1772043778813762600,7.281762451171875,0.03445172017812729,0.005073321208916604,0.0009389248179271817
1772043778823748600,7.29174853515625,0.029808862808346746,0.007071326625719666,0.00016292634359560906
1772043778833734400,7.301734375,0.035491584619879724,0.008773015977069734,0.005474248426314443
1772043778843720700,7.311720703125,0.02621288414299488,-0.0013910524995997546,0.0014912523379083723
1772043778853706500,7.32170654296875,0.019026187509298322,-0.0005830240523442625,-0.00381837097806856
1772043778863692500,7.331692626953125,0.015137363377213477,-0.0072161053912714115,-0.0014751962522510439
1772043778873679600,7.3416796875,0.0395271237462759,-0.015579006197489796,-0.0035201552164740857
1772043778883665700,7.351665771484375,0.02561199564039707,0.03018613515552133,0.002788744802540168
1772043778893651500,7.3616513671875,0.02022796451449394,0.0011037965234369038,-0.0020526034145615995
1772043778903637800,7.3716376953125,0.02860708580315113,-0.021462036354094743,-0.00020382460956461725
1772043778913623600,7.38162353515625,0.0330962139159441,0.014758629725314675,0.00039036015761084855
1772043778923609600,7.391609619140625,0.025766309419274328,-0.0008394099662080407,0.006313393531041219
1772043778933595600,7.401595703125,0.026216391274333,-0.012218261060118675,-0.00797212965665385
1772043778943581700,7.411581787109375,0.02815875751376152,0.0168353629341349,-0.009189862282807007
1772043778953567500,7.4215673828125,0.03114332628250122,0.008310695694945752,-0.00006405081269331276
1772043778963553800,7.4315537109375,0.026509236741065978,-0.011198818351887166,0.0038255039717536416
1772043778973540600,7.44154052734375,0.026509821262955664,0.00046027445551007984,0.004687618960114196
1772043778983526400,7.4515263671875,0.028752047231793403,0.0046859293265268205,-0.002725780835235491
1772043778993512700,7.4615126953125,0.029504911425709723,-0.010365144006721675,0.0029685309493914245
1772043779003498500,7.47149853515625,0.026358430093526838,0.0013838555738329887,-0.0021132749600801617
1772043779013484500,7.481484619140625,0.02410977438390255,0.007890607119351625,0.0049055725597310805
1772043779023471000,7.49147119140625,0.038622283861041065,0.0029880759000778198,-0.0037169472970534113
1772043779033457200,7.50145703125,0.027387188619375228,0.01293382545094937,-0.0071451042479835445
1772043779043443000,7.51144287109375,0.025732407149672506,-0.029856903201155364,-0.005307641421444713
1772043779053429200,7.52142919921875,0.031108254969120022,0.021666545950248837,0.013308476582774892
1772043779063416000,7.531416015625,0.014350596913695335,0.02268891126792878,-0.017092826560232786
1772043779073402000,7.541402099609375,0.01838847412765026,-0.03714125152304768,-0.0020727146208286283
1772043779083388200,7.55138818359375,0.035894320201873775,-0.00898260360714048,-0.007289618152054026
1772043779093374000,7.5613740234375,0.030805472630262374,0.03035564650353044,0.007769428425095975
1772043779103360300,7.5713603515625,0.03139934687018394,-0.012840886470489202,-0.00010694923950359225
1772043779113346000,7.581345947265625,0.03738602006435394,-0.006151143040880561,-0.0024712672180496153
1772043779123332000,7.59133203125,0.0462152232080698,0.020468714467808603,-0.00010309504829347133
1772043779133318100,7.601318115234375,0.03259703222215175,-0.0010495455855503678,-0.0036873924090061335
1772043779143304200,7.61130419921875,0.030950434058904647,-0.0013372399531304834,-0.004598716833954677
1772043779153290000,7.6212900390625,0.025562895801663398,0.0007524988677352667,0.0013311024732887745
1772043779163277000,7.631277099609375,0.030952772146463393,0.005048588626459241,-0.003100358901824802
1772043779173263000,7.64126318359375,0.03245733149051666,-0.003171506175585091,-0.0013745580225251613
1772043779183249000,7.651248779296875,0.03066752546429634,-0.0020449498310685156,0.0006469561340287327
1772043779193235200,7.661235107421875,0.022138766571879385,0.003036408553831279,-0.00012274959683418273
1772043779203221000,7.671220947265625,0.027979309293627738,-0.000014466916769742965,-0.0027980971527751535
1772043779213207000,7.68120703125,0.021697452545166016,-0.005769267583824694,0.0038652149276342243
1772043779223193000,7.691193115234375,0.027089666977524757,-0.002701623641513288,-0.007028985321335494
1772043779233179100,7.70117919921875,0.016612696626782417,-0.0020592340847477315,-0.004342614047881215
1772043779243165000,7.7111650390625,0.03008183453083038,-0.0007171718260273337,-0.0028546587787568567
1772043779253152300,7.72115234375,0.029785481932759282,0.0007565174557268619,0.0027931835156399755
1772043779263138000,7.731137939453125,0.03293137874305248,-0.0025797873601317405,-0.003161103512579575
1772043779273124000,7.7411240234375,0.02604337279498577,-0.005362513413839042,0.002824921227619052
1772043779283110100,7.751110107421875,0.024848025530576703,-0.0012079144850373267,-0.0037359899242408573
1772043779293096200,7.76109619140625,0.027691724523901937,-0.009757971893809735,-0.0031066059795208274
1772043779303082000,7.77108203125,0.03173310886919498,-0.00349986134711653,0.00035321561815217136
1772043779313068000,7.781068115234375,0.02095394070148468,0.0031514863008633254,-0.0024255375133361667
1772043779323054000,7.79105419921875,0.023496610921621322,-0.0007246610127389431,-0.003751004830282181
1772043779333039900,7.801039794921875,0.03696224169433117,-0.001450016145221889,-0.009075049397256224
1772043779343026200,7.811026123046875,0.032926702567934986,0.0034060090512037277,0.00440147722880356
1772043779353013000,7.821012939453125,0.04055295966267586,-0.0020324191430583596,0.0030262250865343955
1772043779362999000,7.8309990234375,0.02993336597084999,-0.004821903731115162,0.007555986603815108
1772043779372985000,7.840985107421875,0.03053542351722717,0.006061491996049881,0.003960738590825349
1772043779382971100,7.85097119140625,0.019608955833315848,0.002533938924409449,0.0022933442347217348
1772043779392957000,7.86095703125,0.02544599142372608,-0.0033323227604851124,-0.006784180247411131
1772043779402943200,7.870943115234375,0.03517828088700771,0.008694726576469839,-0.004314228203613311
1772043779412929000,7.880928955078125,0.02217033075392246,-0.011385244302079081,0.00008750475351698696
1772043779422915000,7.8909150390625,0.02666413504183292,-0.0003999956356361508,0.0011333696777932345
1772043779432901000,7.900901123046875,0.026810850036144255,-0.0016795140521600842,-0.0022333576757926493
1772043779442887200,7.91088720703125,0.02441080315709114,-0.0015928952146321534,-0.0021478074173443018
1772043779452874200,7.920874267578125,0.03339958077669143,0.008371485971473157,0.0026329240531660614
1772043779462860000,7.930860107421875,0.02816051107943058,-0.0017651465089991688,0.002435255189752206
1772043779472846000,7.94084619140625,0.027411738538742063,-0.004167641073465347,0.003870603488804772
1772043779482832000,7.950831787109375,0.022323475489020347,0.006906272257119417,-0.0006900463570840656
1772043779492818200,7.960818115234375,0.019180501288175583,-0.000005224164389073849,-0.0037752076897770164
1772043779502804000,7.970803955078125,0.031896774998307224,-0.008652166076377034,0.002634211827954277
1772043779512790000,7.9807900390625,0.03459142090976238,0.0037412688875570893,0.0011564217598177492
1772043779522776000,7.990776123046875,0.03040390609204769,0.0011471972737461327,-0.005329807587480172
1772043779532762000,8.00076220703125,0.02292377946972847,0.006516213493607938,0.002666771523840725
1772043779542748000,8.010747802734375,0.02128068843781948,0.0001775119913741946,0.0012757281573954969
1772043779552735000,8.02073486328125,0.020530746853351593,0.0011296981496736406,-0.004361364414123818
1772043779562721000,8.030720947265625,0.025765140375494957,-0.008219656410627066,-0.000015060571813955903
1772043779572707000,8.04070703125,0.03204875068962574,0.0006412935782223939,0.005123179099475964
1772043779582693000,8.050693115234376,0.027708091136813162,0.003354753788001835,0.00533832882065326
1772043779592679000,8.060678955078124,0.022772388300299644,-0.00012910627238452434,-0.005903360558580607
1772043779602665200,8.070665283203125,0.02576923202872276,0.005178937007859349,-0.004565033760061487
1772043779612651000,8.080651123046875,0.02891162170767784,-0.0066210255749523635,0.004916742407716811
1772043779622637000,8.090636962890626,0.031011808857321736,-0.00402231431864202,0.002216342608910054
1772043779632622800,8.100622802734375,0.023527006059885024,-0.005605857183039188,-0.0015749211665242908
1772043779642610200,8.110610107421875,0.031303485280275344,-0.0008534750241786241,-0.0008512100018560886
1772043779652596000,8.120595947265626,0.02636369079053402,0.013845423870533703,-0.003860757948225364
1772043779662582300,8.130582275390625,0.02875380079746246,-0.0017900617545470595,-0.001195858721062541
1772043779672568000,8.140568115234375,0.031299393627047534,-0.0027083456432446837,-0.0033199290697928517
1772043779682554000,8.15055419921875,0.026512743872404095,-0.002156228185817599,0.00389522647340782
1772043779692540200,8.1605400390625,0.024416648375988004,-0.00258552298117429,-0.0045776740459259595
1772043779702526200,8.170526123046875,0.024115619602799416,0.0005864215858280658,-0.0029251210659276693
1772043779712512000,8.180511962890625,0.0300941094905138,-0.006312946006469428,-0.00387882332787849
1772043779722498300,8.190498291015626,0.025600305202603337,0.009341719243116676,-0.004034571012016386
1772043779732484000,8.200484130859374,0.024104513686895368,-0.005785670729354024,-0.0005804028369951993
1772043779742470100,8.21047021484375,0.02784720734655857,-0.0014762830976396799,-0.00284563522208482
1772043779752457200,8.220457275390626,0.02530745973587036,0.0004174216944724321,-0.0019381558551918713
1772043779762443000,8.230443115234374,0.029050737917423245,-0.004101918893493712,0.005623712500138208
1772043779772429000,8.240428955078125,0.019175825113058088,-0.01237140579521656,-0.002225229168264195
1772043779782415000,8.2504150390625,0.02995382423698902,-0.004696669916249812,0.000811882638465613
1772043779792401200,8.260401123046876,0.02216740814447403,0.005451433806307614,0.004570175726059824
1772043779802387000,8.270386962890624,0.0227612823843956,-0.007803769086115062,-0.0005262340974994004
1772043779812373200,8.280373291015625,0.020513211196660993,0.0049534942215308546,-0.0036739575386978683
1772043779822359000,8.290359130859375,0.03339022842645645,-0.00522208202984184,0.003948308367514982
1772043779832345000,8.300344970703126,0.027556699967384336,-0.006166523273102939,-0.0009601411358918994
1772043779842331100,8.3103310546875,0.034438276174664495,0.0007466171162202954,-0.002267360410094261
1772043779852318000,8.32031787109375,0.03593348316848278,-0.0014840280126780271,0.005052059225179255
1772043779862304000,8.330303955078126,0.017533903124928474,0.00590560731459409,0.0021732797853183
1772043779872290000,8.3402900390625,0.026227497190237044,-0.007101539100892841,0.005232703888555988
1772043779882276000,8.350276123046875,0.026521511700749397,0.0036271044559776783,-0.0007945570443291216
1772043779892262000,8.360261962890625,0.020384616380929945,-0.00561181199979037,0.004303277551336214
1772043779902248200,8.370248291015624,0.02562076346874237,-0.01396448367293924,0.0047027891297824675
1772043779912234000,8.38023388671875,0.018430559703707695,0.00742280694451183,0.004838955330615863
1772043779922220000,8.390219970703125,0.026063246539235113,-0.0036916575921699404,0.0009059449969325215
1772043779932206000,8.4002060546875,0.02307400159537792,-0.004350596424937248,-0.0012126271927729248
1772043779942192000,8.410192138671874,0.028465046983957288,0.004857559566386044,0.0023747571741696448
1772043779952179000,8.420178955078125,0.02532441087067127,0.001390723706036806,-0.0020230576596688477
1772043779962165000,8.4301650390625,0.02562251703441143,-0.003215564513020217,-0.001044659347878769
1772043779972151000,8.440151123046874,0.028911037185788153,-0.00018120178580284117,-0.004950251951673999
1772043779982137000,8.45013720703125,0.02965980972647667,0.002786927304789424,-0.001124528784211725
1772043779992123100,8.460123046875,0.03280570653676986,-0.001769420825317502,-0.006223130564857274
1772043780002109000,8.47010888671875,0.024717677149176595,0.0027038521312177178,0.0029964327364694326
1772043780012095000,8.480094970703124,0.02861000841259956,-0.011545037973672151,-0.0011969820990692824
1772043780022081000,8.4900810546875,0.0269657483369112,-0.004081497159972787,0.0014046335003804415
1772043780032066800,8.50006689453125,0.03115677028596401,0.00292509366646409,0.0009805537362582981
1772043780042052900,8.510052978515626,0.021280103915929792,-0.0015704276544973254,-0.008069525616522877
1772043780052040000,8.5200400390625,0.026518004569411276,0.0003249211054295301,-0.0012271306421607732
1772043780062025700,8.530025634765625,0.03459668160676956,-0.005349836595356464,-0.0006762187611311673
1772043780072011800,8.54001171875,0.03369885598421097,-0.003539097378961742,0.008532275156909599
1772043780081997800,8.549997802734374,0.030407997745275497,-0.005034158242307603,0.0016772033640649168
1772043780091984000,8.55998388671875,0.01873743369579315,-0.004730791381560266,0.001227021044306457
1772043780101969700,8.5699697265625,0.028162849166989325,-0.0063295683477073905,0.004133428276609629
1772043780111956000,8.5799560546875,0.027415245670080184,0.009842544904723763,-0.005719501024810597
1772043780121941800,8.589941650390625,0.0269657483369112,0.010606003557890653,0.0015542619709856807
1772043780131927800,8.599927734375,0.02996902180612087,-0.008314641217701136,-0.0007026318440213799
1772043780141913900,8.609913818359376,0.015604396367073059,-0.005923325634375214,0.0016330171624664217
1772043780151900700,8.619900634765624,0.02802840913236141,-0.0014963029723614454,0.0021631967827212065
1772043780161887000,8.629886962890625,0.02863105120062828,0.0006932794937863946,0.0005496241062413901
1772043780171872800,8.639872802734375,0.02639233236312866,0.0026748452324420213,0.005551186120044439
1772043780181858800,8.64985888671875,0.03536766597926617,0.000189531222730875,0.0020828615555074067
1772043780191844600,8.6598447265625,0.0317757789671421,0.0006675605306401849,0.0007493113968055695
1772043780201831000,8.669830810546875,0.03207154704332352,-0.0019430603591725228,-0.006516167827835306
1772043780211816700,8.679816650390626,0.03895429229438305,-0.007601853305846452,0.000707682478474453
1772043780221802800,8.689802734375,0.0227916775226593,-0.001730623184889555,0.002781575276236981
1772043780231788800,8.699788818359375,0.02907937949001789,0.0019390783037990331,-0.00010396269797347485
1772043780241774800,8.70977490234375,0.01980418614447117,-0.00544763441402465,0.0024820900061633434
1772043780251760600,8.7197607421875,0.021303484791517256,-0.005941153552010655,0.006920008521527052
1772043780261747700,8.729747802734375,0.03447802366316318,-0.005771642204001545,0.0007105685553047805
1772043780271733800,8.739733642578125,0.03687280984520912,-0.001888042236305773,-0.0012731982735916972
1772043780281719800,8.7497197265625,0.02773965531885624,0.0030108722537755964,0.0064512036996893585
1772043780291705900,8.759705810546874,0.022653730356693266,-0.00000478577297180891,-0.0021314134049694984
1772043780301691600,8.769691650390625,0.018758476483821868,-0.0018707623079419135,-0.003901519216876477
1772043780311678000,8.779677978515625,0.02713818229436874,0.00009556932896375655,0.005394890446634963
1772043780321663700,8.789663818359376,0.02803717696070671,-0.006200242879614234,0.00013065890865400433
1772043780331649800,8.79964990234375,0.023100889602303505,-0.0027852468043565747,-0.005899542899988591
1772043780341635600,8.809635498046875,0.023098551514744756,0.008347958965413273,0.0010081632623914628
1772043780351622000,8.819621826171876,0.030428456011414525,-0.0020828706886619327,0.005179895989084616
1772043780361608700,8.829608642578124,0.03192190943956375,-0.0024575492199510334,0.000001936228759586811
1772043780371595000,8.839594970703125,0.027287819898128507,0.004194857873953879,-0.00030285540409386155
1772043780381580800,8.849580810546875,0.021755904734134673,-0.003861972657777369,0.001863318787002936
1772043780391566800,8.85956689453125,0.029535306563973424,-0.004279102091304957,0.0010995770060457288
1772043780401553000,8.869552978515625,0.021593992170691488,0.006987265071459114,0.000539267109008506
1772043780411539000,8.8795390625,0.020837036323547362,0.0002630713829770684,-0.003191873110178858
1772043780421524700,8.889524658203126,0.028913959795236584,-0.004337992671690881,-0.008009137198794633
1772043780431511000,8.899510986328124,0.030856326034665107,0.0002262099713087082,-0.0037895193429198113
1772043780441496800,8.909496826171875,0.027866496568918226,0.0003435162080451846,-0.00030787863908335566
1772043780451483000,8.91948291015625,0.02187280911207199,0.0034889380943030116,0.007586153413215652
1772043780461470000,8.929469970703124,0.029344167906045913,-0.003344378524459898,0.003947961307642981
1772043780471455700,8.939455810546875,0.02485387074947357,0.002969115471281111,0.0009130231916904449
1772043780481441800,8.94944189453125,0.02770458400547504,-0.0022436142083257435,0.0011382833149284125
1772043780491427800,8.959427734375,0.03234802589714527,0.004684175760857761,-0.00026129955099895593
1772043780501414000,8.969413818359374,0.03295008344352245,0.0028325200121849772,0.0011797935022506863
1772043780511399700,8.979399658203125,0.03505027059316635,0.001392404206469655,0.000881605140119791
1772043780521386000,8.989385986328125,0.025768647506833074,0.004879698332957923,-0.0026447332219686356
1772043780531371800,8.999371826171876,0.03430032900869846,0.003950600789301097,-0.005317770089814439
1772043780541357800,9.00935791015625,0.03056114248037338,0.0018441300293430686,-0.0068869921679142855
1772043780551343900,9.01934375,0.02576806298494339,-0.0003284282367676496,0.002768450933182612
1772043780561330000,9.029329833984375,0.024866730231046675,-0.002376191079430282,0.001976350707421079
1772043780571316700,9.039316650390624,0.02995557780265808,0.00028320085555315013,-0.0029155495199840514
1772043780581302800,9.049302734375,0.029502573338150977,0.002755363122746348,-0.0005362349017057567
1772043780591288800,9.059288818359375,0.029949732583761213,0.003392017058469355,0.0007683357576839625
1772043780601274600,9.069274658203126,0.030700843212008475,-0.005333141188882291,-0.001536826778994873
1772043780611261000,9.079260986328125,0.037734395110607145,-0.004880063659138977,-0.0035343116059899328
1772043780621246700,9.089246826171875,0.032201895424723626,0.0017803075455129146,0.0021617354779969898
1772043780631232800,9.099232666015626,0.029652795463800428,0.0002252601232379675,0.0029075580097734925
1772043780641218800,9.10921875,0.03055120560824871,-0.006962422891147435,-0.0020434611268807202
1772043780651204900,9.119204833984375,0.030852818903326987,-0.0019113500466570257,0.0018257267229724674
1772043780661190700,9.129190673828125,0.024113281515240666,-0.00555138704944402,-0.0026289328646380452
1772043780671178000,9.139177978515624,0.02934942860305309,0.006886909969523548,-0.01009324999647215
1772043780681163800,9.149163818359375,0.017076807007193565,0.0009385960243642329,0.00010453808670863508
1772043780691149800,9.15914990234375,0.02905015339553356,-0.00407335038613528,-0.004388005825877189
1772043780701136000,9.169135986328126,0.03129822458326816,-0.0027798765094950795,-0.004132907686801627
1772043780711122000,9.179121826171874,0.02456979311108589,-0.0018184110661968588,0.0025375739199109374
1772043780721107700,9.189107666015625,0.021723171508312225,0.0007764642652124166,0.004868035294627771
1772043780731093800,9.19909375,0.026658874344825743,-0.008923859157226979,-0.0032890772738028316
1772043780741079800,9.209079833984376,0.026059739407896992,-0.002618292739614844,0.001737125990912318
1772043780751065900,9.21906591796875,0.02785539065301418,0.001441504045203328,-0.0010553634049836546
1772043780761052000,9.229052001953125,0.02650514508783817,-0.00475647381208837,-0.004302126773865893
1772043780771037700,9.23903759765625,0.029045477220416067,0.0017200652582570908,0.0005889240701682865
1772043780781025000,9.24902490234375,0.027850129956007,0.0012335238503292203,-0.0015816979671828448
1772043780791010800,9.2590107421875,0.026658289822936058,-0.0027627427116036414,0.002306130651058629
1772043780800996900,9.268996826171875,0.02860708580315113,0.002126088775880635,0.0010237626903224736
1772043780810982700,9.278982666015626,0.030849896293878555,0.004566540730558335,-0.0046945784238632765
1772043780820969000,9.288968994140625,0.03339607364535332,-0.013126790739782153,0.00211836212715134
1772043780830954800,9.298954833984375,0.02860650128126144,0.0005119681101292371,-0.0005654427298810333
1772043780840940800,9.30894091796875,0.02636661339998245,0.004022131655551493,-0.0010557469974737613
1772043780850926800,9.3189267578125,0.03474631921052933,0.0019317717801779508,0.0066971595510840415
1772043780860913000,9.328912841796875,0.028009119910001753,0.0036588513011112807,0.0007975527190137654
1772043780870898700,9.338898681640625,0.040731238839030265,0.0048075464121997355,-0.000029627953283488747
1772043780880885800,9.3488857421875,0.03265080823600292,-0.00028594080191105605,-0.006116144792735576
1772043780890871800,9.358871826171875,0.028615269109606743,0.0002218991223722696,0.0012516074962913989
1772043780900857900,9.36885791015625,0.035492169141769406,0.008424531332962214,0.00435284318095073
1772043780910844000,9.378843994140626,0.031899113085865974,-0.0006654781714081763,-0.002553173347841948
1772043780920829700,9.38882958984375,0.028007366344332693,0.003392382384650409,-0.008360005596233532
1772043780930816000,9.39881591796875,0.02830956416130066,0.0012562471387907862,0.0026472905052360145
1772043780940801800,9.4088017578125,0.031152094110846518,-0.0033761984348297117,0.005197349447384476
1772043780950787800,9.418787841796876,0.02097615253329277,-0.005317760956659913,0.007918499773275106
1772043780960773600,9.428773681640624,0.02606032392978668,0.00536634933874011,-0.004284481519320979
1772043780970760000,9.438760009765625,0.02875087818801403,0.001823489100113511,0.0066802449489012355
1772043780980745700,9.448745849609375,0.030099370187520978,0.0008783172044903039,0.0016776326223276554
1772043780990732800,9.45873291015625,0.030990181547403333,0.003101582744531333,0.0000340575332287699
1772043781000718800,9.46871875,0.021408114209771154,0.0038039953928440807,0.002647509700944647
1772043781010704600,9.47870458984375,0.03142214322388172,0.00013451309986412525,-0.000994344799593091
1772043781020691000,9.48869091796875,0.03920212957561016,0.0017932035597041248,0.005809206868568435
1772043781030676500,9.498676513671874,0.03291793473958969,-0.008859671347215771,0.00022404541368596255
1772043781040662300,9.508662353515625,0.02663198633790016,-0.002562982355803251,0.001616540951700881
1772043781050648300,9.5186484375,0.03007540479004383,-0.004513678032159805,-0.0002984806230757385
1772043781060634400,9.52863427734375,0.023489012137055395,0.005977174713462591,0.0020928623597137627
1772043781070620400,9.538620361328125,0.0235018716186285,0.0008160290906205772,-0.0036736196119803934
1772043781080606200,9.548606201171875,0.018111995273828504,0.0004173851618543267,0.0038245449905283746
1772043781090592500,9.558592529296876,0.03396890509724617,0.001850925096310675,-0.0008112981165759265
1772043781100579300,9.568579345703125,0.031873394122719764,0.007127331129275262,-0.0015522070112172514
1772043781110565400,9.5785654296875,0.023487258571386335,0.00005677168853580951,0.0011754826533142476
1772043781120551400,9.588551513671876,0.02782616455852985,0.0015455489415675402,0.002873372612381354
1772043781130537200,9.598537109375,0.023937340426445006,0.0024202128842473027,0.0019292510295286773
1772043781140523500,9.6085234375,0.02124678616821766,-0.003615815876983106,-0.0016920356070157139
1772043781150509300,9.61850927734375,0.0344207405179739,-0.0004300254477187991,-0.003765261684497818
1772043781160495400,9.628495361328126,0.03637129006385803,0.005609656575322151,0.002194194709183648
1772043781170481200,9.638481201171874,0.02784194664955139,0.002039214210025966,-0.0011708978097420186
1772043781180467500,9.648467529296875,0.03143558722734451,-0.0011604586141183973,-0.00892380435829982
1772043781190453200,9.658453369140625,0.026503976044058797,0.0032219942538067696,-0.004479848827794194
1772043781200440300,9.6684404296875,0.0335404505521059,-0.0031371289819478987,0.0032332645664922893
1772043781210426400,9.67842626953125,0.03204816616773605,-0.00038172932658344505,0.0010424308581743389
1772043781220412200,9.688412109375,0.02800093660354614,0.0024160116331651805,-0.003016936668381095
1772043781230398500,9.6983984375,0.026800913164019582,-0.0021757000712677834,0.001997822753712535
1772043781240384300,9.70838427734375,0.03712824591100216,0.00421809261906892,0.001985127668920904
1772043781250370300,9.718370361328125,0.019617723661661146,-0.005154825479909778,0.006870762552320957
1772043781260356400,9.7283564453125,0.024407880547642705,-0.004698679210245609,0.003241210410930216
1772043781270342400,9.73834228515625,0.02529752286374569,0.0021908976403996346,-0.0014299962705001234
1772043781280329200,9.7483291015625,0.016020575952529908,-0.0027480200665071603,-0.0025697500233072784
1772043781290315300,9.758315185546875,0.023958383214473723,-0.0080956647047773,-0.009403550699260086
1772043781300301300,9.76830126953125,0.03353577437698841,-0.0049836701640859245,-0.006312069223634898
1772043781310287400,9.778287353515625,0.02560907303094864,0.0030142332546412944,-0.0050683984386269
1772043781320273400,9.7882734375,0.027857144218683242,0.004744198852404952,-0.0015844744461588562
1772043781330259200,9.79825927734375,0.027108956199884415,0.0048879547046497464,-0.0009662329499609768
1772043781340245200,9.808245361328124,0.03054769847691059,-0.005535824154131114,-0.003169807408843189
1772043781350231300,9.818231201171875,0.033685411980748176,-0.004725786412879824,0.002925705587817356
1772043781360217300,9.82821728515625,0.030091186881065365,-0.00886135184764862,0.004117764916596934
1772043781370203100,9.838203125,0.02096212400794029,-0.004214074031077325,0.00014282427048310637
1772043781380189400,9.848189453125,0.02425824294388294,0.005295147266052663,0.007755162437725812
1772043781390176300,9.85817626953125,0.030392215654253957,-0.004698715742863714,0.0023109072908759115
1772043781400162300,9.868162353515626,0.02455284197628498,-0.0014941475478932262,-0.004428483966737985
1772043781410148400,9.8781484375,0.023211364239454267,0.0005190189054235816,0.00040421515302732587
1772043781420134400,9.888134521484375,0.02620236274898052,0.0008433920215815305,-0.0029464104491285976
1772043781430120200,9.8981201171875,0.02665419816970825,-0.0056462622586637735,-0.0035274708732496943
1772043781440106500,9.9081064453125,0.02905015339553356,0.0017914134614169597,0.0033922362541779875
1772043781450092300,9.91809228515625,0.02920271360874176,-0.0015873422566801308,0.0017775949986185877
1772043781460078300,9.928078369140625,0.029054245048761366,-0.005040807178802788,-0.006615207755519077
1772043781470064400,9.938064453125,0.02949672811925411,-0.0023842282554134724,-0.004067130707902834
1772043781480050400,9.948050537109374,0.026352584874629974,0.0004950535079464316,-0.004094155712146312
1772043781490036200,9.9580361328125,0.027701076874136924,0.005411101795919239,-0.004444777514412999
1772043781500023300,9.968023193359375,0.029353520256280897,0.0050005482336506245,-0.005829199343826621
1772043781510009300,9.97800927734375,0.022920856860280035,-0.005492350338585674,0.005336063798330724
1772043781519995100,9.9879951171875,0.028457448199391364,-0.00581157235559076,0.009750884565897285
1772043781529981400,9.9979814453125,0.027257424759864805,0.008423544952273368,-0.007710884904582053
1772043781539967200,10.00796728515625,0.019928104785084725,-0.017232034101523457,0.004331416800431907
1772043781549953300,10.017953369140624,0.023673721054196357,-0.00027008564565330744,-0.005132695846492424
1772043781559939300,10.027939208984375,0.03414835331737995,0.009764986156485975,0.003176894736755639
1772043781569925400,10.03792529296875,0.0259112708479166,-0.01224321283828467,0.003570807691477239
1772043781579911200,10.0479111328125,0.02322130111157894,-0.004654219014011324,-0.002234353189636022
1772043781589897500,10.0578974609375,0.022024784803390502,0.003127411305531859,0.00608741188859567
1772043781599883300,10.06788330078125,0.02277297282218933,-0.011854907640442251,0.002753837885940447
1772043781609870300,10.077870361328126,0.029208558827638623,-0.0032122400447726247,0.0016119743744377045
1772043781619856400,10.0878564453125,0.03130231623649597,0.004443462340161204,0.0017799330861773342
1772043781629842200,10.09784228515625,0.019778467181324956,0.000723053577542305,0.004250588382873684
1772043781639828200,10.107828125,0.0287608150601387,-0.005621675806678831,0.002803476580791175
1772043781649814300,10.117814208984376,0.023829203876852986,0.0047333851974457495,0.003671756448457017
1772043781659800300,10.12780029296875,0.026676994523406026,-0.0013219327861443161,0.0023703001947607844
1772043781669786000,10.1377861328125,0.024134324303269384,0.00031140403673052784,0.006061227134568616
1772043781679772400,10.1477724609375,0.016949965757131577,0.007823314036801457,0.0022199410717934367
1772043781689758200,10.15775830078125,0.018294950625300406,0.004259155281819403,0.004462952491920441
1772043781699744300,10.167744140625,0.029516017341613767,-0.007244966159574687,-0.0011478183282539248
1772043781709731300,10.1777314453125,0.022931378254294393,-0.001394632696174085,-0.0033877427421510216
1772043781719717400,10.18771728515625,0.02847030768096447,0.0030708953453227874,-0.002440972544485703
1772043781729703400,10.197703369140624,0.03341594738960266,0.002177855495736003,-0.0039021037387661633
1772043781739689500,10.207689453125,0.024440029251575467,0.0033304961295798417,0.007487031287141144
1772043781749675300,10.21767529296875,0.03042611792385578,0.008391177052631973,-0.003071141940494999
1772043781759661300,10.227661376953124,0.027289573463797567,-0.007890205260552466,0.007179527107393368
1772043781769647400,10.2376474609375,0.023694763842225075,0.0061087652038782836,0.001707644168101251
1772043781779633400,10.24763330078125,0.02489361823797226,0.004723229129612446,0.002649637725949287
1772043781789619200,10.257619140625,0.027891046488285064,-0.008831285502947867,0.002961562352487817
1772043781799605200,10.267605224609374,0.027591771280765533,0.00627184681110084,0.001927223469223827
1772043781809591300,10.27759130859375,0.033280338311195375,-0.0028739114684984087,-0.0042100737093947824
1772043781819578400,10.287578369140626,0.02026537391543388,-0.003701777127385139,-0.0005271200134884566
1772043781829564400,10.297564453125,0.02161561948060989,-0.007664579811133444,0.002072778552910313
1772043781839550200,10.30755029296875,0.031041034951806067,-0.009005363428220153,0.0009033603142015635
1772043781849536500,10.31753662109375,0.027906244057416915,0.008337072245217859,0.00015048698713071644
1772043781859522300,10.327522216796876,0.026115268987417218,0.005748918915539979,0.0013721468697302042
1772043781869508400,10.33750830078125,0.022977555483579635,0.0002686974061653018,0.00800641551874578
1772043781879494400,10.347494384765625,0.028666122514009473,-0.00036602030079811807,0.004221170492144302
1772043781889480400,10.35748046875,0.021175474497675893,0.00710767658073455,0.0005839465009514242
1772043781899466200,10.36746630859375,0.02611000829041004,-0.00658785395771265,-0.005733282954990863
1772043781909452500,10.37745263671875,0.030598551881313323,-0.0011975026888772845,-0.0013259787735994905
1772043781919438300,10.387438232421875,0.02580722595155239,-0.005798968602344394,-0.0012551602934021502
1772043781929425200,10.397425048828126,0.032845454025268554,-0.006338153512962162,0.00009966098219156265
1772043781939411500,10.407411376953124,0.030902503263950346,-0.0018968831298872828,-0.00706558187152259
1772043781949397200,10.417397216796875,0.02027589530944824,-0.00498242805507034,-0.004772073240019381
1772043781959383300,10.42738330078125,0.031354338684678074,-0.010921535780467092,-0.002635189075488597
1772043781969369300,10.437369384765624,0.03359247300028801,-0.008252974158339203,-0.003566378111531958
1772043781979355400,10.44735546875,0.023115502649545667,-0.004787161211296916,-0.0014815985935740172
1772043781989341200,10.457341064453125,0.02955284222066402,0.0021775632347911596,0.00009254625481553375
1772043781999327500,10.467327392578126,0.029707155999541282,-0.00599445464182645,0.0013025248327758162
1772043782009313300,10.477313232421874,0.033440497308969495,-0.004547762964852154,0.004653543160576373
1772043782019299300,10.48729931640625,0.027453824114799498,-0.002129668972454965,0.0007497680545318871
1772043782029285400,10.497285400390625,0.012792846077680588,0.003181808373890817,-0.0014282883706036955
1772043782039272400,10.5072724609375,0.02011807439923286,-0.0008826280534267425,-0.0006658800302073359
1772043782049258500,10.517258544921875,0.02953764465153217,-0.004066409188695252,0.0011614815274253486
1772043782059244300,10.527244384765625,0.02624327928125858,0.001942183576337993,-0.004990227769035845
1772043782069230600,10.537230712890626,0.024590251377224922,-0.0027269042132422325,0.0014842015426140278
1772043782079216400,10.54721630859375,0.022198387804627417,0.005003434310480952,0.005274488070514053
1772043782089202400,10.557202392578125,0.027732641056179997,-0.004544255833514034,-0.00492508097779937
1772043782099188200,10.567188232421875,0.023235914158821105,0.006966368413902819,-0.0032809396331198513
1772043782109174500,10.577174560546876,0.021579963645339012,0.00032565175779163835,0.007579851536592468
1772043782119160300,10.587160400390625,0.02607026080191135,0.001498312266357243,-0.00046273127407766873
1772043782129146400,10.597146484375,0.02666296599805355,0.008637370366044343,0.0031006420296151188
1772043782139132400,10.60713232421875,0.02321954754590988,-0.0063084159618243575,0.0022904307584278283
1772043782149119500,10.617119384765624,0.017837854507565497,0.00406666491702199,0.00010306764882989227
1772043782159105500,10.62710546875,0.024132570737600324,0.0016233999507501721,-0.0026652736864984034
1772043782169091600,10.637091552734375,0.03416121279895305,-0.006980944928526878,0.004476049435511231
1772043782179077400,10.647077392578124,0.027581249886751175,-0.0007944017807021736,-0.0019357264360878616
1772043782189063400,10.6570634765625,0.02743102776110172,-0.006336144218966364,0.0038396877607330677
1772043782199049500,10.667049560546875,0.02279343108832836,0.0014206073876470327,0.00414514611386694
1772043782209035500,10.677035400390626,0.02219312710762024,0.001126264083571732,-0.005886427690088749
1772043782219021600,10.687021484375,0.025633622950315474,-0.007993482971936463,-0.00044413617146201427
