time,seconds_elapsed,z,y,x
1772043771633744600,0.10174462890625,0.0013074828311800957,-0.0004109119763597846,-0.0015190273988991976
1772043771643731000,0.11173095703125,-0.0017303843051195145,-0.001087887561880052,-0.0004351208917796612
1772043771653717800,0.1217177734375,0.0009146668016910553,-0.004773436114192009,0.0019297661492601037
1772043771663703800,0.131703857421875,0.0010311584919691086,0.00032001579529605806,-0.0007457712199538946
1772043771673689900,0.14168994140625,-0.002848801203072071,-0.002648876281455159,-0.000015532365068793297
1772043771683675600,0.151675537109375,-0.0016699032858014107,0.0015286889392882586,-0.0011635860428214073
1772043771693662000,0.161661865234375,0.0008981833234429359,-0.002287887269631028,-0.000013632932677865028
1772043771703647700,0.171647705078125,0.001364491879940033,0.00037796839023940265,0.0006347303278744221
1772043771713633800,0.1816337890625,-0.00093807652592659,0.0005742433713749051,0.00036628358066082
1772043771723619800,0.191619873046875,0.000295751728117466,-0.0013765330659225583,0.001737190643325448
1772043771733606000,0.20160595703125,0.0012803217396140099,-0.0021994495764374733,0.001338515430688858
1772043771743592700,0.2115927734375,0.000492478720843792,0.00002651548129506409,0.0011924547143280506
1772043771753579000,0.2215791015625,-0.0009624054655432701,0.0014124244917184114,-0.0013929419219493866
1772043771763564800,0.231564697265625,0.0018079886212944984,-0.004393103998154402,-0.0015690573491156101
1772043771773550800,0.24155078125,0.0006963852792978287,0.0032605547457933426,-0.003693194594234228
1772043771783537000,0.251536865234375,0.0011154767125844955,-0.0010404763743281364,-0.002556244609877467
1772043771793523000,0.26152294921875,0.0012012310326099396,0.0005369139835238457,0.00014047231525182724
1772043771803508700,0.2715087890625,0.001575320027768612,-0.0008027928415685892,0.001612701453268528
1772043771813495000,0.2814951171875,0.0012163259088993073,-0.00008826676639728248,0.0011051029432564974
1772043771823480800,0.291480712890625,0.00047525297850370407,-0.0013499357737600803,-0.00008376571349799633
1772043771833467600,0.301467529296875,-0.00019613001495599747,-0.0028082826174795628,-0.0024859372060745955
1772043771843454000,0.311453857421875,0.0021941466256976128,-0.00029796111630275846,0.0009106118232011795
1772043771853439700,0.321439697265625,0.00028252974152565,-0.0007008974207565188,-0.0010145874693989754
1772043771863425800,0.33142578125,-0.0008182413876056671,0.00046721682883799076,0.00041463831439614296
1772043771873411800,0.341411865234375,0.0006496934220194817,-0.0018904795870184898,-0.0004919017665088177
1772043771883398000,0.35139794921875,-0.001509600318968296,0.0006226677214726806,-0.0023935253266245127
1772043771893383700,0.3613837890625,0.0005791168659925461,0.0009318607626482844,0.0001750935334712267
1772043771903370000,0.371369873046875,0.0006934506818652153,0.0018331344472244382,-0.0001872563734650612
1772043771913356800,0.381356689453125,-0.0012653041630983353,0.00027065782342106104,-0.0007180243264883757
1772043771923342600,0.391342529296875,0.0007353620603680611,-0.0012237607734277844,-0.0012159813195466995
1772043771933329000,0.401328857421875,0.0008525410667061806,-0.0008125687018036842,-0.000258574727922678
1772043771943314700,0.411314697265625,0.00008882861584424973,0.0007734026294201612,-0.00036259880289435387
1772043771953300700,0.42130078125,-0.0017996188253164291,-0.0006694979965686798,-0.0002092006616294384
1772043771963286800,0.431286865234375,-0.0008299620822072029,-0.0008873445331119001,0.0005013307090848684
1772043771973272800,0.44127294921875,0.0015538334846496582,-0.0012450071517378092,0.00013115117326378822
1772043771983258600,0.451258544921875,0.0015494804829359055,-0.0019037873717024922,-0.00032046111300587654
1772043771993246000,0.461245849609375,-0.0003975573927164078,0.0011274224380031228,0.0009615845046937466
1772043772003231700,0.471231689453125,-0.0003039846196770668,0.0004898536717519164,-0.0009390467312186956
1772043772013218300,0.48121826171875,-0.0010198429226875305,-0.001043328084051609,0.00017468747682869434
1772043772023204600,0.49120458984375,-0.00039986614137887955,-0.00028117490001022816,-0.00007322616875171661
1772043772033190400,0.5011904296875,-0.0004917457699775696,-0.0009339156094938517,0.0004455575253814459
1772043772043176400,0.511176513671875,-0.0003905482590198517,0.0014332504943013191,0.0015362920239567757
1772043772053162200,0.521162353515625,-0.0008065337315201759,-0.00024320941884070635,0.0007661059498786926
1772043772063148500,0.5311484375,-0.0015246933326125145,-0.001026413170620799,0.0005168700590729713
1772043772073135400,0.54113525390625,-0.000853576697409153,0.0005805381806567311,0.001968559343367815
1772043772083121700,0.55112158203125,-0.001106218434870243,-0.0003935426939278841,0.000815756618976593
1772043772093107500,0.561107421875,-0.0006990209221839905,0.001573734451085329,0.00041361921466886997
1772043772103093500,0.571093505859375,-0.00042951758950948715,-0.0013252368662506342,-0.00006052246317267418
1772043772113079600,0.58107958984375,0.0010032625868916512,-0.001538556069135666,0.000948549248278141
1772043772123065300,0.5910654296875,-0.0026096710935235023,-0.0025552636943757534,-0.0003305054269731045
1772043772133051400,0.601051513671875,0.00008811149746179581,0.0006999180186539888,-0.0007952270098030567
1772043772143037400,0.611037353515625,0.0006461357697844505,-0.0009045694023370743,0.0009386814199388027
1772043772153024500,0.6210244140625,-0.000567200593650341,-0.001035064342431724,-0.003335692221298814
1772043772163010300,0.63101025390625,-0.00018370337784290314,-0.0012480397708714008,-0.0005115496460348368
1772043772172996600,0.64099658203125,-0.0016242070123553276,-0.0002706597442738712,0.0004173610359430313
1772043772182982400,0.650982421875,-0.00048339925706386566,0.0012366636656224728,-0.0032164754811674356
1772043772192968400,0.660968505859375,-0.0009606378152966499,-0.001749805174767971,-0.0024814431089907885
1772043772202954500,0.67095458984375,0.0005539925768971443,0.0007663751603104174,-0.000994380796328187
1772043772212940500,0.6809404296875,-0.0004697265103459358,-0.0005372421583160758,0.00023919553495943546
1772043772222926300,0.69092626953125,0.0008983369916677475,0.0008374042226932943,-0.0009497662540525198
1772043772232913400,0.700913330078125,0.0002250904217362404,-0.0006017680279910564,0.0004899387713521719
1772043772242899500,0.7108994140625,-0.0036145560443401337,0.0006663106614723802,-0.0013481206260621548
1772043772252885200,0.72088525390625,-0.0005005216225981712,0.0011696481378749013,-0.0012847371399402618
1772043772262871600,0.73087158203125,0.0006624674424529076,-0.00003331166226416826,0.0002558142878115177
1772043772272857300,0.740857421875,-0.001536504365503788,-0.001383001683279872,-0.00007681455463171005
1772043772282843400,0.750843505859375,0.002369290217757225,-0.0007831034599803388,-0.0008858970832079649
1772043772292829400,0.760829345703125,-0.0002680383622646332,-0.001745037268847227,0.000643556471914053
1772043772302815500,0.7708154296875,0.0007782317698001862,-0.0023521091789007187,-0.0005740071646869183
1772043772312802600,0.780802490234375,-0.0012468360364437103,0.0036895382218062878,0.002217251807451248
1772043772322788400,0.790788330078125,-0.002688317559659481,-0.0007854229770600796,-0.0015443703159689903
1772043772332774400,0.8007744140625,-0.0008331593126058578,-0.000531091121956706,-0.0009925630874931812
1772043772342760400,0.810760498046875,0.000037078745663166046,0.00031653372570872307,-0.00014471844770014286
1772043772352746500,0.82074658203125,0.0024775993078947067,-0.0021977564319968224,0.000005483860149979591
1772043772362732300,0.830732177734375,0.0018568988889455795,-0.0005878164665773511,0.00015765591524541378
1772043772372718300,0.84071826171875,-0.0003756284713745117,0.0012891794322058558,0.0007408882956951857
1772043772382704400,0.850704345703125,0.00042936764657497406,-0.0004188754828646779,0.001569013693369925
1772043772392691500,0.86069140625,0.0014408361166715622,-0.0007187474402599037,-0.0004909413401037455
1772043772402677500,0.870677490234375,-0.00044869258999824524,0.0005139783024787903,0.0009223392698913813
1772043772412663600,0.88066357421875,0.0029614847153425217,-0.0006098756566643715,-0.0011994012165814638
1772043772422649300,0.8906494140625,0.0003016078844666481,-0.0006355293444357812,0.0002615470439195633
1772043772432635600,0.9006357421875,0.0003197174519300461,-0.00017160666175186634,-0.0011968000326305628
1772043772442621400,0.910621337890625,0.0015182290226221085,0.003300418145954609,0.00187100435141474
1772043772452607500,0.920607421875,-0.0018099239096045494,0.0013232873752713203,0.000088550616055727
1772043772462593500,0.930593505859375,0.0022094976156949997,0.000016223129932768643,0.0013770051300525665
1772043772472580400,0.940580322265625,0.000894429162144661,0.0002066391461994499,-0.002344496315345168
1772043772482566400,0.95056640625,0.0005188342183828354,0.0010851903352886438,0.0009860999416559935
1772043772492552400,0.960552490234375,0.000095391646027565,0.0017152943182736635,0.002243644557893276
1772043772502538500,0.97053857421875,-0.0001272503286600113,0.0004470564890652895,-0.00019418331794440746
1772043772512524300,0.980524169921875,0.0007843496277928352,-0.010470305569469929,-0.0008850074373185635
1772043772522510600,0.990510498046875,0.0024641016498208046,-0.006659479811787605,0.0008331604767590761
1772043772532496400,1.000496337890625,-0.0017279796302318573,-0.000363767147064209,-0.0032848853152245283
1772043772542482400,1.010482421875,0.002119217999279499,0.000620837789028883,-0.00046098255552351475
1772043772552469500,1.020469482421875,0.0005673933774232864,0.0010477425530552864,-0.00016963272355496883
1772043772562455300,1.030455322265625,0.0006969990208745003,0.0023149612825363874,0.002575082238763571
1772043772572441300,1.04044140625,0.0012296317145228386,-0.00009413430234417319,0.00017504137940704823
1772043772582427400,1.050427490234375,-0.0013181259855628014,0.0011399234645068645,0.0022388186771422625
1772043772592413400,1.060413330078125,-0.0004653818905353546,0.0006730712484568357,-0.0002019684761762619
1772043772602399200,1.070399169921875,0.000049052760004997253,0.00032280437881127,-0.0008753237780183554
1772043772612385500,1.080385498046875,-0.001095040701329708,0.0008301365305669606,0.001062658615410328
1772043772622371300,1.090371337890625,-0.0012448905035853386,0.0006497484864667058,0.0007924712263047695
1772043772632358700,1.100358642578125,-0.00016950629651546478,-0.0010176566429436207,0.0005477266386151314
1772043772642344400,1.110344482421875,-0.0007950793951749802,-0.000842835521325469,-0.0007733714301139116
1772043772652330500,1.12033056640625,0.00016152765601873398,-0.0030402098782360554,0.001412551268003881
1772043772662316500,1.130316650390625,-0.00011720042675733566,-0.001259583281353116,0.0018072739476338029
1772043772672302600,1.140302490234375,-0.00011986307799816132,-0.0012675728648900986,0.0014765093801543117
1772043772682288400,1.150288330078125,0.00018283352255821228,0.00033774375333450735,-0.002260480308905244
1772043772692274400,1.1602744140625,-0.0002834862098097801,0.0018831761553883553,0.002454380039125681
1772043772702260500,1.170260498046875,-0.0018936339765787125,0.0013667121529579163,0.0005269241519272327
1772043772712247300,1.180247314453125,-0.0013673938810825348,-0.0017406641272827983,0.0005391745362430811
1772043772722233600,1.190233642578125,0.0009863972663879395,-0.00002929125912487507,0.000981212593615055
1772043772732219400,1.200219482421875,0.00001727323979139328,0.00007776782149448991,0.002278704661875963
1772043772742205400,1.210205322265625,0.0001181168481707573,-0.0019348855130374432,0.0008517035748809576
1772043772752191500,1.22019140625,-0.0015167975798249245,0.0004989772569388151,0.00042533152736723423
1772043772762177500,1.230177490234375,-0.00003935582935810089,-0.0019520244095474482,0.0012181602651253343
1772043772772163300,1.240163330078125,0.0006402824074029922,0.0005518794641830027,0.00007779477164149284
1772043772782149600,1.250149658203125,-0.0026704715564846992,0.0018142437329515815,-0.0014852976892143488
1772043772792136400,1.260136474609375,-0.0011982768774032593,-0.0006369297625496984,-0.00023973756469786167
1772043772802122200,1.270122314453125,-0.002810833975672722,0.0007700005080550909,0.00048142275772988796
1772043772812108500,1.280108642578125,0.00031305477023124695,0.00017478401423431933,-0.0018565661739557981
1772043772822094300,1.29009423828125,-0.0017000064253807068,0.0015013143420219421,-0.00012815161608159542
1772043772832080400,1.300080322265625,0.0005426416173577309,0.0023167741019278765,0.0011277950834482908
1772043772842066400,1.31006640625,0.00038980040699243546,-0.00034496193984523416,-0.0004861508496105671
1772043772852052500,1.320052490234375,0.00006196554750204086,0.0017786426469683647,0.00015433947555720806
1772043772862038300,1.330038330078125,-0.002806279808282852,0.0008239958551712334,0.00014355918392539024
1772043772872025600,1.340025634765625,-0.0016097212210297585,-0.0012732434552162886,0.0003430300857871771
1772043772882011400,1.350011474609375,-0.0016471389681100845,-0.00033792591420933604,0.001410629483871162
1772043772891997400,1.35999755859375,-0.000981082208454609,0.0005981752183288336,-0.0001534449402242899
1772043772901983500,1.3699833984375,-0.00015092920511960983,-0.001964618917554617,-0.0026330752298235893
1772043772911969500,1.379969482421875,0.0010203290730714798,-0.0006673932657577097,-0.0013241316191852093
1772043772921955300,1.389955322265625,-0.0011837081983685493,0.0003051281673833728,-0.000759458402171731
1772043772931941600,1.399941650390625,0.0010514827445149422,0.0008697183220647275,-0.0007557300850749016
1772043772941927400,1.409927490234375,0.0016966722905635834,-0.00040718354284763336,0.0013690309133380651
1772043772951914500,1.41991455078125,0.00021675322204828262,-0.001748085138387978,0.0009684914257377386
1772043772961900500,1.429900634765625,-0.000421302393078804,-0.0022251794580370188,-0.0007555992342531681
1772043772971886300,1.43988623046875,0.0005350392311811447,-0.0020832328591495752,-0.00024746800772845745
1772043772981872600,1.44987255859375,-0.0016320226714015007,-0.0017466609133407474,-0.0012950312811881304
1772043772991858400,1.4598583984375,-0.00072494987398386,-0.002018835861235857,-0.0007754487451165915
1772043773001844500,1.469844482421875,0.0005028527230024338,-0.0007349340594373643,0.0014138760743662715
1772043773011829500,1.47982958984375,0.001034686341881752,-0.0006505118799395859,-0.00015978584997355938
1772043773021815600,1.489815673828125,0.00019889604300260544,-0.001125852344557643,-0.002609010087326169
1772043773031802400,1.49980224609375,0.0013192873448133469,0.00101293227635324,0.0008943781722337008
1772043773041788400,1.509788330078125,0.0011288691312074661,0.000030088616767898202,-0.00016136537306010723
1772043773051774500,1.5197744140625,0.000708090141415596,-0.001147028524428606,-0.0011976012028753757
1772043773061760500,1.529760498046875,0.0011756382882595062,0.0002764567907433957,-0.00005615409463644028
1772043773071746300,1.539746337890625,0.0005247620865702629,0.00043464856571517885,-0.0012338038068264723
1772043773081732600,1.549732666015625,-0.001622927375137806,0.0007106297416612506,-0.00014338153414428234
1772043773091718400,1.559718505859375,0.0017385147511959076,-0.0002196124114561826,-0.0004850651603192091
1772043773101704400,1.569704345703125,-0.000550510361790657,-0.0012304887641221285,-0.0011496103834360838
1772043773111691500,1.57969140625,0.0007381932809948921,0.0009362590499222279,-0.001057464862242341
1772043773121677300,1.58967724609375,0.002270180732011795,-0.0007798451697453856,-0.0017778878100216389
1772043773131663600,1.59966357421875,0.002457134425640106,-0.0053141433745622635,-0.0000803887378424406
1772043773141649400,1.6096494140625,-0.0003916211426258087,-0.0018635017331689596,-0.0016021542251110077
1772043773151635500,1.619635498046875,0.0002235686406493187,-0.0005399105721153319,-0.001217859797179699
1772043773161621200,1.629621337890625,0.00230486411601305,-0.002262704074382782,0.0004892218858003616
1772043773171607600,1.639607666015625,0.0020896801725029945,0.0019014147110283375,0.0014104092260822654
1772043773181593300,1.64959326171875,0.0012789685279130936,-0.00015769759193062782,0.0003164533991366625
1772043773191580400,1.659580322265625,0.00039186980575323105,-0.0011057829251512885,-0.0013730560895055532
1772043773201566500,1.66956640625,0.0011142436414957047,-0.0005362852243706584,-0.0012005118187516928
1772043773211552300,1.67955224609375,0.0019275723025202751,-0.00029713340336456895,-0.0008694811258465052
1772043773221538600,1.68953857421875,0.001220541074872017,-0.0008204013574868441,-0.0007817014120519161
1772043773231524400,1.6995244140625,0.0014873892068862915,-0.002206843113526702,-0.0037255596835166216
1772043773241510400,1.709510498046875,0.0003112033009529114,-0.0008894223719835281,-0.00020855735056102276
1772043773251496400,1.719496337890625,0.0002643316984176636,0.0010235263034701347,0.0016231648623943329
1772043773261482500,1.729482421875,0.001102467067539692,-0.0012346378061920404,-0.0004287904594093561
1772043773271469300,1.73946923828125,0.00003453996032476425,0.0010564796393737197,-0.0004961683880537748
1772043773281455600,1.74945556640625,0.0006424039602279663,0.0007753968238830566,-0.0028719312977045774
1772043773291441400,1.75944140625,0.00010204780846834183,0.00003184229717589915,0.00008950382471084595
1772043773301427500,1.769427490234375,-0.0005755452439188957,0.0009256007615476847,-0.002395597519353032
1772043773311413500,1.77941357421875,0.0006095618009567261,-0.001146604772657156,-0.00024749175645411015
1772043773321399600,1.789399658203125,-0.000714574009180069,-0.0008573996601626277,0.002378868404775858
1772043773331385300,1.79938525390625,0.0006372472271323204,-0.0015524846967309713,0.0019631488248705864
1772043773341371600,1.80937158203125,-0.00006714090704917908,-0.000028793816454708576,0.0007965173572301865
1772043773351358500,1.8193583984375,-0.0002301270142197609,0.002910004463046789,0.0019009301904588938
1772043773361344300,1.82934423828125,0.00046103447675704956,0.001401137444190681,0.0007720317225903273
1772043773371330600,1.83933056640625,-0.0008644210174679756,-0.00007025909144431353,-0.0007315890397876501
1772043773381316400,1.84931640625,0.0014413008466362953,-0.0006165122613310814,0.00022349832579493523
1772043773391302400,1.859302490234375,0.0001408793032169342,0.002082601422443986,-0.0014686740469187498
1772043773401288400,1.869288330078125,-0.001316622830927372,0.0006428654887713492,0.001997547224164009
1772043773411274500,1.8792744140625,0.0021164584904909134,0.001010647974908352,-0.0013681554701179266
1772043773421260300,1.88926025390625,0.00048401113599538803,0.0020455713383853436,-0.0006134742870926857
1772043773431247400,1.899247314453125,0.0009886808693408966,0.0020716702565550804,-0.0013138854410499334
1772043773441233400,1.9092333984375,-0.001760602928698063,-0.0006226879777386785,-0.0009275488555431366
1772043773451219500,1.919219482421875,-0.0006468696519732475,0.0023459377698600292,-0.001820240169763565
1772043773461205500,1.92920556640625,-0.0018810080364346504,-0.0016382535686716437,-0.0005174009129405022
1772043773471191300,1.93919140625,-0.0003105420619249344,0.00020119176770094782,0.0008392133750021458
1772043773481177300,1.94917724609375,-0.0017296429723501205,-0.0020282240584492683,-0.00111964694224298
1772043773491163400,1.959163330078125,-0.00013387668877840042,-0.0012708212016150355,-0.002467472804710269
1772043773501149400,1.9691494140625,-0.0019210642203688622,0.0007604478159919381,-0.0011461763642728329
1772043773511136500,1.979136474609375,-0.002133583649992943,-0.0033464129082858562,-0.0007461695931851864
1772043773521122600,1.98912255859375,-0.0017584078013896942,-0.0010010424302890897,-0.0011070924811065197
1772043773531108400,1.9991083984375,0.001210218295454979,-0.0015176957240328193,-0.0024823485873639584
1772043773541094700,2.0090947265625,-0.001000804826617241,-0.0005079797119833529,0.0011635138653218746
1772043773551080400,2.01908056640625,-0.0008625872433185577,-0.0010970709845423698,-0.0017968560568988323
1772043773561066500,2.02906640625,-0.0004628188908100128,0.00033031965722329915,-0.001835638890042901
1772043773571052500,2.039052490234375,-0.00003964267671108246,-0.0002044430875685066,0.0020927898585796356
1772043773581038600,2.04903857421875,-0.0011654524132609367,0.001830034889280796,-0.00015970715321600437
1772043773591025400,2.059025390625,0.0014777341857552528,0.0014811607543379068,0.0010528299026191235
1772043773601011500,2.069011474609375,0.00034967344254255295,0.0003594986046664417,0.000053072813898324966
1772043773610997500,2.07899755859375,0.0012175971642136574,-0.0010935220634564757,0.0019255414372310042
1772043773620983300,2.0889833984375,0.000512734055519104,-0.0007168550509959459,-0.0012208158150315285
1772043773630969600,2.098969482421875,-0.0008055306971073151,0.0015718655195087194,0.0006335433572530746
1772043773640955400,2.108955322265625,-0.0001451205462217331,-0.0012127170339226723,-0.0009394576773047447
1772043773650941400,2.11894140625,-0.0011573880910873413,0.000018196034943684936,-0.0007136217318475246
1772043773660927500,2.128927490234375,-0.00002673175185918808,0.001433133496902883,0.0006565132644027472
1772043773670914300,2.138914306640625,0.00149606354534626,-0.0023176625836640596,0.0010203009005635977
1772043773680900400,2.148900390625,-0.0020008478313684464,0.000982787343673408,-0.0021734845358878374
1772043773690886400,2.158886474609375,-0.00041040778160095215,-0.0043430021032691,-0.00036093685775995255
1772043773700872400,2.16887255859375,-0.00217392947524786,0.0005947409081272781,0.000016863225027918816
1772043773710858200,2.178858154296875,-0.0003019934520125389,0.000012840231647714972,-0.0028937053866684437
1772043773720844500,2.188844482421875,0.001186273992061615,-0.0006977578159421682,-0.0010928441770374775
1772043773730830300,2.198830322265625,0.00136603694409132,-0.00022584566613659263,0.0005647074431180954
1772043773740816400,2.20881640625,0.0008099386468529701,-0.0007393397390842438,0.00193461449816823
1772043773750803500,2.218803466796875,-0.00020685698837041855,-0.00006369577022269368,-0.0010425332002341747
1772043773760789500,2.22878955078125,-0.0007442058995366096,-0.0023765843361616135,-0.0035945908166468143
1772043773770775600,2.238775634765625,-0.0008675102144479752,-0.007493847981095314,-0.0002637752331793308
1772043773780761600,2.24876171875,-0.00029431935399770737,-0.0036704554222524166,-0.0009931593667715788
1772043773790747400,2.258747314453125,-0.0014988668262958527,0.0008894092170521617,0.0007722503505647182
1772043773800733400,2.2687333984375,0.0013687647879123688,0.002479823073372245,0.0007557731587439775
1772043773810719500,2.278719482421875,-0.0021822936832904816,-0.0009023913880810142,-0.0015071146190166473
1772043773820705500,2.28870556640625,0.0005874680355191231,0.0016253439243882895,-0.0005829590372741222
1772043773830691300,2.29869140625,-0.0010160207748413086,0.0004985606065019965,0.0007752531673759222
1772043773840678400,2.308678466796875,-0.0011011157184839249,-0.0019016427686437964,-0.001257463125512004
1772043773850664400,2.31866455078125,-0.00029657408595085144,-0.0021615675650537014,-0.0008297597523778677
1772043773860650500,2.328650390625,0.0015299823135137558,-0.00019569159485399723,0.0003577892202883959
1772043773870636500,2.338636474609375,-0.0002836305648088455,-0.0009472356177866459,-0.0004643285647034645
1772043773880622300,2.348622314453125,-0.00009627174586057663,0.0007732695084996521,-0.0016394639387726784
1772043773890608600,2.358608642578125,-0.0022353222593665123,0.000010273884981870651,0.0008364769164472818
1772043773900594400,2.368594482421875,0.0004364950582385063,0.0007771451491862535,0.0006184277590364218
1772043773910580500,2.37858056640625,-0.0023592915385961533,0.0012969942763447762,-0.00041727558709681034
1772043773920567600,2.388567626953125,0.0002306876704096794,0.0009408940677531064,0.00012150220572948456
1772043773930553300,2.39855322265625,-0.0005770493298768997,-0.0009139976464211941,0.0016301828436553478
1772043773940539400,2.408539306640625,0.0006829621270298958,-0.003025806974619627,0.0013448836980387568
1772043773950525400,2.418525390625,0.0018725963309407234,0.0021186210215091705,0.0018010830972343683
1772043773960511500,2.428511474609375,-0.000649498775601387,0.0007009349064901471,0.0007386230863630772
1772043773970497300,2.438497314453125,-0.0010090256109833717,0.0002263596106786281,-0.000008127419278025627
1772043773980483600,2.448483642578125,-0.0018393639475107193,0.00012119064922444522,0.00020758691243827343
1772043773990469400,2.458469482421875,-0.001067579723894596,0.0006799218244850636,-0.0003298390656709671
1772043774000456400,2.46845654296875,0.0009451983496546745,-0.0012447896879166365,-0.001431687967851758
1772043774010442500,2.4784423828125,-0.0032197199761867523,0.0014087839517742395,0.0011265447828918695
1772043774020428800,2.4884287109375,-0.002058025449514389,0.002463272539898753,-0.0003173945005983114
1772043774030415000,2.4984150390625,0.00008129142224788666,-0.002193531021475792,-0.000015391968190670013
1772043774040401000,2.50840087890625,0.000909741036593914,-0.001376610016450286,-0.00272271572612226
1772043774050387000,2.518386962890625,-0.0011321045458316803,-0.00016860014875419438,0.0038118825759738684
1772043774060373000,2.528373046875,-0.0009877141565084457,0.00027436905656941235,0.0007222492713481188
1772043774070359000,2.538359130859375,-0.0005637388676404953,-0.0008846386917866766,-0.00026045716367661953
1772043774080345900,2.548345947265625,-0.0016483673825860023,-0.0022674319334328175,0.002452903427183628
1772043774090332000,2.558331787109375,-0.000093081034719944,-0.0006756603252142668,0.0007950856816023588
1772043774100318000,2.56831787109375,0.0001869024708867073,0.0012942624744027853,-0.00025266618467867374
1772043774110304000,2.578303955078125,-0.0008754320442676544,0.0016170375747606158,-0.00029287999495863914
1772043774120290000,2.5882900390625,0.0013356339186429977,-0.006334219593554735,0.0012072362005710602
1772043774130275800,2.59827587890625,-0.0018199458718299866,-0.0023804910015314817,0.005124745890498161
1772043774140262000,2.608261962890625,-0.0025379424914717674,-0.00113512366078794,0.001522289589047432
1772043774150248000,2.618248046875,-0.002078014425933361,0.00019166312995366752,0.0003094861749559641
1772043774160234000,2.62823388671875,-0.0009514456614851952,-0.0014717841986566782,0.0002002513501793146
1772043774170221000,2.638220947265625,-0.0031975554302334785,-0.003000172320753336,0.0010644469875842333
1772043774180207000,2.64820703125,-0.001155405305325985,-0.0017981999553740025,0.0013120669173076749
1772043774190193000,2.65819287109375,0.0019999071955680847,0.00030729518039152026,0.0001288244966417551
1772043774200179200,2.66817919921875,0.0004131169989705086,0.0014572154032066464,0.0004984473343938589
1772043774210165000,2.6781650390625,-0.0010803835466504097,-0.0004195142537355423,0.001272628316655755
1772043774220151000,2.688151123046875,0.00014127977192401886,0.0005277101881802082,0.0010822673793882132
1772043774230136800,2.69813671875,0.0020044278353452682,0.0025181567762047052,0.0002652097027748823
1772043774240123100,2.708123046875,-0.0001352718099951744,0.0028444011695683002,0.0009812540374696255
1772043774250110000,2.71810986328125,-0.002805890515446663,0.0006382385618053377,0.0005546156316995621
1772043774260096000,2.728095947265625,-0.00001671537756919861,-0.0006957686273381114,0.0014740756014361978
1772043774270082000,2.73808203125,0.0019292570650577545,-0.0020140332635492086,-0.00044632982462644577
1772043774280067800,2.74806787109375,0.0007779598236083984,0.0012834109365940094,-0.0001575422938913107
1772043774290054100,2.75805419921875,0.0009776968508958817,-0.00006148545071482658,-0.00023477408103644848
1772043774300040000,2.7680400390625,0.00032614823430776596,-0.002331892028450966,0.00024433527141809464
1772043774310026000,2.77802587890625,-0.0011883918195962906,-0.00039444240974262357,0.0011157214175909758
1772043774320012000,2.788011962890625,0.0013284729793667793,0.00002593899262137711,-0.0011430787853896618
1772043774329998800,2.797998779296875,0.00011060945689678192,-0.000024394772481173277,0.0006199339404702187
1772043774339985000,2.80798486328125,0.0026844264939427376,-0.0022208192385733128,-0.0013022029306739569
1772043774349971000,2.817970947265625,-0.000027470290660858154,-0.0010293208761140704,0.0013644204009324312
1772043774359957000,2.82795703125,0.001091189682483673,0.0008633024408482015,0.0011782122310250998
1772043774369942800,2.83794287109375,-0.0016321595758199692,0.0005517125828191638,-0.00001355237327516079
1772043774379929000,2.84792919921875,-0.002359766513109207,0.0009674818720668554,0.00045180250890553
1772043774389915000,2.857914794921875,-0.0019621560350060463,-0.0004985883133485913,-0.000749815721064806
1772043774399901000,2.86790087890625,0.00047488976269960403,0.002302172826603055,-0.0004634705837816
1772043774409888000,2.877887939453125,0.002087433822453022,0.0012755242642015219,0.001109392149373889
1772043774419874000,2.8878740234375,0.0015856251120567322,0.001569849788211286,-0.0010056975297629833
1772043774429859800,2.89785986328125,0.0018982794135808945,0.0004941990482620895,-0.00045362417586147785
1772043774439846100,2.90784619140625,0.0031368881464004517,0.0014401898952201009,-0.001630796818062663
1772043774449832000,2.91783203125,-0.0012259026989340782,-0.0018248456763103604,-0.0009271895978599787
1772043774459818000,2.92781787109375,-0.0013243136927485466,0.0007772304816171527,0.00017880205996334553
1772043774469804000,2.937803955078125,-0.001982913352549076,-0.0011833887547254562,0.0006419257260859013
1772043774479790000,2.9477900390625,0.001780305989086628,0.0010547154815867543,-0.0011822252999991179
1772043774489777200,2.957777099609375,-0.00010547786951065063,-0.0014177632983773947,-0.0015694492030888796
1772043774499763000,2.967762939453125,-0.001150607131421566,0.0010436472948640585,0.0008702506311237812
1772043774509749000,2.9777490234375,-0.0005213022232055664,0.0006489667575806379,-0.0007460217457264662
1772043774519735000,2.987735107421875,0.0006595645099878311,0.0021246958058327436,0.0034047355875372887
1772043774529721000,2.99772119140625,0.000007889233529567719,0.0015089730732142925,0.001957307569682598
1772043774539707000,3.007706787109375,-0.00019600987434387207,-0.0034232931211590767,-0.0018638975452631712
1772043774549693000,3.01769287109375,-0.0011523514986038208,-0.002286655828356743,0.000017093028873205185
1772043774559679000,3.027678955078125,0.0007559396326541901,0.0007948869606480002,-0.0006053741089999676
1772043774569665000,3.0376650390625,-0.001325054094195366,-0.0005401556845754385,0.0004188776947557926
1772043774579652000,3.047652099609375,0.0015636701136827469,-0.0005837516509927809,0.0007580255623906851
1772043774589638000,3.057637939453125,0.0009332997724413872,-0.0017696573631837964,-0.0028383072931319475
1772043774599624000,3.0676240234375,0.000029264017939567566,-0.0005938023095950484,-0.002438517287373543
1772043774609610000,3.07760986328125,0.0003219451755285263,0.002836615312844515,-0.00017243344336748123
1772043774619596000,3.087595947265625,0.0009107589721679688,-0.00032693351386114955,-0.00016315747052431107
1772043774629581800,3.097581787109375,0.0003325873985886574,-0.0009253458119928837,-0.003348564263433218
1772043774639568100,3.107568115234375,-0.000020215287804603577,-0.005325578153133392,-0.0033578339498490095
1772043774649554000,3.117553955078125,-0.0016029318794608116,-0.00084347790107131,-0.00009306473657488823
1772043774659541000,3.127541015625,0.0009486917406320572,0.0019059883197769523,-0.0010877898894250393
1772043774669527000,3.137527099609375,0.000821925699710846,0.0008670891402289271,-0.00010854541324079037
1772043774679513000,3.14751318359375,-0.00014170445501804352,-0.0011119063710793853,-0.0006795758381485939
1772043774689499000,3.157498779296875,-0.0007989723235368729,-0.002895691664889455,-0.0013301863800734282
1772043774699485200,3.167485107421875,-0.002341659739613533,-0.0017645227489992976,-0.0006503679323941469
1772043774709471000,3.177470947265625,0.0006903493776917458,-0.0008111109491437674,-0.001976888393983245
1772043774719457000,3.18745703125,-0.00012520793825387955,0.0025822799652814865,0.000940968981012702
1772043774729443000,3.197443115234375,-0.0017851563170552254,-0.001697153435088694,0.0006632013246417046
1772043774739429000,3.20742919921875,-0.0031665703281760216,-0.0007265490130521357,-0.001227743225172162
1772043774749416000,3.217416015625,-0.003046727739274502,-0.00561584671959281,-0.019049882888793945
1772043774759402000,3.227402099609375,-0.0009391801431775093,-0.00904942862689495,-0.001504526473581791
1772043774769388000,3.237387939453125,-0.0014297347515821457,-0.001200560131110251,0.0014326740056276321
1772043774779373800,3.247373779296875,-0.0004993965849280357,-0.00316074350848794,-0.0014660884626209736
1772043774789360000,3.257360107421875,0.00015547405928373337,-0.0019029326504096389,-0.00012598605826497078
1772043774799346000,3.267345947265625,-0.0003579128533601761,-0.0004245811724103987,-0.0025064991787075996
1772043774809332000,3.27733203125,-0.002777661196887493,-0.0007846405496820807,0.0004863613285124302
1772043774819318000,3.287318115234375,-0.0015319250524044037,0.00020394082821439952,0.0008894489146769047
1772043774829304800,3.297304931640625,-0.0009340448305010796,0.00015893339877948165,-0.0015771707985550165
1772043774839291100,3.307291015625,0.00017597153782844543,0.0006712235044687986,0.0005052813794463873
1772043774849277000,3.31727685546875,0.0020274007692933083,0.00043659901712089777,0.00012524845078587532
1772043774859263000,3.327262939453125,-0.0006168140098452568,0.0020149049814790487,-0.001204328378662467
1772043774869249000,3.3372490234375,-0.002421371638774872,-0.0009910049848258495,-0.0008538563270121813
1772043774879235000,3.347235107421875,-0.001661679707467556,-0.001061206217855215,-0.002479982329532504
1772043774889220900,3.357220947265625,0.00007177237421274185,-0.0017815913306549191,-0.00035185040906071663
1772043774899207000,3.36720703125,0.0011860430240631104,0.0010016437154263258,-0.00010091345757246017
1772043774909194000,3.377194091796875,-0.002034783363342285,-0.0005006453720852733,-0.0013059936463832855
1772043774919180000,3.387179931640625,-0.002491815946996212,0.0005467055598273873,-0.0012258661445230246
1772043774929166000,3.397166015625,-0.0003647487610578537,-0.0008956624660640955,0.00018241326324641705
1772043774939152100,3.407152099609375,-0.0009564254432916641,-0.001000019023194909,0.000119735486805439
1772043774949138000,3.417137939453125,0.0004276195541024208,0.0014029513113200665,-0.001201192382723093
1772043774959124000,3.4271240234375,0.0007305936887860298,0.00041873037116602063,-0.002389170927926898
1772043774969110000,3.437110107421875,0.0023599155247211456,0.0013782673049718142,-0.00031110644340515137
1772043774979095800,3.447095703125,0.0022409530356526375,0.00025739811826497316,-0.003313716733828187
1772043774989083100,3.457083251953125,-0.001207839697599411,-0.001462737680412829,0.00041497498750686646
1772043774999069000,3.46706884765625,-0.0001526474952697754,0.0009153306018561125,0.0002257979940623045
1772043775009055000,3.477054931640625,0.0007195379585027695,-0.0009049399523064494,-0.0010543835815042257
1772043775019041300,3.487041259765625,0.0005832770839333534,-0.00017234333790838718,-0.0006240908987820148
1772043775029027600,3.497027587890625,0.0003254832699894905,-0.00017340859631076455,-0.0012968054506927729
1772043775039013400,3.507013427734375,0.00308035034686327,0.003275457536801696,0.005247286520898342
1772043775048999400,3.51699951171875,0.003994346596300602,0.012816231697797775,0.010517150163650513
1772043775058985500,3.5269853515625,0.0005853744223713875,0.012698253616690636,0.00024320720694959164
1772043775068971500,3.536971435546875,-0.0003978647291660309,0.002430969150736928,0.0011050060857087374
1772043775078958300,3.546958251953125,0.0012964196503162384,0.0014866683632135391,0.0021684702951461077
1772043775088944400,3.5569443359375,0.001063925214111805,0.0006024988833814859,0.001357537810690701
1772043775098930400,3.566930419921875,-0.00003658607602119446,0.0005836028140038252,-0.00089803128503263
1772043775108916200,3.576916259765625,0.0029536113142967224,-0.000978873809799552,-0.0020583702716976404
1772043775118902500,3.586902587890625,-0.0017188750207424164,-0.002509795594960451,0.000015733065083622932
1772043775128888300,3.596888427734375,0.00025266222655773163,-0.0009901958983391523,-0.0004425968509167433
1772043775138874400,3.606874267578125,-0.0004038717597723007,-0.0018276490736752748,-0.0018383467104285955
1772043775148860400,3.6168603515625,0.001052078790962696,-0.000968246953561902,0.001090597826987505
1772043775158846500,3.626846435546875,0.001633177511394024,-0.000742104894015938,0.0011172746308147907
1772043775168833300,3.636833251953125,0.0004834914579987526,-0.0007085491088218987,-0.00034639867953956127
1772043775178819300,3.6468193359375,0.0012369267642498016,0.00013259283150546253,-0.0011233007535338402
1772043775188805400,3.656805419921875,0.0010654190555214882,0.0013150363229215145,0.0013917883625254035
1772043775198791200,3.666791259765625,-0.0016869008541107178,0.002056663390249014,-0.0003776499070227146
1772043775208777500,3.676777587890625,-0.0006274953484535217,0.00009418008266948164,-0.0005294501315802336
1772043775218763300,3.68676318359375,-0.0004972256720066071,0.00041201035492122173,-0.0009545495267957449
1772043775228749300,3.696749267578125,-0.00023863278329372406,-0.000298254715744406,0.0013613355113193393
1772043775238735400,3.7067353515625,0.0004181787371635437,0.0001902281364891678,-0.001230080844834447
1772043775248722400,3.716722412109375,-0.004040218889713287,0.0012517641298472881,-0.0011134345550090075
1772043775258708500,3.72670849609375,-0.0018591778352856636,0.0037960796616971493,-0.0011639604344964027
1772043775268694500,3.736694580078125,-0.002156652510166168,-0.0010580638190731406,0.0008912009652704
1772043775278680300,3.746680419921875,0.0005402946844696999,-0.001748527167364955,-0.00009162607602775097
1772043775288666400,3.756666259765625,-0.0016845101490616798,0.00011728331446647644,-0.001406162278726697
1772043775298652400,3.76665234375,-0.00032868608832359314,-0.0012945432681590319,0.0020111468620598316
1772043775308638200,3.77663818359375,-0.0003800857812166214,-0.0016165194101631641,-0.003577230265364051
1772043775318624300,3.786624267578125,-0.0018933312967419624,-0.0029160999692976475,0.0020879320800304413
1772043775328611300,3.796611328125,0.001022564247250557,-0.0015035592950880527,0.0008200011216104031
1772043775338597400,3.806597412109375,-0.000005003064870834351,0.0026146071031689644,0.0012219715863466263
1772043775348583400,3.81658349609375,-0.0029738955199718475,0.002999700140208006,-0.00032053119502961636
1772043775358569500,3.826569580078125,-0.002806450240314007,-0.0018201733473688364,0.0016240502009168267
1772043775368555300,3.83655517578125,-0.0015808632597327232,-0.00124706095084548,-0.0001299076247960329
1772043775378541600,3.84654150390625,-0.0010609161108732224,0.0020467694848775864,-0.0004394815769046545
1772043775388527400,3.85652734375,-0.001291012391448021,0.000923980725929141,0.0022761437576264143
1772043775398513400,3.866513427734375,-0.0017090952023863792,0.0005846766289323568,0.002473996952176094
1772043775408499500,3.87649951171875,-0.002943204715847969,-0.00154771632514894,0.0011591941583901644
1772043775418486300,3.886486328125,0.0010683061555027962,0.0003586319799069315,0.000626361696049571
1772043775428472300,3.896472412109375,-0.0013136249035596848,0.0016023281496018171,0.0017403620295226574
1772043775438458400,3.906458251953125,-0.00223536416888237,0.00012833179789595306,0.00010122056119143963
1772043775448444400,3.9164443359375,-0.0002172207459807396,-0.0006298702210187912,-0.00046363589353859425
1772043775458430200,3.92643017578125,-0.0027057984843850136,0.0004752052773255855,0.0019175305496901274
1772043775468416500,3.93641650390625,-0.0002386467531323433,0.0005292674759402871,0.0012980792671442032
1772043775478402300,3.94640234375,-0.00007642153650522232,0.0016490560956299305,0.00016763899475336075
1772043775488388400,3.956388427734375,-0.00021304190158843994,0.00045729149132966995,0.0006225069519132376
1772043775498375400,3.96637548828125,-0.0009757215157151222,-0.0009344897698611021,0.000935831805691123
1772043775508361200,3.976361328125,-0.0010968949645757675,-0.0016362325986847281,-0.00007297354750335217
1772043775518347300,3.98634716796875,-0.001627606339752674,0.00033347305725328624,0.00021346681751310825
1772043775528333300,3.996333251953125,0.001211589202284813,0.0017462800024077296,-0.0002469937317073345
1772043775538319400,4.0063193359375,-0.0031356830149888992,0.00014085639850236475,0.00003936793655157089
1772043775548305200,4.01630517578125,0.00006836652755737305,-0.0010810019448399544,-0.0006890066433697939
1772043775558291500,4.02629150390625,0.0005413312464952469,-0.0011247959919273853,-0.0005813594907522202
1772043775568277200,4.03627734375,0.0012356173247098923,-0.00034528871765360236,0.00152520090341568
1772043775578263300,4.04626318359375,0.002925499342381954,0.000208896046387963,-0.00009801751002669334
1772043775588250400,4.05625048828125,-0.0010492689907550812,-0.0014337417669594288,-0.001671679550781846
1772043775598236400,4.066236328125,0.00033215899020433426,-0.00047914142487570643,0.0002757266629487276
1772043775608222200,4.07622216796875,-0.000816994346678257,0.00029317528242245317,0.00033591408282518387
1772043775618208500,4.08620849609375,0.0003102375194430351,-0.0010083115193992853,0.00010475167073309422
1772043775628194300,4.0961943359375,0.0033225389197468758,-0.0006298763328231871,-0.0025770512875169516
1772043775638180400,4.106180419921875,-0.0012857411056756973,0.00002352768206037581,0.00015405542217195034
1772043775648166400,4.11616650390625,0.0012711593881249428,-0.00012960407184436917,-0.0007527510169893503
1772043775658152400,4.12615234375,0.0017273491248488426,-0.000179468683199957,0.00032973126508295536
1772043775668139500,4.136139404296875,0.003589964471757412,0.0030032750219106674,0.0014823473757132888
1772043775678125300,4.146125244140625,0.001008906401693821,-0.0004112189344596118,0.0010821078903973103
1772043775688111400,4.156111328125,0.0018717702478170395,-0.0012064388720318675,0.0003388195764273405
1772043775698097400,4.166097412109375,0.0020212912932038307,-0.0008663787157274783,-0.0003458671271800995
1772043775708083500,4.17608349609375,0.000057476572692394257,-0.00014572724467143416,-0.0006729033775627613
1772043775718069200,4.1860693359375,-0.0025949887931346893,0.0008158270502462983,0.001012732507660985
1772043775728055600,4.1960556640625,0.0010056057944893837,-0.0007237463723868132,-0.00042723887600004673
1772043775738041300,4.206041259765625,-0.0005470402538776398,0.003645949997007847,-0.000030921073630452156
1772043775748027400,4.21602734375,-0.0007523698732256889,0.001507964450865984,-0.00027326890267431736
1772043775758014500,4.226014404296875,0.0008069416508078575,-0.0011104594450443983,-0.0012577821034938097
1772043775768000300,4.236000244140625,0.0008663292974233627,0.00004402076592668891,-0.0012015893589705229
1772043775777986300,4.245986328125,-0.000040422193706035614,-0.0015666886465623975,-0.0016414676792919636
1772043775787972400,4.255972412109375,0.0017082085832953453,-0.0008614836260676384,0.0013647082960233092
1772043775797958400,4.26595849609375,0.00009894371032714844,-0.000055742100812494755,-0.0005308235995471478
1772043775807944200,4.275944091796875,-0.0011985478922724724,-0.001702108420431614,-0.0009249714203178883
1772043775817930500,4.285930419921875,0.0007018977776169777,0.0008305200608447194,0.0014194396790117025
1772043775827916300,4.295916259765625,-0.00016469508409500122,0.0010337192798033357,0.00043833116069436073
1772043775837903400,4.3059033203125,0.0012482311576604843,-0.0004974096082150936,-0.0023133857175707817
1772043775847889400,4.315889404296875,0.0020272061228752136,0.001473595853894949,-0.001658514142036438
1772043775857875500,4.32587548828125,0.002706587314605713,0.003098758403211832,0.00041035888716578484
1772043775867861200,4.335861328125,-0.0005736276507377625,-0.002386554377153516,-0.0015617120079696178
1772043775877847600,4.34584765625,0.0011633588001132011,0.0008220510208047926,-0.0004391076508909464
1772043775887833300,4.355833251953125,-0.00009125657379627228,-0.0005058010574430227,-0.0006463017780333757
1772043775897819400,4.3658193359375,0.00013551302254199982,-0.0011459036031737924,-0.00135785061866045
1772043775907805400,4.375805419921875,-0.0011236295104026794,0.0004922067746520042,-0.00005130353383719921
1772043775917791500,4.38579150390625,0.0023461850360035896,0.0014680282911285758,0.0005455398932099342
1772043775927778300,4.3957783203125,-0.0014837076887488365,-0.001071828417479992,-0.002676085801795125
1772043775937764400,4.405764404296875,-0.0008535310626029968,0.0010877004824578762,0.0010149478912353516
1772043775947750400,4.41575048828125,-0.002935590222477913,0.00036731548607349396,0.0000948258675634861
1772043775957736200,4.425736083984375,0.0007096277549862862,-0.0029496352653950453,0.001040315954014659
1772043775967722500,4.435722412109375,0.0004230719059705734,0.0016762755112722516,-0.0006039198487997055
1772043775977708300,4.445708251953125,0.0004051933065056801,0.0015996356960386038,0.000483641866594553
1772043775987694300,4.4556943359375,-0.0015516970306634903,0.0017799315974116325,-0.0006974702700972557
1772043775997680400,4.465680419921875,-0.0007669171318411827,0.0008377367630600929,0.00018659234046936035
1772043776007666400,4.47566650390625,-0.000924576073884964,-0.0012384636793285608,-0.0005590927321463823
1772043776017653000,4.485653076171875,0.00025520939379930496,0.0013090951833873987,-0.0012250980362296104
1772043776027639000,4.49563916015625,-0.00157997477799654,0.00022438967425841838,-0.00004931236617267132
1772043776037624800,4.505624755859375,-0.000756668858230114,0.002126929350197315,0.0012583101633936167
1772043776047611000,4.51561083984375,0.0002606585621833801,-0.0007074727909639478,0.00040796282701194286
1772043776057597000,4.525596923828125,0.0003284355625510216,-0.0024388013407588005,-0.00009717443026602268
1772043776067582700,4.535582763671875,-0.0011647986248135567,0.0010699133854359388,-0.0007997164502739906
1772043776077569000,4.545569091796875,-0.00021431408822536469,-0.0002164742909371853,0.0012937242863699794
1772043776087554800,4.555554931640625,-0.0014540152624249458,-0.000504095631185919,-0.002651215996593237
1772043776097540900,4.565540771484375,-0.0022071320563554764,0.0013723797164857388,0.0015940979355946183
1772043776107528000,4.57552783203125,-0.001832958310842514,-0.0003743876295629889,-0.0009686618577688932
1772043776117514000,4.585513916015625,-0.0005418611690402031,0.00040924971108324826,-0.0013175292406231165
1772043776127500000,4.5955,-0.003940320573747158,-0.0008887749863788486,-0.0024099580477923155
1772043776137486000,4.605486083984375,-0.0010583773255348206,0.0013467797543853521,-0.0022241328842937946
1772043776147472000,4.615471923828125,-0.0006666267290711403,-0.00165247218683362,-0.00035432749427855015
1772043776157458000,4.6254580078125,-0.003117823973298073,0.00007015455048531294,0.00007667066529393196
1772043776167444000,4.63544384765625,-0.0014379024505615234,-0.001009490923024714,-0.0011630305089056492
1772043776177430000,4.645429931640625,-0.000005278736352920532,0.0001686270406935364,-0.0007120813243091106
1772043776187415800,4.655415771484375,-0.0006130123510956764,-0.0014545696321874857,0.0014288339298218489
1772043776197403000,4.66540283203125,0.00040540751069784164,0.0012651544529944658,0.00030016410164535046
1772043776207389000,4.675388916015625,0.002973228693008423,0.0007983023533597589,-0.000023143598809838295
1772043776217375000,4.685375,0.0006492128595709801,0.0008877713698893785,0.0013834683923050761
1772043776227361000,4.695361083984375,-0.0022773342207074165,-0.0007482084911316633,0.001236994517967105
1772043776237346800,4.705346923828125,0.0016394900158047676,-0.0008288908284157515,0.0014432603493332863
1772043776247333000,4.7153330078125,-0.002912917174398899,-0.005013515707105398,-0.0005469198804348707
1772043776257319000,4.72531884765625,0.00045159272849559784,0.00016384123591706157,-0.0011733884457498789
1772043776267305000,4.735304931640625,-0.0005430979654192924,0.00011910012108273804,-0.0013619402889162302
1772043776277292000,4.7452919921875,0.0005587954074144363,0.0005581005243584514,-0.000019692350178956985
1772043776287277800,4.75527783203125,0.0011510830372571945,-0.0016880094772204757,0.001042109914124012
1772043776297263900,4.765263916015625,-0.0005127275362610817,0.0005339914932847023,0.0026211636140942574
1772043776307250000,4.77525,0.0006023375317454338,-0.0010042503708973527,-0.0006313552148640156
1772043776317236000,4.785236083984375,0.001622782088816166,-0.001913856016471982,0.0016743290470913053
1772043776327221800,4.7952216796875,0.002272326499223709,0.000879799947142601,0.0009403617586940527
1772043776337208000,4.8052080078125,-0.0007965350523591042,-0.0004831744881812483,0.0006176640745252371
1772043776347193900,4.81519384765625,0.00002078898251056671,-0.0010498951887711883,-0.0020436327904462814
1772043776357180000,4.825179931640625,0.0019569238647818565,0.0002019416424445808,-0.0010748673230409622
1772043776367167000,4.8351669921875,0.0014181658625602722,-0.000193271494936198,0.0007731001824140549
1772043776377153000,4.845153076171875,-0.00245492160320282,0.0012798842508345842,0.00035188510082662106
1772043776387138800,4.855138916015625,0.000510241836309433,-0.0012184272054582834,-0.0009378837421536446
1772043776397125000,4.865125,-0.0010542329400777817,0.0000043157488107681274,-0.004633301869034767
1772043776407111000,4.87511083984375,0.0004821447655558586,0.0036424598656594753,0.001584113808348775
1772043776417097000,4.885096923828125,0.004188156686723232,0.0007337319548241794,0.0003589231055229902
1772043776427083000,4.8950830078125,-0.0005890224128961563,0.0009489153744652867,-0.00146241276524961
1772043776437069000,4.905069091796875,0.002906655892729759,0.0012525777565315366,-0.0022521319333463907
1772043776447054800,4.915054931640625,0.002767106518149376,0.00030422606505453587,-0.0012430602218955755
1772043776457042000,4.9250419921875,-0.0003719162195920944,-0.0007936844485811889,-0.0012617181055247784
1772043776467028000,4.935028076171875,-0.0024965861812233925,-0.00016384682385250926,-0.0016188481822609901
1772043776477014000,4.945013916015625,-0.00022006593644618988,-0.0017412675078958273,-0.004458671435713768
1772043776487000000,4.955,0.0010356148704886436,-0.0021215667948126793,0.0012748485896736383
1772043776496985900,4.96498583984375,-0.0007474366575479507,-0.0026235615368932486,-0.001024342142045498
1772043776506972000,4.974971923828125,0.00025231484323740005,-0.0004967611748725176,0.0006539819296449423
1772043776516958000,4.9849580078125,-0.0017732055857777596,0.0017919250531122088,0.0005068301688879728
1772043776526944000,4.994944091796875,-0.0006813099607825279,0.00036260654451325536,-0.0008268808014690876
1772043776536929800,5.0049296875,0.0006279759109020233,0.00026491517201066017,-0.0007165009155869484
1772043776546916900,5.014916748046875,0.001294565387070179,0.0025552338920533657,0.00018497928977012634
1772043776556903000,5.02490283203125,0.00045801233500242233,-0.0021287272684276104,0.0005653016269207001
1772043776566889000,5.034888916015625,-0.0013587968423962593,0.0009325764840468764,0.0016843619523569942
1772043776576875000,5.044875,-0.00013527553528547287,-0.0008486962760798633,-0.003261878155171871
1772043776586860800,5.05486083984375,0.0008282558992505074,0.000032543670386075974,0.0001496311742812395
1772043776596847000,5.06484716796875,-0.0007890751585364342,-0.0009458644781261683,-0.0006688511930406094
1772043776606833000,5.0748330078125,-0.0009344834834337234,-0.00001722021261230111,0.0006832357030361891
1772043776616819000,5.08481884765625,0.00006084516644477844,-0.00076208112295717,0.0006926143541932106
1772043776626804700,5.0948046875,-0.001457955688238144,-0.0005929704057052732,0.00160687742754817
1772043776636792000,5.1047919921875,0.0007200837135314941,-0.0008796228794381022,-0.0032146479934453964
1772043776646777900,5.11477783203125,-0.0007973853498697281,-0.00022395269479602575,0.0010243055876344442
1772043776656764000,5.124763916015625,-0.00002559088170528412,0.0006870843353681266,0.0015244639944285154
1772043776666750000,5.13475,0.00011582300066947937,-0.0002460872638039291,0.0005236479919403791
1772043776676736000,5.144736083984375,0.00016702152788639069,-0.0007194358622655272,0.0004163763951510191
1772043776686722000,5.15472216796875,-0.000006882473826408386,0.0006749953026883304,0.0009609928820282221
1772043776696707800,5.164707763671875,-0.0010274043306708336,-0.0009942683391273022,-0.0020503646228462458
1772043776706694000,5.17469384765625,-0.0006835907697677612,-0.001318108756095171,0.0011611413210630417
1772043776716680000,5.184679931640625,-0.0009965486824512482,-0.0003226275439374149,-0.0006214252207428217
1772043776726667000,5.1946669921875,0.0008852407336235046,0.0003021500597242266,0.0012800719123333693
1772043776736652800,5.20465283203125,-0.0028835302218794823,-0.0010524995159357786,0.0008327641990035772
1772043776746639000,5.21463916015625,-0.00009360257536172867,-0.0001592752814758569,-0.001253822585567832
1772043776756625000,5.224625,0.0010940246284008026,0.0014439258957281709,0.001278009731322527
1772043776766611000,5.23461083984375,-0.0025619622319936752,0.0006489722873084247,-0.001204855041578412
1772043776776597000,5.244596923828125,-0.002462652511894703,-0.00008853583130985498,0.0006397983524948359
1772043776786583000,5.2545830078125,-0.0005779340863227844,-0.0023780553601682186,0.0007540478836745024
1772043776796568800,5.26456884765625,-0.0016939612105488777,0.0014279786264523864,0.0005355300381779671
1772043776806555100,5.27455517578125,-0.0021544210612773895,0.0016311778454110026,0.0015158394817262888
1772043776816542000,5.2845419921875,-0.0013925181701779366,-0.000007059832569211721,0.00008902349509298801
1772043776826527700,5.29452783203125,-0.0034239767119288445,0.001289366977289319,0.0028368730563670397
1772043776836514000,5.30451416015625,-0.0015712920576334,0.0004930534050799906,0.0004347895737737417
1772043776846499800,5.314499755859375,0.00047747790813446045,-0.0029083359986543655,0.002600205596536398
1772043776856486000,5.32448583984375,0.0018451856449246407,-0.0020225720945745707,0.0002405904233455658
1772043776866472000,5.334471923828125,0.0004313141107559204,-0.00245506945066154,0.001419838285073638
1772043776876458000,5.3444580078125,0.00226389616727829,-0.0014443553518503904,0.00004353467375040054
1772043776886443800,5.35444384765625,-0.001445886678993702,0.0008456967771053314,0.0010938853956758976
1772043776896430000,5.36443017578125,-0.0008878381922841072,-0.0013804406626150012,0.001649970654398203
1772043776906415900,5.374415771484375,-0.001414611004292965,0.0006539480527862906,-0.0008794998284429312
1772043776916402000,5.38440185546875,-0.001344616524875164,0.00013171590398997068,0.0005403719842433929
1772043776926389000,5.394388916015625,-0.001429571770131588,0.0005546258762478828,0.0010362525936216116
1772043776936374800,5.404374755859375,0.00016876496374607086,-0.001642095623537898,1.3737007975578308e-8
1772043776946361000,5.414361083984375,-0.001245107501745224,0.0005906986771151423,0.001104692928493023
1772043776956347000,5.424346923828125,0.0016586193814873695,0.0006367252790369093,-0.0017614634707570076
1772043776966333000,5.4343330078125,0.0011217258870601654,-0.0005883288104087114,0.0014790709828957915
1772043776976318700,5.444318603515625,-0.0003270227462053299,0.0009719537338241935,0.0016395440325140953
1772043776986305000,5.454304931640625,0.00026499852538108826,-0.00024750770535320044,-0.00018898234702646732
1772043776996290800,5.464290771484375,0.0006653182208538055,0.0013700813287869096,0.000383076723664999
1772043777006276900,5.47427685546875,0.00040459539741277695,0.001502440427429974,0.0011463386472314596
1772043777016264000,5.484263916015625,0.0009677233174443245,0.0005024296115152538,-0.0009341726545244455
1772043777026250500,5.49425048828125,-0.0007364330813288689,0.0025064582005143166,-0.0008702569175511599
1772043777036236500,5.504236572265625,0.0016699647530913353,-0.0028477541636675596,-0.00019451463595032692
1772043777046222300,5.514222412109375,0.001759447157382965,-0.002467188285663724,-0.0022488771937787533
1772043777056208400,5.52420849609375,-0.0013747159391641617,0.00033063068985939026,-0.0012622552458196878
1772043777066194400,5.5341943359375,0.0012415731325745583,0.0015234604943543673,0.0013327288907021284
1772043777076180500,5.544180419921875,0.0005587134510278702,-0.0007873306749388576,0.0013146607670933008
1772043777086166300,5.554166259765625,-0.0003800513222813606,-0.0002341921499464661,0.0017351738642901182
1772043777096152600,5.564152587890625,0.0021169958636164665,-0.0007910238346084952,0.000468746991828084
1772043777106139400,5.574139404296875,-0.0007874481379985809,-0.001111668418161571,0.0010003140196204185
1772043777116125700,5.584125732421875,0.0013400083407759666,-0.0008983553270809352,0.0015875569079071283
1772043777126111500,5.594111572265625,-0.0013215551152825356,0.0012015472166240215,-0.0014069012831896544
1772043777136097500,5.60409765625,-0.0012145694345235825,0.0003503136686049402,-0.0007725690957158804
1772043777146083600,5.61408349609375,-0.0011208262294530869,0.001804665895178914,0.0012807282619178295
1772043777156069600,5.624069580078125,0.0014623403549194336,-0.002005420159548521,0.0003266306594014168
1772043777166055400,5.634055419921875,0.0020692748948931694,0.0017874538898468018,-0.0012438353151082993
1772043777176041700,5.644041748046875,-0.0007359674200415611,-0.002066241344437003,-0.0015813414938747883
1772043777186027500,5.654027587890625,-0.0017072223126888275,0.0003726817376445979,-0.0023936056531965733
1772043777196014300,5.664014404296875,0.0013802014291286469,0.0008520509582012892,-0.0005161694716662169
1772043777206000600,5.674000732421875,0.0014598295092582703,-0.0008102941792458296,0.0012580284383147955
1772043777215986400,5.683986328125,-0.00007905811071395874,0.0007052812143228948,-0.0000023602042347192764
1772043777225972500,5.693972412109375,-0.002395741641521454,0.00001525619882158935,-0.0014708270318806171
1772043777235958500,5.70395849609375,-0.001450435258448124,0.0009368589380756021,-0.0017416763585060835
1772043777245944600,5.713944580078125,-0.0015202099457383156,-0.0027449610643088818,-0.0010990554001182318
1772043777255930400,5.723930419921875,-0.0008841343224048615,-0.0001337283756583929,0.0012751510366797447
1772043777265916700,5.733916748046875,-0.00030356552451848984,0.0006468441570177674,-0.0004630940966308117
1772043777275902500,5.74390234375,-0.00044510047882795334,0.0030874270014464855,-0.001080724410712719
1772043777285889300,5.75388916015625,-0.0006765294820070267,0.0006634178571403027,0.0005986648611724377
1772043777295875600,5.76387548828125,0.0008591776713728905,-0.000952640431933105,-0.0006068868096917868
1772043777305861400,5.773861328125,-0.002031683921813965,0.0007925290847197175,-0.00007505365647375584
1772043777315847400,5.783847412109375,-0.0004467051476240158,-0.0008922943379729986,-0.001840720186010003
1772043777325833500,5.79383349609375,-0.0015545794740319252,0.0006635243771597743,-0.0000737127847969532
1772043777335819500,5.803819580078125,-0.0007612928748130798,-0.001433963654562831,-0.0005409750156104565
1772043777345805300,5.813805419921875,0.0013362132012844086,-0.0016568703576922417,0.0001506477128714323
1772043777355791600,5.82379150390625,-0.0003698691725730896,-0.0017590336501598358,-0.0009875691030174494
1772043777365777400,5.83377734375,0.001323901116847992,-0.00044636157690547407,-0.0001710441429167986
1772043777375764500,5.843764404296875,0.002362106926739216,-0.00009487100760452449,0.00011976133100688457
1772043777385750500,5.85375048828125,0.0023519862443208694,-0.00039128083153627813,0.0012745079584419727
1772043777395736600,5.863736572265625,-0.0016580773517489433,0.0007067874539643526,-0.0008345623500645161
1772043777405722400,5.873722412109375,0.0012919064611196518,-0.0004237244138494134,-0.003453780896961689
1772043777415708400,5.88370849609375,-0.0019940994679927826,-0.0010109083959832788,-0.0005987079348415136
1772043777425694500,5.893694580078125,0.0001888936385512352,0.0028288373723626137,0.0016513968585059047
1772043777435680500,5.903680419921875,0.000426705926656723,0.00011675493442453444,-0.0003587696701288223
1772043777445666600,5.91366650390625,-0.0009988844394683838,-0.0010909885168075562,0.00001886649988591671
1772043777455652400,5.92365234375,0.00043102260679006577,-0.0005560067947953939,-0.0010447250679135323
1772043777465638400,5.933638427734375,-0.00028909649699926376,-0.0005797089543193579,-0.0006841332651674747
1772043777475625500,5.94362548828125,0.0006087962538003922,-0.0005982649745419621,0.002090101595968008
1772043777485611500,5.953611572265625,0.00019840337336063385,-0.0009173116413876414,-0.002288135467097163
1772043777495597600,5.96359765625,0.0005340995267033577,-0.00039367968565784395,0.00023049861192703247
1772043777505583600,5.97358349609375,-0.0017074840143322945,0.001309145474806428,-0.002430798253044486
1772043777515569400,5.9835693359375,-0.0001504393294453621,-0.0017032604664564133,-0.0028816822450608015
1772043777525555500,5.993555419921875,0.0021686414256691933,0.0011436587665230036,-0.0010880434419959784
1772043777535541500,6.00354150390625,0.0018409723415970802,-0.0011517814127728343,-0.00023229722864925861
1772043777545527600,6.013527587890625,0.00006437767297029495,-0.0019885466899722815,-0.00039661419577896595
1772043777555514600,6.0235146484375,0.000005932524800300598,-0.0009511063690297306,0.0012401125859469175
1772043777565500400,6.03350048828125,-0.00004706438630819321,-0.0005148806958459318,-0.0018132016994059086
1772043777575486500,6.043486572265625,0.0020794933661818504,-0.0006711765890941024,0.00044764159247279167
1772043777585472500,6.053472412109375,0.003017192706465721,0.00010114008910022676,0.0012801457196474075
1772043777595458600,6.06345849609375,-0.000845612958073616,0.0007136819767765701,-0.0009484044276177883
1772043777605444400,6.0734443359375,-0.0004197731614112854,-0.00028100868803448975,-0.00020378478802740574
1772043777615430700,6.0834306640625,-0.0024349279701709747,-0.00025264802388846874,-0.0004668724723160267
1772043777625416400,6.09341650390625,0.0004918863996863365,-0.0018774427007883787,0.0011840211227536201
1772043777635402500,6.103402587890625,0.0007298476994037628,0.0018232004949823022,-0.0005073274951428175
1772043777645388500,6.113388427734375,0.0001980150118470192,0.002615757053717971,-0.0009041386656463146
1772043777655375400,6.123375244140625,0.0010418081656098366,-0.000866499962285161,0.0010517535265535116
1772043777665361400,6.133361328125,0.0016988106071949005,0.0025082575157284737,0.003644607262685895
1772043777675347500,6.143347412109375,0.001559259369969368,-0.0019948568660765886,0.00005640927702188492
1772043777685333500,6.15333349609375,0.0005094418302178383,0.0005418039509095252,-0.000002979068085551262
1772043777695319300,6.1633193359375,0.00012715160846710205,-0.0004902430227957666,0.00015296414494514465
1772043777705305600,6.1733056640625,-0.00033410731703042984,0.0008165701292455196,-0.0010582415852695704
1772043777715291400,6.18329150390625,0.0002265237271785736,0.0019329558126628399,-0.0016846468206495047
1772043777725277400,6.19327734375,-0.0005748216062784195,0.0007662249263375998,-0.00002389959990978241
1772043777735263500,6.203263427734375,-0.00002513732761144638,0.0007875297451391816,-0.0002967230975627899
1772043777745250600,6.21325048828125,-0.0006400607526302338,0.0023614580277353525,-0.0018759777303785086
1772043777755236400,6.223236328125,0.0006055431440472603,0.0008466296130791306,-0.0031976308673620224
1772043777765222700,6.23322265625,0.0008747885003685951,-0.00033528124913573265,0.0006679475773125887
1772043777775208400,6.24320849609375,-0.0008726464584469795,0.0011803339002653956,0.0017441266681998968
1772043777785194500,6.253194580078125,0.0005002133548259735,0.0029494718182832003,0.0007124179974198341
1772043777795180500,6.2631806640625,0.00112936832010746,0.00007963072857819498,0.00011397106572985649
1772043777805166600,6.27316650390625,-0.00033856648951768875,0.0017808580305427313,-0.0014279994647949934
1772043777815152400,6.28315234375,0.00023185834288597107,0.0012396167730912566,0.00040040258318185806
1772043777825138700,6.293138671875,-0.0008666953071951866,-0.00020355021115392447,-0.0013383750338107347
1772043777835125500,6.30312548828125,0.001237018033862114,0.0005073482170701027,0.0017445551929995418
1772043777845111300,6.313111328125,0.00002421438694000244,0.0013169491430744529,0.0017610667273402214
1772043777855097600,6.32309765625,0.002477116882801056,-0.0009562189807184041,-0.0012073416728526354
1772043777865083400,6.33308349609375,-0.002937888726592064,0.0018800476100295782,-0.0014235905837267637
1772043777875069400,6.3430693359375,-0.0004523545503616333,0.0009966320358216763,-0.0005339281633496284
1772043777885055500,6.353055419921875,-0.0011461079120635986,-0.000245200062636286,0.0004413214046508074
1772043777895041500,6.36304150390625,-0.0016452837735414505,0.0028507711831480265,0.0016500375932082534
1772043777905027300,6.37302734375,-0.00035338476300239563,0.0019375734264031053,-0.00012016552500426769
1772043777915013600,6.383013671875,-0.0015018824487924576,-0.0002895286597777158,-0.0004806246142834425
1772043777924999400,6.39299951171875,0.0022505121305584908,0.00031207941356115043,-0.0007195102516561747
1772043777934986500,6.402986572265625,0.0002870718017220497,-0.0010532300220802426,0.0009530973620712757
1772043777944972500,6.41297265625,0.001226102001965046,0.001349473837763071,0.0016377960564568639
1772043777954958300,6.422958251953125,0.0008721137419342995,0.0006317092920653522,-0.00046427524648606777
1772043777964944600,6.432944580078125,0.0006374893710017204,-0.00040692350012250245,-0.0004903741646558046
1772043777974930400,6.442930419921875,-0.000786246731877327,0.0016418755985796452,0.0012602456845343113
1772043777984916500,6.45291650390625,-0.000947900116443634,-0.0008601642912253737,0.00043919309973716736
1772043777994902300,6.46290234375,-0.0016750162467360497,-0.0014553896617144346,-0.0004630591720342636
1772043778004888600,6.472888671875,0.0004882700741291046,0.0011688893428072333,-0.00002417038194835186
1772043778014874400,6.482874267578125,-0.0014371033757925034,-0.0016407734947279096,0.00149868696462363
1772043778024860700,6.492860595703125,0.000765862874686718,0.0016831179382279515,0.0005125184543430805
1772043778034846500,6.502846435546875,-0.002560429275035858,0.00010435393778607249,-0.001593559980392456
1772043778044832500,6.51283251953125,-0.0003145849332213402,0.0007464420632459223,0.000935910502448678
1772043778054818600,6.522818603515625,-0.0008578011766076088,-0.0016236447263509035,0.000923932995647192
1772043778064804600,6.5328046875,0.0002519376575946808,-0.0007298879791051149,0.0012360555119812489
1772043778074790400,6.542790283203125,0.0005697896704077721,0.0004310666408855468,0.0011943457648158073
1772043778084776700,6.552776611328125,-0.0011655259877443314,-0.0005114260711707175,0.003168547060340643
1772043778094762500,6.562762451171875,0.0004435926675796509,-0.0005999405984766781,0.0005453794728964567
1772043778104748500,6.57274853515625,-0.0005601523444056511,-0.0016454975120723248,0.00020662532187998295
1772043778114735600,6.582735595703125,-0.0005525946617126465,0.00046471794485114515,0.0006699690129607916
1772043778124721400,6.592721435546875,-0.00016617029905319214,-0.0017547603929415345,0.0001392010599374771
1772043778134707700,6.602707763671875,-0.0014663347974419594,-0.0008652613032609224,-0.00012195296585559845
1772043778144693500,6.612693603515625,0.0023417193442583084,-0.0013592776376754045,0.0024964669719338417
1772043778154679600,6.622679443359375,-0.0007426813244819641,-0.0015061816666275263,-0.0006194037850946188
1772043778164665300,6.632665283203125,0.00007091369479894638,0.0005468492163345218,0.0002796791959553957
1772043778174651600,6.642651611328125,0.00008051656186580658,-0.0018903372110798955,0.00008500111289322376
1772043778184637400,6.652637451171875,-0.00022627972066402435,-0.003212063806131482,0.0006408027838915586
1772043778194623500,6.66262353515625,0.0001476723700761795,-0.0016170127782970667,0.00037283822894096375
1772043778204610600,6.672610595703125,-0.00018469057977199554,0.00180062185972929,-0.0010298488195985556
1772043778214596600,6.6825966796875,0.0010209381580352783,0.0014175192918628454,0.0018341955728828907
1772043778224582700,6.692582763671875,0.0011056261137127876,0.00036077696131542325,0.00020806933753192425
1772043778234568700,6.702568603515625,0.000017715618014335632,0.0029612774960696697,0.0007991392631083727
1772043778244554500,6.712554443359375,-0.0022465046495199203,0.002878186758607626,0.0011533396318554878
1772043778254540800,6.722540771484375,0.00022407341748476028,0.0009992348495870829,0.0005496111698448658
1772043778264526600,6.732526611328125,0.0024504754692316055,-0.00006256747292354703,0.000892359996214509
1772043778274512600,6.7425126953125,-0.0007660286501049995,0.0003341091505717486,-0.001382874557748437
1772043778284498400,6.75249853515625,0.0003378521651029587,-0.002849966287612915,0.0036259987391531467
1772043778294484700,6.762484619140625,0.001094197854399681,0.00007399602327495813,0.0005292666610330343
1772043778304471600,6.772471435546875,0.0020470768213272095,-0.004219818394631147,-0.0024289728607982397
1772043778314457600,6.78245751953125,-0.0012274840846657753,-0.00017674046102911234,-0.0002653812989592552
1772043778324443600,6.792443603515625,0.0002692118287086487,-0.0014260292518883944,0.0008622012101113796
1772043778334429400,6.802429443359375,0.0008483463898301125,-0.000306825153529644,0.0006737506482750177
1772043778344415700,6.812415771484375,0.000008651986718177795,0.0019211755134165287,-0.0010999147780239582
1772043778354401500,6.822401611328125,-0.00012418441474437714,-0.0006184818921610713,-0.00015091500245034695
1772043778364387600,6.8323876953125,-0.00029755663126707077,0.0006987176020629704,-0.0003772836644202471
1772043778374373600,6.84237353515625,0.0007977718487381935,-0.0018684299429878592,0.0007185491267591715
1772043778384359700,6.852359619140625,0.0003437027335166931,-0.0012130261166021228,0.0008035041391849518
1772043778394346500,6.862346435546875,0.002456124871969223,0.0011340916389599442,0.0006883947644382715
1772043778404332500,6.87233251953125,0.00030908454209566116,0.003030528547242284,0.0008218190632760525
1772043778414318600,6.882318603515625,-0.0010051457211375237,-0.000025153771275654435,0.0005938936956226826
1772043778424304400,6.892304443359375,0.0010313736274838448,0.00004115895717404783,-0.0012082674074918032
1772043778434290700,6.902290771484375,0.0013200603425502777,0.0008912142366170883,0.0016309826169162989
1772043778444276500,6.9122763671875,-0.0010173963382840157,-0.0010507627157494426,-0.0017901139799505472
1772043778454262500,6.922262451171875,0.0011348165571689606,-0.0017420495860278606,-0.0025430743116885424
1772043778464248600,6.93224853515625,0.0004517156630754471,-0.0011114131193608046,-0.0003893761895596981
1772043778474234600,6.942234619140625,-0.0017614895477890968,-0.001676791813224554,0.0022690140176564455
1772043778484220400,6.952220458984375,-0.0006919633597135544,-0.0002453428751323372,-0.0017691373359411955
1772043778494207700,6.962207763671875,-0.0008213063701987267,0.0018272006418555975,-0.0001461915671825409
1772043778504193500,6.972193603515625,-0.00041730422526597977,-0.001932650338858366,0.0009851192589849234
1772043778514179600,6.9821796875,0.0011002225801348686,-0.0011824611574411392,-0.0014234003610908985
1772043778524165600,6.99216552734375,-0.0015829121693968773,-0.0012216095346957445,0.001231504837051034
1772043778534151700,7.002151611328125,-0.0008449424058198929,0.0002154620597139001,0.000298552680760622
1772043778544137500,7.012137451171875,0.0010147430002689362,0.0019273420330137014,0.0007414363790303469
1772043778554123500,7.02212353515625,-0.0014473889023065567,0.001247256645001471,-0.0002507672179490328
1772043778564109600,7.032109619140625,-0.0006292657926678658,-0.00002706589293666184,-0.0010414596181362867
1772043778574095400,7.042095458984375,-0.0007948456332087517,-0.0021745662670582533,-0.0010862457565963268
1772043778584082700,7.052082763671875,-0.00010961480438709259,-0.002469111932441592,0.0011713160201907158
1772043778594068500,7.062068359375,-0.000623190775513649,-0.0007342834724113345,-0.00021858373656868935
1772043778604054800,7.0720546875,0.00022103078663349152,-0.0006794222863391042,-0.0008825098630040884
1772043778614040600,7.08204052734375,-0.0005269823595881462,0.0016525794053450227,-0.0015011003706604242
1772043778624026600,7.092026611328125,-0.0005810447037220001,0.0004935716860927641,-0.0011977662798017263
1772043778634012400,7.102012451171875,0.0022059977054595947,0.0017700779717415571,0.0013116466579958797
1772043778643998700,7.111998779296875,-0.0005682175979018211,0.0038540014065802097,0.0005457215011119843
1772043778653984500,7.121984619140625,-0.00041088275611400604,-0.001199129968881607,0.00021691410802304745
1772043778663970600,7.131970458984375,-0.0015091700479388237,0.00020462214888539165,0.0013689976185560226
1772043778673956600,7.14195654296875,0.0014422396197915077,0.0018484372412785888,0.0013075425522401929
1772043778683943400,7.151943359375,-0.0013317093253135681,-0.0024064951576292515,-0.00035267206840217113
1772043778693929700,7.1619296875,0.00034916121512651443,0.0004428948450367898,-0.0012325849384069443
1772043778703915500,7.17191552734375,-0.0005390029400587082,0.00033184103085659444,-0.0022158240899443626
1772043778713901600,7.181901611328125,-0.0024606185033917427,0.0007984067779034376,-0.002410589950159192
1772043778723887600,7.1918876953125,-0.0002680383622646332,0.0001294206886086613,-0.00047154235653579235
1772043778733873700,7.201873779296875,-0.0006384514272212982,0.0007867534877732396,-0.0016799813602119684
1772043778743859500,7.211859375,-0.002123696729540825,0.0008389514405280352,-0.0015497526619583368
1772043778753845500,7.221845458984375,-0.0008211657404899597,0.0012739202938973904,-0.0001958003267645836
1772043778763831600,7.23183154296875,0.00032186321914196014,0.0022832583636045456,0.00021645682863891125
1772043778773818400,7.241818359375,0.0018764277920126915,0.001930097583681345,-0.0003082924522459507
1772043778783804700,7.2518046875,0.00041701551526784897,-0.002666518557816744,-0.0009322708938270807
1772043778793790500,7.26179052734375,-0.0004130536690354347,-0.0003002289158757776,-0.0002738058101385832
1772043778803776500,7.271776611328125,-0.0006769727915525436,-0.00026081412215717137,-0.0012892689555883408
1772043778813762600,7.281762451171875,-0.00203840434551239,0.00026203005108982325,-0.002422456629574299
1772043778823748600,7.29174853515625,0.00039785541594028473,-0.003047480247914791,0.0026439412031322718
1772043778833734400,7.301734375,0.0029352670535445213,0.000485638331156224,-0.0012314801570028067
1772043778843720700,7.311720703125,-0.0003172513097524643,-0.0029530352912843227,-0.00014118198305368423
1772043778853706500,7.32170654296875,0.0010960344225168228,-0.001685058930888772,-0.0007555435877293348
1772043778863692500,7.331692626953125,0.0007122727110981941,-0.0023511156905442476,-0.002355038421228528
1772043778873679600,7.3416796875,0.0001842239871621132,-0.0030908745247870684,0.00044093350879848003
1772043778883665700,7.351665771484375,0.0008201869204640388,0.00014779571210965514,-0.0018805437721312046
1772043778893651500,7.3616513671875,0.0009174216538667679,0.00012741901446133852,-0.00005830475129187107
1772043778903637800,7.3716376953125,-0.00035263970494270325,-0.000057404336985200644,-0.0008066531736403704
1772043778913623600,7.38162353515625,-0.0009385626763105392,0.0010571681195870042,0.002394479000940919
1772043778923609600,7.391609619140625,0.002372278831899166,0.0008853942854329944,-0.001359246438369155
1772043778933595600,7.401595703125,0.0019629839807748795,-0.00020680594025179744,-0.00019636540673673153
1772043778943581700,7.411581787109375,-0.0015494590625166893,-0.0007056160247884691,0.00012561073526740074
1772043778953567500,7.4215673828125,-0.0006479322910308838,0.0016288943588733673,0.002106343861669302
1772043778963553800,7.4315537109375,-0.0002476591616868973,0.0008762850775383413,-0.001153098652139306
1772043778973540600,7.44154052734375,0.0006438335403800011,0.0009821332059800625,0.0009051046799868345
1772043778983526400,7.4515263671875,0.0009314548224210739,-0.0010296186665073037,0.00044757360592484474
1772043778993512700,7.4615126953125,-0.00017532240599393845,0.0001499327627243474,-0.0022026733495295048
1772043779003498500,7.47149853515625,0.001369311474263668,-0.0009315770003013313,-0.00001009274274110794
1772043779013484500,7.481484619140625,0.0006000157445669174,0.0010528236161917448,-0.00018640770576894283
1772043779023471000,7.49147119140625,0.0002942848950624466,0.001142305787652731,0.0005747235845774412
1772043779033457200,7.50145703125,0.0009935582056641579,0.003376330016180873,0.005863661877810955
1772043779043443000,7.51144287109375,0.00046172458678483963,0.0013150433078408241,0.0033360556699335575
1772043779053429200,7.52142919921875,-0.001145828515291214,-0.0005445716087706387,-0.0003588087856769562
1772043779063416000,7.531416015625,0.0010406263172626495,0.0005286822561174631,0.0002561151050031185
1772043779073402000,7.541402099609375,-0.0006157513707876205,0.0016515811439603567,-0.0005458889063447714
1772043779083388200,7.55138818359375,0.0013749618083238602,-0.002055272925645113,0.0007374882698059082
1772043779093374000,7.5613740234375,-0.0016936259344220161,-0.0021762121468782425,0.0016702325083315372
1772043779103360300,7.5713603515625,-0.000411047600209713,-0.0023655628319829702,0.00014690449461340904
1772043779113346000,7.581345947265625,-0.0006998777389526367,-0.0006841322174295783,-0.0007752266246825457
1772043779123332000,7.59133203125,0.0008916277438402176,-0.0010324737522751093,-0.0003238206263631582
1772043779133318100,7.601318115234375,-0.0007122773677110672,-0.000776274420786649,-0.0011893457267433405
1772043779143304200,7.61130419921875,0.00028108246624469757,0.0004802049952559173,-0.0003720216918736696
1772043779153290000,7.6212900390625,0.0006231833249330521,-0.001771385781466961,-0.0003535796422511339
1772043779163277000,7.631277099609375,-0.0014090752229094505,0.0019461208721622825,-0.002111798617988825
1772043779173263000,7.64126318359375,0.001244381070137024,0.0011112438514828682,-0.0009468430653214455
1772043779183249000,7.651248779296875,-0.0003657666966319084,0.002410333603620529,0.00017514661885797977
1772043779193235200,7.661235107421875,-0.0008354587480425835,-0.0011807905975729227,-0.0021722116507589817
1772043779203221000,7.671220947265625,-0.0007797982543706894,0.00035532063338905573,0.00045366515405476093
1772043779213207000,7.68120703125,0.0010917335748672485,-0.0014775949530303478,-0.001036307541653514
1772043779223193000,7.691193115234375,-0.0017384076490998268,0.0009394899825565517,-0.00007064547389745712
1772043779233179100,7.70117919921875,-0.0016539357602596283,0.0014808933483436704,0.0005703284405171871
1772043779243165000,7.7111650390625,-0.0004768185317516327,0.0021392267663031816,-0.0005889455787837505
1772043779253152300,7.72115234375,-0.0014947708696126938,0.0024697475600987673,-0.0015842658467590809
1772043779263138000,7.731137939453125,0.0012986194342374802,0.0008169896900653839,0.0015979453455656767
1772043779273124000,7.7411240234375,-0.000933556817471981,0.001868892228230834,-0.0004694515373557806
1772043779283110100,7.751110107421875,-0.000662713311612606,-0.00032155774533748627,-0.00035839760676026344
1772043779293096200,7.76109619140625,0.00006495602428913116,0.0003322644915897399,0.0006818498950451612
1772043779303082000,7.77108203125,0.0014820238575339317,-0.001686145318672061,0.00039502745494246483
1772043779313068000,7.781068115234375,0.0000806143507361412,-0.002834080019965768,0.0010942691005766392
1772043779323054000,7.79105419921875,0.0013802368193864822,0.0005974030937068164,-0.000727599486708641
1772043779333039900,7.801039794921875,-0.0008082510903477669,-0.0012058946304023266,0.0006357950624078512
1772043779343026200,7.811026123046875,-0.001314784400165081,0.00007055854075588286,0.0008568374905735254
1772043779353013000,7.821012939453125,0.0048900870606303215,-0.0007890100823715329,0.0006569514516741037
1772043779362999000,7.8309990234375,-0.00025753770023584366,0.000959887751378119,-0.002367866924032569
1772043779372985000,7.840985107421875,-0.0008372291922569275,0.0020899020601063967,0.0024381657131016254
1772043779382971100,7.85097119140625,0.0025505786761641502,0.00044699799036607146,0.00033213780261576176
1772043779392957000,7.86095703125,-0.0006524864584207535,-0.0011395600158721209,0.00009826314635574818
1772043779402943200,7.870943115234375,0.0000037169083952903748,0.0011757921893149614,-0.0005840386729687452
1772043779412929000,7.880928955078125,-0.0014964612200856209,-0.002199313836172223,-0.0010060169734060764
1772043779422915000,7.8909150390625,0.00039038900285959244,0.0008779687923379242,0.00019453582353889942
1772043779432901000,7.900901123046875,-0.00048197899013757706,-0.001545746112242341,0.0013982070377096534
1772043779442887200,7.91088720703125,-0.0009275255724787712,-0.001536957686766982,-0.0009640168864279985
1772043779452874200,7.920874267578125,0.0022105369716882706,0.0007044985541142523,-0.0005424979608505964
1772043779462860000,7.930860107421875,0.0007042530924081802,0.0012605665251612663,0.00006683333776891232
1772043779472846000,7.94084619140625,0.0010798964649438858,0.001201067352667451,0.0012915502302348614
1772043779482832000,7.950831787109375,-0.00014995131641626358,-0.0034821012523025274,-0.0007910416461527348
1772043779492818200,7.960818115234375,0.0013377983123064041,-0.0010901216883212328,0.0011068489402532578
1772043779502804000,7.970803955078125,-0.0007357383146882057,-0.001408635638654232,0.0001374583225697279
1772043779512790000,7.9807900390625,0.0006540464237332344,0.001231600297614932,-0.0006806440651416779
1772043779522776000,7.990776123046875,0.000729680061340332,-0.0008648401126265526,-0.001397833228111267
1772043779532762000,8.00076220703125,-0.0006728135049343109,0.0006874181563034654,0.0005993512459099293
1772043779542748000,8.010747802734375,0.0021991394460201263,0.0015851696953177452,-0.00022196746431291103
1772043779552735000,8.02073486328125,0.0016676578670740128,0.0003746575384866446,0.0007029182743281126
1772043779562721000,8.030720947265625,0.0007880162447690964,0.0017648276407271624,0.0017119899857789278
1772043779572707000,8.04070703125,0.001384439878165722,0.0016431908588856459,-0.00014885165728628635
1772043779582693000,8.050693115234376,0.0011000148952007294,0.0017206888878718019,-0.00007002218626439571
1772043779592679000,8.060678955078124,0.001377137377858162,0.0006723522674292326,-0.0000018295831978321075
1772043779602665200,8.070665283203125,0.001112685538828373,0.002702479949221015,-0.000813561026006937
1772043779612651000,8.080651123046875,0.0008778730407357216,0.000043046718928962946,0.000921834958717227
1772043779622637000,8.090636962890626,0.0011572381481528282,-0.0014869393780827522,0.0018094666302204132
1772043779632622800,8.100622802734375,-0.0005880622193217278,0.0008267129305750132,0.0014605027390643954
1772043779642610200,8.110610107421875,-0.00010922551155090332,0.0023212789092212915,0.0013979184441268444
1772043779652596000,8.120595947265626,0.0016335109248757362,0.00012425181921571493,0.0024583511985838413
1772043779662582300,8.130582275390625,-0.0011979620903730392,-0.0009916126728057861,-0.0005526186432689428
1772043779672568000,8.140568115234375,-0.0007495647296309471,0.0013348418287932873,0.0009646699763834476
1772043779682554000,8.15055419921875,0.0006336811929941177,-0.0020779988262802362,0.001955099403858185
1772043779692540200,8.1605400390625,-0.0019051330164074898,-0.0022507819812744856,0.0005722155328840017
1772043779702526200,8.170526123046875,-0.0025067413225769997,0.001481904648244381,0.0024998115841299295
1772043779712512000,8.180511962890625,0.0021260175853967667,-0.00009029876673594117,0.0011596782132983208
1772043779722498300,8.190498291015626,-0.0005342140793800354,-0.0008905787253752351,-0.0002973373048007488
1772043779732484000,8.200484130859374,0.0015999609604477882,-0.0022003240883350372,0.00015329872258007526
1772043779742470100,8.21047021484375,0.0014399047940969467,0.0005890708416700363,0.000351704191416502
1772043779752457200,8.220457275390626,-0.0006649075075984001,0.000738218950573355,0.00003740447573363781
1772043779762443000,8.230443115234374,-0.0008494649082422256,-0.0007424985524266958,0.0008667130023241043
1772043779772429000,8.240428955078125,0.0014165714383125305,-0.001168019836768508,-0.0011027669534087181
1772043779782415000,8.2504150390625,0.00045463815331459045,0.0008128393674269319,0.0006509243976324797
1772043779792401200,8.260401123046876,-0.0018650097772479057,0.0008350571151822805,0.00039286655373871326
1772043779802387000,8.270386962890624,-0.0019193384796380997,-0.0018289029831066728,0.0005601132288575172
1772043779812373200,8.280373291015625,-0.0019215429201722145,-0.0007765915361233056,-0.0013477320317178965
1772043779822359000,8.290359130859375,0.0006143189966678619,0.0002641717728693038,0.00009783171117305756
1772043779832345000,8.300344970703126,-0.0023914510384202003,-0.0029426205437630415,0.0007029161788523197
1772043779842331100,8.3103310546875,0.0019993018358945847,-0.00035269648651592433,0.00043233903124928474
1772043779852318000,8.32031787109375,-0.0006978707388043404,0.002805215772241354,0.00040100421756505966
1772043779862304000,8.330303955078126,-0.0014068037271499634,-0.0013439891627058387,-0.0023697486612945795
1772043779872290000,8.3402900390625,-0.00024955905973911285,-0.00015184935182332993,0.00011270376853644848
1772043779882276000,8.350276123046875,-0.002598200924694538,0.0020479215309023857,-0.00018557021394371986
1772043779892262000,8.360261962890625,-0.0012557916343212128,-0.00108599872328341,0.0008524577133357525
1772043779902248200,8.370248291015624,-0.0017900215461850166,0.0008381351362913847,0.0014029331505298615
1772043779912234000,8.38023388671875,0.00011366046965122223,-0.0021901726722717285,0.00032387953251600266
1772043779922220000,8.390219970703125,-0.0003398759290575981,-0.0011086631566286087,-0.0007656195666640997
1772043779932206000,8.4002060546875,-0.001629948616027832,0.001195320044644177,-0.0005082790739834309
1772043779942192000,8.410192138671874,-0.0004578912630677223,-0.0004132292524445802,0.000719704432412982
1772043779952179000,8.420178955078125,0.0010756198316812515,0.0023512968327850103,0.0006712996400892735
1772043779962165000,8.4301650390625,0.001808255910873413,0.0004450061242096126,-0.00036946358159184456
1772043779972151000,8.440151123046874,-0.0001889290288090706,-0.0002062772400677204,-0.0018302914686501026
1772043779982137000,8.45013720703125,0.003320584073662758,0.000430218264227733,-0.0004244085866957903
1772043779992123100,8.460123046875,0.000024294480681419373,-0.0010233186185359955,0.001184883527457714
1772043780002109000,8.47010888671875,-0.0017024986445903778,-0.0015596792800351977,0.0000365283340215683
1772043780012095000,8.480094970703124,-0.00011134985834360123,0.002663349499925971,0.0007267568726092577
1772043780022081000,8.4900810546875,0.00008891988545656204,0.0006747669540345669,-0.002296996070072055
1772043780032066800,8.50006689453125,0.0017692502588033676,-0.0019189405720680952,0.0015269176801666617
1772043780042052900,8.510052978515626,-0.0011058980599045753,-0.0006307695293799043,-0.0009436965920031071
1772043780052040000,8.5200400390625,-0.0002525579184293747,-0.003334370441734791,-0.0006842147558927536
1772043780062025700,8.530025634765625,-0.0000754576176404953,0.002064123284071684,0.00040848017670214176
1772043780072011800,8.54001171875,0.0005687009543180466,0.0017498775850981474,0.0008639006409794092
1772043780081997800,8.549997802734374,0.0016414225101470947,0.0010209704050794244,0.0002313998993486166
1772043780091984000,8.55998388671875,0.00028497353196144104,0.00011372350854799151,0.0002956131938844919
1772043780101969700,8.5699697265625,0.000017325393855571747,-0.001482575200498104,0.0019049615366384387
1772043780111956000,8.5799560546875,-0.0024538571015000343,0.000899283797480166,0.0006280418019741774
1772043780121941800,8.589941650390625,0.0028128093108534813,0.0005538718542084098,-0.0011639990843832493
1772043780131927800,8.599927734375,-0.00004801340401172638,-0.0015935840783640742,-0.000850828131660819
1772043780141913900,8.609913818359376,-0.0016056960448622704,0.002087703440338373,-0.0012236705515533686
1772043780151900700,8.619900634765624,0.002540629357099533,-0.00026504683773964643,-0.0007390766404569149
1772043780161887000,8.629886962890625,0.002727850340306759,0.0013770582154393196,-0.0013827625662088394
1772043780171872800,8.639872802734375,0.001551738940179348,-0.0008479692623950541,-0.00045539578422904015
1772043780181858800,8.64985888671875,0.0013674478977918625,0.0015779042150825262,0.00011638505384325981
1772043780191844600,8.6598447265625,0.0007198024541139603,0.0012467526830732822,0.0017404742538928986
1772043780201831000,8.669830810546875,0.0003821142017841339,0.0018717965576797724,0.0009883975144475698
1772043780211816700,8.679816650390626,0.0014226967468857765,0.001385785872116685,0.0014710271498188376
1772043780221802800,8.689802734375,0.0013944664970040321,0.0017272031400352716,-0.001490674214437604
1772043780231788800,8.699788818359375,0.0008474672213196754,-0.000038753263652324677,-0.0010531330481171608
1772043780241774800,8.70977490234375,-0.0000867694616317749,-0.00025180616648867726,-0.00011356966570019722
1772043780251760600,8.7197607421875,-0.0017962204292416573,-0.0010210680775344372,-0.0019442173652350903
1772043780261747700,8.729747802734375,-0.002129914239048958,0.0014191865921020508,-0.0006019843276590109
1772043780271733800,8.739733642578125,0.0011465996503829956,0.00014186189218889922,0.0024939854629337788
1772043780281719800,8.7497197265625,0.0011173048987984657,0.0009836871176958084,0.0006074022967368364
1772043780291705900,8.759705810546874,0.00016381684690713882,0.0006355425575748086,0.0007133402395993471
1772043780301691600,8.769691650390625,-0.0006692195311188698,0.00008240403258241713,0.0005389030557125807
1772043780311678000,8.779677978515625,0.0008670492097735405,0.0004171180189587176,-0.0011709355749189854
1772043780321663700,8.789663818359376,-0.0011958349496126175,-0.0008974182419478893,-0.000014324439689517021
1772043780331649800,8.79964990234375,0.00008331052958965302,-0.0011148329358547926,-0.0019059551414102316
1772043780341635600,8.809635498046875,-0.0016618594527244568,0.002272707875818014,0.00034521473571658134
1772043780351622000,8.819621826171876,-0.0015260009095072746,0.00023684634652454406,0.000546514755114913
1772043780361608700,8.829608642578124,0.00011104438453912735,0.0009958472801372409,-0.0003307303413748741
1772043780371595000,8.839594970703125,0.0006587561219930649,0.00025633058976382017,-0.001129251904785633
1772043780381580800,8.849580810546875,-0.000020616687834262848,-0.000127963547129184,-0.0029101078398525715
1772043780391566800,8.85956689453125,0.0003053378313779831,0.0004556057683657855,0.0016302091535180807
1772043780401553000,8.869552978515625,-0.0005913488566875458,0.0002617276331875473,0.0023902752436697483
1772043780411539000,8.8795390625,-0.0016213944181799889,-0.0012210933491587639,0.001900130300782621
1772043780421524700,8.889524658203126,-0.00004533492028713226,0.00009956823487300426,0.0005235422868281603
1772043780431511000,8.899510986328124,-0.0011207005009055138,0.002853997051715851,-0.00024244305677711964
1772043780441496800,8.909496826171875,-0.0005718227475881577,0.00031014560954645276,0.000019345665350556374
1772043780451483000,8.91948291015625,0.0005744472146034241,-0.0005586639745160937,-0.0006297044456005096
1772043780461470000,8.929469970703124,-0.0007211798802018166,0.0015478964196518064,-0.0008696550503373146
1772043780471455700,8.939455810546875,0.00013631954789161682,0.00048623490147292614,-0.003467007540166378
1772043780481441800,8.94944189453125,-0.002523379400372505,-0.0004567904397845268,-0.00014657829888164997
1772043780491427800,8.959427734375,-0.0015005487948656082,-0.0014727103989571333,-0.0015827897004783154
1772043780501414000,8.969413818359374,0.0009277220815420151,0.00037925189826637506,-0.0007020821794867516
1772043780511399700,8.979399658203125,0.0004217904061079025,-0.0021047082263976336,-0.0006055880803614855
1772043780521386000,8.989385986328125,-0.0017494847998023033,-0.0005664665950462222,0.0010482349898666143
1772043780531371800,8.999371826171876,-0.00012276973575353622,0.002397295320406556,-0.0029878129716962576
1772043780541357800,9.00935791015625,0.0002277018502354622,-0.00009036343544721603,0.00009186659008264542
1772043780551343900,9.01934375,-0.0016795266419649124,-0.0022866756189614534,0.0014210777590051293
1772043780561330000,9.029329833984375,0.0008225133642554283,-0.000604356755502522,0.0012317269574850798
1772043780571316700,9.039316650390624,0.0010449942201375961,-0.0005803253734484315,-0.0008695267606526613
1772043780581302800,9.049302734375,-0.001745997928082943,0.00011582488514250144,0.0006042665336281061
1772043780591288800,9.059288818359375,-0.00007201544940471649,0.0011007790453732014,-0.0014034546911716461
1772043780601274600,9.069274658203126,-0.00005949847400188446,-0.0008222894975915551,0.00013052602298557758
1772043780611261000,9.079260986328125,0.0010763071477413177,0.00026457064086571336,-0.0008537077810615301
1772043780621246700,9.089246826171875,0.00016177818179130554,0.0005756278405897319,-0.0007024400401860476
1772043780631232800,9.099232666015626,0.00013950467109680176,0.0000034864642657339573,-0.000564618268981576
1772043780641218800,9.10921875,0.0008151484653353691,0.0017406664555892348,0.0007142317481338978
1772043780651204900,9.119204833984375,0.0001444658264517784,0.0010100190993398428,0.00021915812976658344
1772043780661190700,9.129190673828125,0.00022702384740114212,-0.0006472660461440682,0.0006292848847806454
1772043780671178000,9.139177978515624,-0.002330787479877472,0.0002985300961881876,-0.00045357272028923035
1772043780681163800,9.149163818359375,0.0034778332337737083,-0.0019992452580481768,0.0013195599894970655
1772043780691149800,9.15914990234375,0.00021964125335216522,0.0002536951215006411,-0.0023397065233439207
1772043780701136000,9.169135986328126,-0.003371630795300007,-0.0007095702458173037,-0.0012874912936240435
1772043780711122000,9.179121826171874,0.0030390815809369087,0.0014050794998183846,-0.0016631018370389938
1772043780721107700,9.189107666015625,-0.001333562657237053,-0.0024948534555733204,0.0009244256652891636
1772043780731093800,9.19909375,0.0009863199666142464,-0.0010335341794416308,0.002694465219974518
1772043780741079800,9.209079833984376,-0.0016198493540287018,0.002372382441535592,0.00015620654448866844
1772043780751065900,9.21906591796875,0.0006954735144972801,0.0021318562794476748,-0.000332157826051116
1772043780761052000,9.229052001953125,-0.0028230948373675346,-0.0001829633256420493,0.0008340405765920877
1772043780771037700,9.23903759765625,0.00319000706076622,-0.0017997464165091515,-0.0003419958520680666
1772043780781025000,9.24902490234375,0.0011510904878377914,0.000852229364681989,-0.0005047149024903774
1772043780791010800,9.2590107421875,-0.0027342550456523895,-0.00009055610280483961,-0.00024156272411346436
1772043780800996900,9.268996826171875,0.00003223679959774017,0.0012921571033075452,0.00046497397124767303
1772043780810982700,9.278982666015626,0.00009011663496494293,0.0008368255803361535,-0.00005024857819080353
1772043780820969000,9.288968994140625,-0.0006409203633666039,-0.0009656018810346723,3.5134144127368927e-7
1772043780830954800,9.298954833984375,-0.0002554692327976227,-0.00027602893533185124,0.0006691648159176111
1772043780840940800,9.30894091796875,0.00046171993017196655,0.00011545574670890346,0.00019964948296546936
1772043780850926800,9.3189267578125,-0.000660979188978672,0.001868884195573628,0.002176648238673806
1772043780860913000,9.328912841796875,-0.0006300872191786766,-0.0018928307108581066,-0.0003536210861057043
1772043780870898700,9.338898681640625,-0.00039901304990053177,-0.00048555884859524667,-0.0006672472227364779
1772043780880885800,9.3488857421875,0.0008665211498737335,0.0006750468164682388,-0.0007713770028203726
1772043780890871800,9.358871826171875,-0.0004635276272892952,0.0006881118169985712,0.0005991419311612844
1772043780900857900,9.36885791015625,-0.000269915908575058,-0.0004245568998157978,0.0013610722962766886
1772043780910844000,9.378843994140626,0.0011588679626584053,0.00067155621945858,-0.0010302709415555
1772043780920829700,9.38882958984375,0.0005591241642832756,0.0008593090460635722,0.0013591169845312834
1772043780930816000,9.39881591796875,-0.00041194260120391846,-0.0008617488201707602,0.0010899347253143787
1772043780940801800,9.4088017578125,0.0016450835391879082,0.0006466655759140849,-0.00032233959063887596
1772043780950787800,9.418787841796876,-0.0006811683997511864,-0.00034255627542734146,0.0003215803299099207
1772043780960773600,9.428773681640624,0.0006498787552118301,0.0002683728816919029,0.0013221298577263951
1772043780970760000,9.438760009765625,-0.00010666064918041229,0.0024010948836803436,-0.0002645128406584263
1772043780980745700,9.448745849609375,-0.0015594149008393288,-0.0030075188260525465,0.0005107333417981863
1772043780990732800,9.45873291015625,-0.00008637923747301102,0.0003660834045149386,0.0020801182836294174
1772043781000718800,9.46871875,-0.0002826545387506485,0.0027586673386394978,0.0035150295589119196
1772043781010704600,9.47870458984375,-0.0004182746633887291,0.0006453689420595765,0.0024953382089734077
1772043781020691000,9.48869091796875,0.0008773533627390862,-0.0021632006391882896,-0.00024558696895837784
1772043781030676500,9.498676513671874,0.00036001112312078476,-0.00041622345452196896,0.0009426847100257874
1772043781040662300,9.508662353515625,0.0009163450449705124,0.0010205520084127784,0.00031817355193197727
1772043781050648300,9.5186484375,0.00018016528338193893,-0.002396083204075694,0.00019403058104217052
1772043781060634400,9.52863427734375,0.0007447553798556328,0.0006782698910683393,-0.0002070413902401924
1772043781070620400,9.538620361328125,-0.00158032588660717,-0.0008966252207756042,-0.002317907987162471
1772043781080606200,9.548606201171875,-0.00003462750464677811,-0.00040314148645848036,0.0032973671332001686
1772043781090592500,9.558592529296876,-0.0022051064297556877,0.001441829837858677,0.0004867070820182562
1772043781100579300,9.568579345703125,0.0011613955721259117,0.0003107854281552136,0.0012403816217556596
1772043781110565400,9.5785654296875,-0.0023355633020401,-0.000255158229265362,-0.0004350682720541954
1772043781120551400,9.588551513671876,0.00001467578113079071,0.00008972114301286638,0.0005913141649216413
1772043781130537200,9.598537109375,0.00022497959434986115,0.0025243256241083145,0.000021359883248806
1772043781140523500,9.6085234375,0.0010830499231815338,0.000951995374634862,-0.0001472181174904108
1772043781150509300,9.61850927734375,0.00204357597976923,-0.0020614725071936846,-0.0006992190610617399
1772043781160495400,9.628495361328126,0.0006528729572892189,-0.0001730250078253448,-0.00212028156965971
1772043781170481200,9.638481201171874,-0.0004813428968191147,0.0009711312013678253,0.0012327436124905944
1772043781180467500,9.648467529296875,-0.0025599393993616104,-0.0010123911779373884,-0.0013145699631422758
1772043781190453200,9.658453369140625,0.0005926452577114105,-0.0013477723114192486,-0.001384152565151453
1772043781200440300,9.6684404296875,0.0005708066746592522,-0.000623392581474036,-0.0011258255690336227
1772043781210426400,9.67842626953125,-0.002257497049868107,-0.0035412623547017574,0.0006668202113360167
1772043781220412200,9.688412109375,-0.0010737217962741852,0.000626052264124155,0.001167494454421103
1772043781230398500,9.6983984375,0.002150176092982292,0.0006701016100123525,-0.00032610492780804634
1772043781240384300,9.70838427734375,-0.0027412520721554756,-0.00013550461153499782,-0.0012675323523581028
1772043781250370300,9.718370361328125,0.00020401645451784134,0.0025279216933995485,0.0014374485472217202
1772043781260356400,9.7283564453125,0.0004237266257405281,0.00026370215346105397,0.0002757776528596878
1772043781270342400,9.73834228515625,-0.0026129046455025673,-0.000020253195543773472,0.00016415352001786232
1772043781280329200,9.7483291015625,-0.0024520494043827057,0.0007965383119881153,0.0013407380320131779
1772043781290315300,9.758315185546875,0.00017028115689754486,0.0013345570769160986,0.0006304429844021797
1772043781300301300,9.76830126953125,-0.001933349296450615,-0.0002513553772587329,-0.0013514813035726547
1772043781310287400,9.778287353515625,0.0017968639731407166,-0.0012111476389691234,-0.0017915759235620499
1772043781320273400,9.7882734375,0.0004807300865650177,-0.00019621691899374127,-0.0013465620577335358
1772043781330259200,9.79825927734375,-0.00033593177795410156,-0.001741682761348784,0.00123610720038414
1772043781340245200,9.808245361328124,0.0006616879254579544,0.00023651331139262766,0.0006366295274347067
1772043781350231300,9.818231201171875,0.0018130727112293243,-0.0028272238560020924,0.0010856902226805687
1772043781360217300,9.82821728515625,-0.0002125278115272522,0.00021170936815906316,0.000041198451071977615
1772043781370203100,9.838203125,-0.0012553352862596512,0.0010393899865448475,-0.0003486047498881817
1772043781380189400,9.848189453125,0.0013737380504608154,-0.000616297242231667,-0.00048309448175132275
1772043781390176300,9.85817626953125,0.0008609341457486153,0.00118030677549541,0.0008184672333300114
1772043781400162300,9.868162353515626,0.0007615983486175537,-0.0013164067640900612,0.001744980807416141
1772043781410148400,9.8781484375,0.00007011089473962784,0.00012406555470079184,0.0005252643022686243
1772043781420134400,9.888134521484375,-0.0002641156315803528,0.0005198112921789289,0.0013540401123464108
1772043781430120200,9.8981201171875,0.0013700835406780243,-0.0007282100850716233,-0.0016158055514097214
1772043781440106500,9.9081064453125,0.0014236131682991982,-0.00021528522484004498,-0.0023734751157462597
1772043781450092300,9.91809228515625,0.0002432325854897499,-0.0027842349372804165,-0.0006032607052475214
1772043781460078300,9.928078369140625,0.0014533735811710358,0.001537542906589806,0.0006811819039285183
1772043781470064400,9.938064453125,-0.0008187051862478256,-0.0001084102550521493,-0.0010897342581301928
1772043781480050400,9.948050537109374,0.00034988950937986374,0.002188566140830517,0.0008740806952118874
1772043781490036200,9.9580361328125,0.003449101001024246,0.002759807277470827,-0.0006914767436683178
1772043781500023300,9.968023193359375,0.00250980444252491,0.0013411412946879864,-0.0023578167892992496
1772043781510009300,9.97800927734375,0.0003590760752558708,-0.0007285844767466187,-0.0013603297993540764
1772043781519995100,9.9879951171875,-0.00001856032758951187,0.0001585145218996331,0.00012784451246261597
1772043781529981400,9.9979814453125,-0.0004105083644390106,-0.0007512130541726947,0.00037491461262106895
1772043781539967200,10.00796728515625,0.0008542267605662346,0.0011564092710614204,-0.000017635291442275047
1772043781549953300,10.017953369140624,0.0019959891214966774,-0.00034602623782120645,0.0012676118640229106
1772043781559939300,10.027939208984375,0.003928644582629204,0.0005826180567964911,0.0023049130104482174
1772043781569925400,10.03792529296875,0.0024527572095394135,0.0016625304706394672,0.002530991565436125
1772043781579911200,10.0479111328125,-0.0015188148245215416,-0.0009151429985649884,-0.0007428324315696955
1772043781589897500,10.0578974609375,0.0006483914330601692,-0.0005708810058422387,0.0004266398027539253
1772043781599883300,10.06788330078125,-0.0004176720976829529,0.00044618017273023725,0.00019920594058930874
1772043781609870300,10.077870361328126,-0.000545525923371315,0.0004762439348269254,0.0008317539468407631
1772043781619856400,10.0878564453125,0.001222013495862484,-0.0008034049533307552,0.0011486700968816876
1772043781629842200,10.09784228515625,0.002246009185910225,0.001046556863002479,-0.0007675846572965384
1772043781639828200,10.107828125,-0.0002384539693593979,0.0016963680973276496,-0.0013140651863068342
1772043781649814300,10.117814208984376,0.00008154939860105515,0.0010896212188526988,-0.00206364830955863
1772043781659800300,10.12780029296875,-0.0021291403099894524,0.002066202461719513,-0.00035070301964879036
1772043781669786000,10.1377861328125,-0.00013902317732572556,-0.0014631295343860984,-0.0006246427074074745
1772043781679772400,10.1477724609375,-0.001271132379770279,-0.0010772375389933586,-0.0004185140132904053
1772043781689758200,10.15775830078125,-0.001194920390844345,-0.0003740621032193303,-0.0015446105971932411
1772043781699744300,10.167744140625,-0.0004412457346916199,-0.0007383825723081827,0.0011537042446434498
1772043781709731300,10.1777314453125,0.0012451084330677986,0.0002549849741626531,0.0007340153679251671
1772043781719717400,10.18771728515625,-0.001827913336455822,-0.0003085399221163243,-0.002074287738651037
1772043781729703400,10.197703369140624,-0.00003759842365980148,-0.0004916634643450379,-0.0005673875566571951
1772043781739689500,10.207689453125,-0.0014059310778975487,-0.0010639767860993743,-0.00126566831022501
1772043781749675300,10.21767529296875,0.001662672497332096,-0.0014222845202311873,0.00010132323950529099
1772043781759661300,10.227661376953124,-0.0005597351118922234,-0.002599934348836541,-0.0012856510002166033
1772043781769647400,10.2376474609375,-0.0012633046135306358,0.002188761020079255,-0.0013918897602707148
1772043781779633400,10.24763330078125,-0.0010856715962290764,-0.0023644454777240753,0.00029282597824931145
1772043781789619200,10.257619140625,0.0002257172018289566,0.001411098288372159,0.00042219762690365314
1772043781799605200,10.267605224609374,0.0009908434003591537,0.0035179248079657555,0.0006919759325683117
1772043781809591300,10.27759130859375,-0.00035766419023275375,-0.0007133527542464435,-0.002706956584006548
1772043781819578400,10.287578369140626,-0.00034940894693136215,-0.0006278652581386268,0.0006555505096912384
1772043781829564400,10.297564453125,-0.0008500656113028526,-0.0008766497485339642,-0.0017420586664229631
1772043781839550200,10.30755029296875,-0.00039067119359970093,-0.0034503284841775894,-0.0014041035901755095
1772043781849536500,10.31753662109375,-0.002520202659070492,0.00019801741291303188,-0.00003920961171388626
1772043781859522300,10.327522216796876,-0.0015769107267260551,0.00027764594415202737,-0.002098365919664502
1772043781869508400,10.33750830078125,0.00003388803452253342,0.0000012460513971745968,-0.00044080428779125214
1772043781879494400,10.347494384765625,0.00024800654500722885,-0.0025908085517585278,-0.001641889801248908
1772043781889480400,10.35748046875,0.0009147524833679199,0.0006760672549717128,0.0016504729865118861
1772043781899466200,10.36746630859375,0.0020005227997899055,-0.001367109944112599,-0.0012683514505624771
1772043781909452500,10.37745263671875,-0.0006996989250183105,-0.002172756241634488,-0.0016076953615993261
1772043781919438300,10.387438232421875,-0.0014118282124400139,0.0009002652950584888,-0.00042338762432336807
1772043781929425200,10.397425048828126,0.0020043784752488136,-0.0020725512877106667,-0.002677276963368058
1772043781939411500,10.407411376953124,-0.0017123287543654442,0.0008787637925706804,-0.0003989427350461483
1772043781949397200,10.417397216796875,0.002649887464940548,0.003098445711657405,0.00014529190957546234
1772043781959383300,10.42738330078125,-0.0009190142154693604,-0.0021090994123369455,-0.0008384799584746361
1772043781969369300,10.437369384765624,-0.0014981087297201157,-0.00010418739111628383,0.0022888134699314833
1772043781979355400,10.44735546875,-0.002831554040312767,-0.0008906188886612654,-0.0016406807117164135
1772043781989341200,10.457341064453125,-0.00014644768089056015,-0.0005799948703497648,-0.00155817368067801
1772043781999327500,10.467327392578126,-0.00029132328927516937,-0.0008891877951100469,0.000032798852771520615
1772043782009313300,10.477313232421874,-0.0006681457161903381,-0.002282113069668412,-0.0009708136785775423
1772043782019299300,10.48729931640625,-0.001842600293457508,0.00007185489812400192,-0.001096515217795968
1772043782029285400,10.497285400390625,-0.0016916049644351006,-0.0009144811192527413,0.00028493208810687065
1772043782039272400,10.5072724609375,-0.0007893266156315804,-0.00036107623600400984,0.0021968153305351734
1772043782049258500,10.517258544921875,-0.00024987198412418365,-0.0016817355062812567,0.0001704581081867218
1772043782059244300,10.527244384765625,0.0006880937144160271,-0.0005022215191274881,0.001078862464055419
1772043782069230600,10.537230712890626,-0.0013390248641371727,-0.00016087590483948588,-0.001181548461318016
1772043782079216400,10.54721630859375,-0.00008361134678125381,-0.000002417826181044802,-0.00001268717460334301
1772043782089202400,10.557202392578125,0.001643860712647438,-0.0016677422681823373,-0.00015879981219768524
1772043782099188200,10.567188232421875,0.00045555736869573593,0.0010414915159344673,0.002096897689625621
1772043782109174500,10.577174560546876,-0.0005396362394094467,0.0013374524423852563,-0.003726435825228691
1772043782119160300,10.587160400390625,0.0030263355001807213,-0.00006656612822553143,-0.00003050081431865692
1772043782129146400,10.597146484375,0.0012507745996117592,0.00008684462227392942,0.0005469017196446657
1772043782139132400,10.60713232421875,0.002074756659567356,-0.0014229014050215483,-0.00018200557678937912
1772043782149119500,10.617119384765624,0.0014768391847610474,-0.002482666401192546,-0.0022965669631958008
1772043782159105500,10.62710546875,0.0014643222093582153,0.00012803035497199744,-0.00023661181330680847
1772043782169091600,10.637091552734375,0.0021514929831027985,0.0005132104270160198,-0.0011221214663237333
1772043782179077400,10.647077392578124,-0.0016179457306861877,-0.0008748291293159127,-0.0007032060530036688
1772043782189063400,10.6570634765625,0.0023509571328759193,0.00020232105453033,0.00018948642536997795
1772043782199049500,10.667049560546875,0.0004273559898138046,-0.0031370166689157486,-0.0010611340403556824
1772043782209035500,10.677035400390626,0.001977180130779743,-0.0008223926415666938,-0.00017159455455839634
1772043782219021600,10.687021484375,0.0007193693891167641,-0.0019390559755265713,0.0002491849008947611
