time,seconds_elapsed,z,y,x
1772031889611542800,0.091542724609375,-3.270798616725206,2.0321761280827224,1.837363019426167
1772031889621491700,0.10149169921875,-2.970015342730284,2.1297122270748017,1.6760288403928278
1772031889631440600,0.111440673828125,-2.3747043480038643,2.101124722754955,1.3626849216409027
1772031889641389600,0.1213896484375,-1.50073306376338,1.9653867572709918,0.9609983372431248
1772031889651338500,0.13133837890625,-0.6832160726726054,1.7283330281257627,0.6197184368826448
1772031889661286700,0.14128662109375,-0.11581775174438953,1.3593231901228426,0.4845403703037649
1772031889671235600,0.151235595703125,0.2703290990203619,1.001653661301732,0.38837029896788294
1772031889681184800,0.161184814453125,0.5287263527065516,0.726833972863853,0.4102505607340485
1772031889691133700,0.1711337890625,0.637910365524888,0.529584284710139,0.6100551210023463
1772031889701081900,0.181081787109375,0.663835664898157,0.4206450404331088,0.7773124064743518
1772031889711030800,0.19103076171875,0.7040671375215053,0.4287413992576301,0.8191964686103165
1772031889720979700,0.200979736328125,0.8130266939342021,0.5092826704375446,0.774498298901692
1772031889730928600,0.2109287109375,0.9203215320050716,0.5435463206976652,0.607216974966973
1772031889740877600,0.220877685546875,1.0009855527818203,0.5235201623655855,0.40669023790396747
1772031889750825700,0.23082568359375,1.098289158192277,0.4908915659613907,0.259894214245677
1772031889760774700,0.240774658203125,1.173195053833723,0.45139162248298526,0.1469229014409706
1772031889770723600,0.2507236328125,1.1526286511451005,0.3752892105333507,0.06863941912520677
1772031889780672500,0.260672607421875,1.082708727222681,0.26260829550996423,0.04151749384589493
1772031889790620700,0.27062060546875,1.0832470718830822,0.2190690135128796,0.05755761474911123
1772031889800569900,0.28056982421875,1.2484049008578062,0.13711173805519938,0.02417432752009481
1772031889810518800,0.290518798828125,1.5083973147809504,-0.021047756464779376,-0.07898660735012963
1772031889820467700,0.3004677734375,1.700281238117814,-0.210734462018311,-0.22276494542136788
1772031889830415600,0.31041552734375,1.7620435745477676,-0.3905268194146454,-0.4112008471962064
1772031889840364800,0.32036474609375,1.780810234338045,-0.5535407682284712,-0.597065875569731
1772031889850313700,0.330313720703125,1.7789093691527842,-0.7012308911822736,-0.6949610901977866
1772031889860262700,0.3402626953125,1.7282108630508184,-0.7982862209200858,-0.7313244161508977
1772031889870211600,0.350211669921875,1.699919419068098,-0.8373705693349242,-0.7367403767850249
1772031889880159700,0.36015966796875,1.5760370188117026,-0.9430094568923115,-0.7865626845743506
1772031889890108700,0.370108642578125,1.2749597303062676,-1.0662516595490277,-0.8470099928829818
1772031889900057600,0.3800576171875,0.9260667976588011,-1.0361140031777323,-0.7853818042267113
1772031889910006800,0.3900068359375,0.6251309634506702,-0.9769682789869606,-0.54054392401129
1772031889919954700,0.39995458984375,0.34162089581787586,-0.9613301264807581,-0.26539756090231237
1772031889929903900,0.40990380859375,0.13834931702613829,-0.9102459820620715,-0.03195712688341737
1772031889939852800,0.419852783203125,-0.011613280904293059,-0.8390614450313151,0.07508397388840093
1772031889949801700,0.4298017578125,-0.15719956344664096,-0.8608160345911979,0.07055610293410718
1772031889959749600,0.43974951171875,-0.24217092602849005,-0.8856110147602856,0.06984996395874768
1772031889969698600,0.449698486328125,-0.22400164760947225,-0.8747780705787241,0.06887359320726245
1772031889979647700,0.459647705078125,-0.089977208045125,-0.7744060175083577,-0.06757829269971698
1772031889989596700,0.4695966796875,0.048721068549156185,-0.685447484986484,-0.32683187095429744
1772031889999544600,0.479544677734375,0.18700316555798052,-0.6355655559644102,-0.5620167009551078
1772031890009493500,0.489493408203125,0.347612829709053,-0.6438727810606361,-0.7176133592497557
1772031890019442400,0.4994423828125,0.3879992006331682,-0.7487969444774091,-0.7614534508243203
1772031890029392000,0.509391845703125,0.324544673332572,-0.8612304606109857,-0.7353910810679197
1772031890039340800,0.5193408203125,0.17375789953768253,-0.9042650079563259,-0.644713542733714
1772031890049288700,0.529288818359375,-0.04442483265995979,-0.8660971898645162,-0.4313411334272474
1772031890059237600,0.539237548828125,-0.35494098064005375,-0.6927735900908708,-0.15182243698555975
1772031890069186600,0.5491865234375,-0.6587234364509582,-0.38845162057578564,0.1405649837816134
1772031890079135700,0.5591357421875,-0.8949550355583429,-0.0624450579971075,0.5047605533706024
1772031890089083600,0.569083740234375,-1.154776184567809,0.1487842018008232,0.8586179400250316
1772031890099032600,0.579032470703125,-1.3614227927505969,0.11645867999643086,1.065852504163608
1772031890108981500,0.5889814453125,-1.3577473191082476,-0.028951076935231683,0.9513467848658561
1772031890118930700,0.5989306640625,-1.149746373707056,-0.2240241517022252,0.6288683964133263
1772031890128878600,0.608878662109375,-0.8749199632674455,-0.34384733969569203,0.2540539089859463
1772031890138827500,0.61882763671875,-0.5173784447401761,-0.5256710567891597,-0.20467932669781147
1772031890148776700,0.628776611328125,-0.11957739653885364,-0.7861383947476744,-0.7612211033731698
1772031890158725600,0.6387255859375,0.11939502570927142,-0.9624246437191962,-1.0998045311912894
1772031890168673800,0.648673828125,0.2502817517697811,-0.8535092187091707,-1.1072860460530967
1772031890178622700,0.658622802734375,0.15937866105139253,-0.6102846919745206,-1.024843836622685
1772031890188571600,0.668571533203125,-0.40002106233835216,-0.20596388661563395,-0.8216184350602328
1772031890198520600,0.6785205078125,-1.2889543533891439,0.34104981793165207,-0.40368206906393167
1772031890208468700,0.68846875,-2.0619389597922564,0.7244193129375577,0.1644317249235697
1772031890218417700,0.698417724609375,-2.5754525457978246,1.171180791401863,0.5310430321510881
1772031890228366600,0.70836669921875,-2.7991543336778877,1.48806033693403,0.6265547857087105
1772031890238315500,0.7183154296875,-2.5100188273787496,1.5306088543280958,0.39786910846885293
1772031890248265500,0.728265380859375,-1.962301358476281,1.4768401470005512,0.12543507305849344
1772031890258213600,0.738213623046875,-1.2918489057868718,1.4211802190989256,-0.0801620626039803
1772031890268162600,0.74816259765625,-0.5744716203153133,1.3498244171544909,-0.21547672464195639
1772031890278111500,0.758111572265625,0.03704875093400478,1.1646277164965868,-0.36427031532563264
1772031890288060400,0.768060302734375,0.33852292980253695,0.9036115124836563,-0.5314220945965499
1772031890298008300,0.77800830078125,0.2622059983193874,0.6922866833567619,-0.5423709202427417
1772031890307957500,0.78795751953125,-0.03145604549348354,0.767905111181736,-0.4034626176269725
1772031890317906400,0.797906494140625,-0.2161409972369671,0.92353231074512,-0.26065465895785017
1772031890327855400,0.80785546875,-0.10518120691776275,1.0597843632310628,-0.30330238067638127
1772031890337803300,0.81780322265625,0.022618074521422386,1.1937392446905375,-0.5620058507675305
1772031890347752400,0.82775244140625,0.042940147060155864,1.1586600402638316,-0.784709677118808
1772031890357701400,0.837701416015625,-0.13095336155593396,1.2959648166731,-0.6681706984277814
1772031890367650600,0.847650634765625,-0.4079068471521139,1.4899284688934682,-0.3619717560596764
1772031890377598500,0.857598388671875,-0.6743868695288896,1.5817819922044873,-0.0787168961638119
1772031890387547400,0.86754736328125,-0.7687567595750093,1.520796485365927,0.0832529230250977
1772031890397496600,0.87749658203125,-0.6727712510257959,1.416371357512474,0.191218335567601
1772031890407445500,0.887445556640625,-0.33235330125689505,1.3639821218445896,0.2033887754306197
1772031890417393400,0.897393310546875,0.17721710008084773,1.310746790741384,0.09242050954401493
1772031890427342300,0.90734228515625,0.6882014598697423,1.1875348370924592,-0.04160755131610203
1772031890437291300,0.917291259765625,1.1990806057184933,1.0003940166294574,-0.22832535602748394
1772031890447240400,0.927240478515625,1.6946142983973025,0.7781377513825893,-0.3907180676704272
1772031890457189400,0.937189453125,2.1187334446817636,0.49169367612451315,-0.5241127214312553
1772031890467137300,0.94713720703125,2.383482113221288,0.20060995836704967,-0.6364242916855961
1772031890477086200,0.957086181640625,2.535260820662975,-0.07936696670353412,-0.6974008845653384
1772031890487035400,0.967035400390625,2.550647774887085,-0.331724940225482,-0.74689527557455
1772031890496984600,0.976984619140625,2.3600965614587066,-0.5308709635198116,-0.718692678919062
1772031890506932500,0.986932373046875,2.0846406209439037,-0.6474900947749614,-0.6419764459200203
1772031890516881400,0.99688134765625,1.7802847491592169,-0.6835720465034246,-0.5846353599984199
1772031890526830300,1.006830322265625,1.462021348053217,-0.6556748625352978,-0.5032163196032866
1772031890536779500,1.016779541015625,1.1226058533251284,-0.5816249992012977,-0.43060050766039637
1772031890546727400,1.0267275390625,0.6600000322580337,-0.500782114726305,-0.3016261362935416
1772031890556676400,1.03667626953125,0.2119230872809887,-0.41547640562355515,-0.1687899931983091
1772031890566625300,1.046625244140625,-0.12636837185323238,-0.3289025762811303,-0.11340528377518057
1772031890576574200,1.05657421875,-0.3521136482596397,-0.2517304892733693,-0.07913754186183214
1772031890586522400,1.0665224609375,-0.4889361941099167,-0.19355565594136714,-0.08167264983002095
1772031890596471300,1.07647119140625,-0.5670803410202264,-0.16195640258491037,-0.09379856556472368
1772031890606420500,1.08642041015625,-0.5994821429312229,-0.17487082921564578,-0.06262305404567159
1772031890616369400,1.096369384765625,-0.5845668978720903,-0.19834698187112806,-0.017085679866815917
1772031890626317600,1.106317626953125,-0.5196645098507404,-0.23675182358920574,0.022839539818954653
1772031890636266500,1.1162666015625,-0.3783335466653108,-0.3249558844819665,0.05262543731024488
1772031890646215400,1.12621533203125,-0.20312427927553653,-0.3945671808466315,0.07081544342346023
1772031890656164400,1.136164306640625,0.006268412744998932,-0.4523898397400975,0.09040485887266694
1772031890666113300,1.14611328125,0.19674363832771777,-0.49888008049726484,0.10797343145217746
1772031890676061400,1.1560615234375,0.2994219225138426,-0.5297840450659393,0.14495822290503418
1772031890686010400,1.16601025390625,0.2961801641136408,-0.5230296023696661,0.22332427807087077
1772031890695959300,1.175959228515625,0.34044425325393673,-0.4556324749231338,0.2429374534215778
1772031890705908500,1.185908447265625,0.4415647866040468,-0.4195329875379801,0.21070700775580478
1772031890715856400,1.1958564453125,0.572077418655157,-0.44219022502601146,0.15936488825436682
1772031890725805600,1.2058056640625,0.6808382376253604,-0.42438890313655137,0.08790189960841088
1772031890735754500,1.21575439453125,0.7762982609957456,-0.3431003207206726,0.06069598584007471
1772031890745703400,1.225703369140625,0.7783604542225598,-0.2989274169951677,0.05899373023314401
1772031890755651600,1.235651611328125,0.6827882026493549,-0.3181242848962545,0.07895639487495645
1772031890765600500,1.2456005859375,0.5072732303112745,-0.4435556681603193,-0.03319094299469143
1772031890775549400,1.255549560546875,0.3144564100384712,-0.8823708637952804,-0.36725353238750247
1772031890785498400,1.265498291015625,0.30172376971542836,-1.39367232670933,-0.7347123780887573
1772031890795446300,1.2754462890625,0.44453240423798557,-1.6049714368730783,-0.8565313430093229
1772031890805395500,1.2853955078125,0.5958697976529598,-1.5411507066085934,-0.7514895445622504
1772031890815344400,1.295344482421875,0.5390431640595197,-1.4077631036430596,-0.5484048301121219
1772031890825293300,1.305293212890625,0.28852117379307746,-1.2780831230238079,-0.32637130423784255
1772031890835241200,1.3152412109375,-0.14295418047308922,-1.0549731635570525,-0.05998765490762889
1772031890845190400,1.3251904296875,-0.706658323058486,-0.5856441717147827,0.2674736365240067
1772031890855139600,1.3351396484375,-1.411346807348728,-0.022069500727951524,0.648108591999486
1772031890865088500,1.345088623046875,-2.0871908899486065,0.5716352278456092,0.9938962521079927
1772031890875037400,1.355037353515625,-2.6613497910529373,1.0844012103542684,1.2196672474775463
1772031890884985300,1.3649853515625,-3.119348995107412,1.5192904647171497,1.304251729633659
1772031890894934500,1.3749345703125,-3.349123965421319,1.8759248052716253,1.2411737805604934
1772031890904883500,1.384883544921875,-3.383982512834668,2.1419921551942824,1.083959165675193
1772031890914832400,1.394832275390625,-3.2651094651728867,2.277225970548391,0.8665771554011851
1772031890924780300,1.4047802734375,-2.924691515403986,2.3122899774059653,0.5712808614499867
1772031890934729200,1.414729248046875,-2.4457769490927457,2.205814639024436,0.33579916739445176
1772031890944678400,1.424678466796875,-1.6126812805980444,1.9982181827709078,0.14246679881494492
1772031890954627600,1.434627685546875,-0.42759354439675806,1.5993109268933534,-0.07318120900699869
1772031890964575500,1.444575439453125,0.688472678026557,1.1160708985984324,-0.26555381090994923
1772031890974524400,1.4545244140625,1.515587518545985,0.8417366555899382,-0.42995095771048214
1772031890984473300,1.464473388671875,1.98418001280725,0.7028732515618205,-0.48186727863699197
1772031890994422500,1.474422607421875,2.1552537878274918,0.7176657470241189,-0.20379626025296746
1772031891004370400,1.484370361328125,2.1676047353565693,0.7530509486600756,0.2298823214122094
1772031891014319400,1.4943193359375,2.0440683720588684,0.6897185864344239,0.6120059262765571
1772031891024268300,1.504268310546875,1.745125172972679,0.48571723206341266,0.8789959074694663
1772031891034217500,1.514217529296875,1.339292794007063,0.3009589228227734,1.0410802472829819
1772031891044166400,1.52416650390625,0.9236024533718824,0.39327480294853445,1.166020339898765
1772031891054114300,1.5341142578125,0.5526818133115768,0.5635717483773828,1.3041153899028897
1772031891064063200,1.544063232421875,0.2259165413200855,0.7769064560219645,1.3496034678801894
1772031891074012400,1.554012451171875,-0.030519641426205633,0.9590835165977477,1.2586454321041702
1772031891083961600,1.563961669921875,-0.11461188308596611,1.1053773628875612,1.0038038250729442
1772031891093909500,1.573909423828125,-0.035841713231801985,1.2815005302518605,0.6680821433614939
1772031891103858400,1.5838583984375,0.14128010978102684,1.4143494962960481,0.35683278573602434
1772031891113807400,1.593807373046875,0.36431495818495746,1.4552870713621378,0.09736641411413438
1772031891123756300,1.60375634765625,0.667903352728486,1.4092366833269596,-0.09853833483718336
1772031891133704400,1.613704345703125,1.039502038180828,1.2782213624507188,-0.2604270059481263
1772031891143653400,1.6236533203125,1.3336276078522205,1.1447414050266147,-0.4375270920531824
1772031891153602300,1.633602294921875,1.6084300528943538,1.0234735711827874,-0.5375480301309377
1772031891163551200,1.64355126953125,1.8038725454956293,0.8433309390440583,-0.6310748934816569
1772031891173500400,1.65350048828125,1.884970866036415,0.6159250359490513,-0.6875048559077084
1772031891183448300,1.6634482421875,1.8796470406651495,0.30650413585975766,-0.7040656762167811
1772031891193397500,1.6733974609375,1.8381734590262173,-0.06466492600366473,-0.6427909041080624
1772031891203346400,1.683346435546875,1.6051485470056532,-0.44889191462174055,-0.5217033587345853
1772031891213295400,1.69329541015625,1.198279226207733,-0.8373650163769721,-0.2973885900553316
1772031891223243500,1.703243408203125,0.6630278556466103,-1.1246003881432116,0.11794478123518638
1772031891233192400,1.7131923828125,0.031366613644361496,-1.3692415036775172,0.644811304019764
1772031891243141400,1.723141357421875,-0.6035474926739931,-1.5628697864636778,1.219099092200771
1772031891253093600,1.73309375,-1.0844482643663882,-1.698905711980909,1.746442100790143
1772031891263042800,1.743042724609375,-1.326179629933834,-1.8116177527949213,2.1241998933941124
1772031891272990700,1.75299072265625,-1.3543454017102718,-1.8363200862444937,2.2714120235726236
1772031891282940000,1.76293994140625,-1.302262747773528,-1.779383708666265,2.223010396236181
1772031891292888800,1.772888916015625,-1.162560847094655,-1.6190775575064122,1.9469326705612242
1772031891302837800,1.782837646484375,-0.8668845408499241,-1.398898244664073,1.535743002346158
1772031891312786000,1.792785888671875,-0.53827802490592,-1.139004030418396,1.0601404831923544
1772031891322734800,1.80273486328125,-0.2952373303055763,-0.8528424253635108,0.5900047415444627
1772031891332683800,1.812683837890625,-0.10151742371320724,-0.6267194016858935,0.20785700688585637
1772031891342632700,1.8226328125,0.19330840318202971,-0.4671551549345255,-0.1307681411821395
1772031891352580900,1.832580810546875,0.5318202270686626,-0.43210050042718645,-0.41481151197403665
1772031891362529800,1.84252978515625,0.8545528825432062,-0.5071648015007376,-0.6726267279885709
1772031891372478700,1.852478759765625,1.0659989999622106,-0.5657317028902471,-0.8893540006808937
1772031891382427600,1.862427734375,1.105901971283555,-0.5439115007482469,-0.9551176086414604
1772031891392376800,1.872376953125,1.0465642316520214,-0.5040134978629648,-0.8750795377433299
1772031891402324700,1.88232470703125,1.0920996559023857,-0.5229243884295225,-0.8038808260567486
1772031891412274000,1.89227392578125,1.131021799492836,-0.6459380430273711,-0.8253438853241503
1772031891422222800,1.902222900390625,1.0361474670559168,-0.79494947771281,-0.8945112373135984
1772031891432171800,1.912171875,0.8524258073866366,-0.8046817671760916,-0.8891821512453257
1772031891442120000,1.922119873046875,0.7393956405341625,-0.7366990949265658,-0.9170444100305437
1772031891452068900,1.93206884765625,0.7294570148438215,-0.7238024962134659,-1.0034835070773958
1772031891462017800,1.942017822265625,0.7531757440835237,-0.7682651766657829,-1.090794272392243
1772031891471966700,1.951966796875,0.7112702007681131,-0.8178061832956969,-1.1555478995926678
1772031891481915600,1.96191552734375,0.5488952805101871,-0.8500000415444373,-1.1551083391316235
1772031891491863800,1.97186376953125,0.3171598237782717,-0.7945106479041278,-1.0588467901200056
1772031891501812700,1.981812744140625,0.12933540496528148,-0.7378818749703466,-0.9460103922739624
1772031891511762000,1.991761962890625,-0.019765023177862166,-0.788062056286633,-0.883533477833867
1772031891521710800,2.0017109375,-0.1610281818240881,-0.834268365535885,-0.8286309441708027
1772031891531659000,2.011658935546875,-0.23550971457362174,-0.8120845907784998,-0.7784976707361638
1772031891541608000,2.02160791015625,-0.33510698387920856,-0.8134636240467429,-0.741952485410124
1772031891551556900,2.031556884765625,-0.4882330142766237,-0.8081710705965757,-0.7017430784881115
1772031891561505800,2.041505859375,-0.6308557708382606,-0.8205851464897393,-0.6692444651391357
1772031891571454700,2.051454833984375,-0.7593699225485324,-0.943993207232654,-0.7044882855430245
1772031891581403000,2.06140283203125,-0.8678402341395616,-1.3698350856564938,-0.8970507657285779
1772031891591351800,2.071351806640625,-0.7971861507236957,-2.167983213280141,-1.294106183194369
1772031891601300700,2.08130078125,-0.5134691623419523,-3.0188316883474586,-1.7001669640883803
1772031891611249700,2.091249755859375,-0.31844577193558216,-3.606886428335309,-2.011561648468673
1772031891621197800,2.10119775390625,-0.43753684626221656,-3.5834406708180904,-2.0688667132288217
1772031891631147000,2.11114697265625,-1.0124129557251929,-2.8172628218203783,-1.8012477499499917
1772031891641096000,2.121095947265625,-2.0226690256774424,-1.6806553311496972,-1.435958832166344
1772031891651044900,2.131044921875,-3.2940134880959984,-0.6790843796953558,-1.13675617842637
1772031891660993800,2.140993896484375,-4.723561138045787,0.2541236680202186,-0.777533209618181
1772031891670942000,2.15094189453125,-5.925621051836013,1.0109433215640484,-0.4302373734364286
1772031891680891000,2.160890869140625,-6.402162459275126,1.5259968304879963,-0.19232225995520127
1772031891690839800,2.17083984375,-5.926341182804108,1.7552844556763767,-0.1650407236673869
1772031891700788700,2.180788818359375,-4.668901911619305,1.7390635348461567,-0.3334953108988702
1772031891710736600,2.190736572265625,-3.1261013919770715,1.571963924153894,-0.5589523084158078
1772031891720685800,2.200685791015625,-1.6697499062538146,1.3755514174766839,-0.719866545004025
1772031891730634800,2.210634765625,-0.5225339278072119,1.086753910960257,-0.8774664328798651
1772031891740584000,2.220583984375,0.3566547988206148,0.7066603688850999,-1.0526435515657067
1772031891750532900,2.230532958984375,0.9783283152937888,0.3398404421418905,-1.195778349302709
1772031891760480800,2.240480712890625,1.382321788394451,0.03961187942028045,-1.3236442662373185
1772031891770430000,2.250429931640625,1.5676450380414724,-0.18487930527180432,-1.332474053902924
1772031891780379000,2.26037890625,1.582112539333105,-0.28703999532461166,-1.2223424580361693
1772031891790327800,2.270327880859375,1.477250481367111,-0.18051847971379756,-0.9110258803933858
1772031891800275700,2.280275634765625,1.0802771161615847,0.16324235074222088,-0.4202269611515104
1772031891810225000,2.290224853515625,0.43025954873561856,0.556165271513164,0.1204858531532809
1772031891820173800,2.300173828125,-0.44438627376556394,0.8075695975720882,0.5912823602648452
1772031891830122800,2.310122802734375,-1.4366238719463347,1.011396179898083,0.9885770298466086
1772031891840071700,2.32007177734375,-2.31661748521626,1.329202777147293,1.340094465778768
1772031891850019600,2.33001953125,-2.772830974897742,1.7128092957794665,1.5039114015385509
1772031891859969000,2.339968994140625,-2.7264626069545743,2.14006586330682,1.4606376386098563
1772031891869918000,2.34991796875,-2.2066958057731387,2.517854927831888,1.2452734709642828
1772031891879867000,2.359866943359375,-1.4137766648441552,2.760313146369159,0.9576504150547087
1772031891889815800,2.36981591796875,-0.5395949527233839,2.854683036415279,0.6694668026529252
1772031891899763700,2.379763671875,0.32019758403897286,2.8644661792829633,0.45364320080205794
1772031891909713000,2.389712890625,1.1060276434898375,2.801570747169852,0.30981070312447845
1772031891919661800,2.399661865234375,1.7707178793907163,2.6509356568053364,0.21284509749673305
1772031891929610800,2.40961083984375,2.340197098246217,2.4609949764907357,0.17593122498877345
1772031891939558700,2.41955859375,2.8203490973979233,2.296294535894692,0.22717677051424978
1772031891949507800,2.4295078125,3.199986127877235,2.108582929806411,0.3817925280127674
1772031891959456800,2.439456787109375,3.455423362714052,1.8975459777101873,0.5884909394480288
1772031891969406000,2.449406005859375,3.6123008545994755,1.6687822302654385,0.8475461455862968
1772031891979355000,2.45935498046875,3.6373856114953753,1.4291042900964617,1.0993913472805172
1772031891989302800,2.469302734375,3.5579888341754673,1.1517433927431702,1.313083709256351
1772031891999252000,2.479251953125,3.539881515076756,0.8725327758699655,1.4663374576866626
1772031892009201000,2.489200927734375,3.584714344015717,0.5747562824755906,1.5548586217045783
1772031892019149800,2.49914990234375,3.6108553319662806,0.2984074847742915,1.5328867361322045
1772031892029098800,2.5090986328125,3.591725684082508,0.06764233437925576,1.4690570919089019
1772031892039046700,2.519046630859375,3.483678566339612,-0.10808832653611898,1.380451026086509
1772031892048995800,2.528995849609375,3.287190948599577,-0.24472499442547557,1.2526855007864535
1772031892058944800,2.53894482421875,3.0101404323697087,-0.30359862367659807,1.08065186775811
1772031892068894000,2.54889404296875,2.617709386768937,-0.26258506076484917,0.9303706323325633
1772031892078841600,2.558841552734375,2.1033669487237927,-0.20330401975661516,0.8005231861919164
1772031892088790800,2.568790771484375,1.5636328797906636,-0.15542524725049733,0.6579266600500792
1772031892098740000,2.578739990234375,1.0888163964480162,-0.17406565031260252,0.5917398582413792
1772031892108689000,2.58868896484375,0.678604779484868,-0.2661822084739804,0.5098598858036101
1772031892118637800,2.598637939453125,0.2583364634096622,-0.4672524778291583,0.3804824683275074
1772031892128585700,2.608585693359375,-0.18357728276252747,-0.6971046050325036,0.354829483089596
1772031892138535000,2.618534912109375,-0.5103191738784313,-0.8810878382474183,0.3697484544757753
1772031892148483800,2.62848388671875,-0.7329863580137491,-1.090060551290214,0.36731472452282904
1772031892158432800,2.638432861328125,-0.8371212707489728,-1.30096306335181,0.38828444731533523
1772031892168381700,2.648381591796875,-0.8764905735850334,-1.4632403684541582,0.39513847792856394
1772031892178329600,2.65832958984375,-0.8990718232274055,-1.5756903973311185,0.35625893137082454
1772031892188278800,2.66827880859375,-1.0415110399156808,-1.7078016967505216,0.20218626777306198
1772031892198228000,2.67822802734375,-1.2714637048840522,-1.8729259157165883,-0.021724121356382964
1772031892208177000,2.688177001953125,-1.4059317965626716,-2.089680953198671,-0.29411899380013345
1772031892218125800,2.698125732421875,-1.3719570462465285,-2.328639054660499,-0.5784117727758362
1772031892228073700,2.70807373046875,-1.28174369135797,-2.482612349537015,-0.8183857367493211
1772031892238023000,2.71802294921875,-1.2449766799747943,-2.4824802475899457,-0.9212389391109347
1772031892247971800,2.727971923828125,-1.3568389720916747,-2.1965803622111677,-0.820999499444291
1772031892257917700,2.737917724609375,-1.7163152580738066,-1.6584873384833334,-0.5509045745059847
1772031892267866600,2.74786669921875,-2.3203005576431748,-1.077736491768062,-0.29202892618570475
1772031892277814500,2.757814453125,-3.064611442747712,-0.5288949872717261,-0.10372355545535683
1772031892287763700,2.767763671875,-3.78172803145647,0.05818155533373356,0.02792341438792646
1772031892297712600,2.777712646484375,-4.323910662585496,0.693787735569477,0.13770332900648935
1772031892307661600,2.78766162109375,-4.640295994859933,1.3045076040908694,0.21111040092492475
1772031892317610500,2.797610595703125,-4.559256711030006,1.8119082601740955,0.27465759321134536
1772031892327558400,2.807558349609375,-4.128988978987932,2.184104619258642,0.328583281198889
1772031892337507600,2.817507568359375,-3.494097669023275,2.325712061297893,0.3272633942393586
1772031892347456500,2.82745654296875,-2.7732050689071417,2.2388176216989755,0.3084511782743037
1772031892357405700,2.83740576171875,-2.017711111009121,2.0838807424873114,0.3293577727027237
1772031892367354600,2.847354736328125,-1.2600579292505978,1.9833043990164994,0.4071269853534177
1772031892377302500,2.857302490234375,-0.49206630882918834,1.895288261911273,0.5192859588619321
1772031892387251700,2.867251708984375,0.2803910588294268,1.8223826001763344,0.6177259478911757
1772031892397200600,2.87720068359375,0.9380395595252513,1.7415511138781905,0.6906344591703265
1772031892407149600,2.887149658203125,1.4412649757504463,1.6047840976074337,0.7645758936937898
1772031892417097500,2.897097412109375,1.8383605060309172,1.4653186360329389,0.8353519229888916
1772031892427046700,2.907046630859375,2.160165525266528,1.3025170147955416,0.9093575087897479
1772031892436995600,2.91699560546875,2.4211124634355303,1.1959896539658308,0.9618852030802517
1772031892446944500,2.926944580078125,2.5651503474920987,1.1325441867545247,0.9956224183134734
1772031892456893400,2.9368935546875,2.6235943531543016,1.1347697538495063,1.0553557331338523
1772031892466841300,2.94684130859375,2.581265031468868,1.1990277064874768,1.1235678302250802
1772031892476790500,2.95679052734375,2.4287141706109043,1.3054197504997254,1.17435226104483
1772031892486739700,2.96673974609375,2.262711122983694,1.3903884827330708,1.1858726029686628
1772031892496688600,2.976688720703125,2.094820069652796,1.4541791101202368,1.1088074834667145
1772031892506637600,2.986637451171875,1.9178578211158512,1.5117390264242887,0.9801084036435931
1772031892516586500,2.99658642578125,1.8170295487105845,1.557846697604656,0.871170547606051
1772031892526534700,3.00653466796875,1.7864374265700578,1.5991484298080205,0.7634767002802342
1772031892536483600,3.016483642578125,1.7193740611225365,1.5992019135609268,0.6650557082124054
1772031892546432500,3.0264326171875,1.6155723258644341,1.5514020515099167,0.5053477421414106
1772031892556381400,3.03638134765625,1.4392431145340203,1.4647949044197797,0.36644181414581833
1772031892566329600,3.04632958984375,1.355745331636071,1.3190151451319456,0.27530617504687976
1772031892576278500,3.056278564453125,1.4478946230232714,1.1366855243429541,0.18570810251245273
1772031892586227700,3.066227783203125,1.586394746696949,0.8567553610235452,0.1376627595340833
1772031892596176600,3.0761767578125,1.6561995198071002,0.5104574133053422,0.09106162401465699
1772031892606125600,3.08612548828125,1.6852052495390175,0.2877802922978997,0.04739473358253017
1772031892616074500,3.096074462890625,1.6838877371996641,0.19944646754562853,0.04199249094650149
1772031892626022700,3.106022705078125,1.6854080786347387,0.1187926759019494,0.0030001316640526055
1772031892635971600,3.1159716796875,1.6102771420657633,-0.00857201351225376,-0.09285546689517796
1772031892645920500,3.12592041015625,1.4157517643094062,-0.21174860749691723,-0.12576010376177726
1772031892655869400,3.135869384765625,1.125473517715931,-0.4069584603860974,-0.16619345563277602
1772031892665818400,3.145818359375,0.8728735521316527,-0.4905499129168689,-0.23784827705640343
1772031892675766500,3.1557666015625,0.7089443881690501,-0.5076242357060313,-0.3080727003507316
1772031892685715500,3.165715576171875,0.513413632762432,-0.5848633966006338,-0.3872767315775156
1772031892695664600,3.17566455078125,0.23208850795328614,-0.7431178759276866,-0.4103079900097102
1772031892705613600,3.185613525390625,-0.09362696272432804,-0.8470321316495537,-0.4100141216296702
1772031892715562500,3.1955625,-0.42225218336880205,-0.9110784873634576,-0.3448265965240076
1772031892725510700,3.2055107421875,-0.7587807244837284,-1.0049556254565715,-0.20701134984195232
1772031892735459600,3.21545947265625,-0.986715035367012,-1.039855527793616,-0.03864957372676581
1772031892745408500,3.225408447265625,-1.113876603424549,-1.0185492665231228,0.10989048058725893
1772031892755357400,3.235357421875,-1.2121435009092092,-0.9834026959486305,0.24283112523658199
1772031892765306400,3.245306396484375,-1.3866104254990814,-0.9686438104949892,0.3680577979750931
1772031892775254500,3.255254638671875,-1.4633236628234385,-0.9716232646971941,0.3727285662651062
1772031892785203500,3.265203369140625,-1.4280039276391268,-0.9913453255161643,0.19897106858622282
1772031892795152400,3.27515234375,-1.3667787668257951,-1.0284859925173222,-0.07772900850446894
1772031892805101600,3.2851015625,-1.2102432202458382,-1.0239965721435844,-0.344576859546639
1772031892815050500,3.295050537109375,-0.9735621238052844,-0.9963622768953442,-0.5950101120837032
1772031892824998700,3.30499853515625,-0.7683633763432502,-1.0567977486357092,-0.7939538908042013
1772031892834947600,3.314947509765625,-0.6040671326339244,-1.210619213951379,-0.8896588288463652
1772031892844896500,3.324896484375,-0.42905309555530546,-1.3219848085924981,-0.8708579014603048
1772031892854845400,3.334845458984375,-0.31353169640898704,-1.3629863888055085,-0.8041006062872708
1772031892864794400,3.34479443359375,-0.33379882389008997,-1.4203653955847024,-0.6854945389986038
1772031892874743600,3.35474365234375,-0.40415012496709823,-1.482704801250249,-0.5512309569161385
1772031892884691500,3.36469140625,-0.5040548527866602,-1.537524332804978,-0.417192927217856
1772031892894640400,3.374640380859375,-0.5885118361055851,-1.5499695344887674,-0.31846528035365046
1772031892904589600,3.384589599609375,-0.6441530593067407,-1.4986680940575896,-0.2546989106249064
1772031892914538500,3.39453857421875,-0.7437894915789365,-1.4101380160808563,-0.25357060071472076
1772031892924487700,3.40448779296875,-0.9164555042266845,-1.4048124371439217,-0.33917989587392655
1772031892934435600,3.414435546875,-0.961819079041481,-1.4447970953993499,-0.44118170557059344
1772031892944384500,3.424384521484375,-0.9153571875959634,-1.4788390657328068,-0.6124938924565911
1772031892954333400,3.43433349609375,-0.8563263219565153,-1.565692004277557,-0.8086682064637541
1772031892964282600,3.44428271484375,-0.8731383405476808,-1.6598855148434637,-0.9242897049836813
1772031892974231600,3.4542314453125,-0.9474936165690422,-1.692889228170365,-0.9853170051373541
1772031892984179500,3.464179443359375,-0.9914011473566293,-1.6604432948566972,-0.988833634956181
1772031892994128400,3.47412841796875,-1.003677276083827,-1.3816706310093403,-0.8803898460458963
1772031893004077300,3.484077392578125,-1.1878209605574608,-0.9042368047751486,-0.6246234523199499
1772031893014026800,3.49402685546875,-1.4843553449362517,-0.37877632199674843,-0.33832039296776056
1772031893023975700,3.5039755859375,-1.8795535171627997,0.03476838491186499,-0.11443506521433591
1772031893033924600,3.513924560546875,-2.3304788373082874,0.40026071631312365,0.1348725808262825
1772031893043872500,3.52387255859375,-2.672761996427178,0.832304664247483,0.3734630180194974
1772031893053821400,3.533821533203125,-2.813042573776841,1.3639905974119901,0.49757111679054794
1772031893063770600,3.5437705078125,-2.7368483918905255,1.8623058836333453,0.5067897576432675
1772031893073719600,3.553719482421875,-2.433061844426393,2.24837630816102,0.42594037036225196
1772031893083668500,3.56366845703125,-1.8964584747344255,2.503278120946884,0.24190036545880136
1772031893093616400,3.573616455078125,-1.2314163566559553,2.5724235533654687,-0.01549362946897745
1772031893103565600,3.583565673828125,-0.5576297911077738,2.4341470093145965,-0.28351525526456534
1772031893113514800,3.5935146484375,0.1480214007347822,2.147017582140863,-0.49358548122048373
1772031893123463700,3.603463623046875,0.7126824056535959,1.7778879171505568,-0.6672342212952673
1772031893133412600,3.61341259765625,1.0912795716911554,1.377349845200777,-0.7592835594393312
1772031893143361500,3.623361572265625,1.339710142636299,1.01735128891021,-0.782991036632657
1772031893153309700,3.633309814453125,1.4626462019532918,0.7827773938819765,-0.7129018936231732
1772031893163258600,3.643258544921875,1.4916010782808065,0.6495826831400394,-0.5746344461942091
1772031893173207600,3.65320751953125,1.5167635765880345,0.6290759016841649,-0.35072460505403574
1772031893183156500,3.663156494140625,1.55228204921484,0.7170993453130126,-0.16816548635810613
1772031893193105400,3.67310546875,1.5647762046068905,0.8484177407890557,-0.041911571197398
1772031893203053600,3.683053466796875,1.447869488582015,1.0292106535300611,0.1886487042753026
1772031893213002500,3.69300244140625,1.2530986116319893,1.2924609002053737,0.4806812471901998
1772031893222951700,3.70295166015625,0.9251333162009715,1.5147528212875128,0.715590548185259
1772031893232900600,3.712900634765625,0.5037397954881191,1.6120289541691541,0.8906899254597723
1772031893242849500,3.722849609375,0.1477303088337183,1.6162721446968613,0.9421342084277421
1772031893252798500,3.732798583984375,-0.10710896010994911,1.572143810765445,0.9557863747484981
1772031893262746600,3.74274658203125,-0.19808745415210724,1.5923909183718263,0.955493090890348
1772031893272695800,3.75269580078125,-0.09112111738324165,1.6325098705314098,0.888872062382847
1772031893282644700,3.762644775390625,0.12113982354998588,1.6036472025319932,0.7788236878201366
1772031893292593700,3.77259375,0.37138358139693733,1.4588117383569479,0.6364123820520937
1772031893302542600,3.78254248046875,0.7358598676234483,1.1704517464749515,0.47153154338784514
1772031893312491800,3.79249169921875,1.1925713699549436,0.8160792133726179,0.3509440199583769
1772031893322439700,3.802439697265625,1.6316420016556976,0.45392143322154876,0.24507837444040922
1772031893332388600,3.812388671875,1.9739777677446602,0.07323255560174584,0.13323387370854614
1772031893342337500,3.822337646484375,2.248679090499878,-0.25858386229947206,0.03224722327063791
1772031893352286500,3.832286376953125,2.44254278947711,-0.48275078347325323,-0.07214906208082102
1772031893362236000,3.84223583984375,2.459679802238941,-0.6590896394148469,-0.08310198851339519
1772031893372183600,3.85218359375,2.3035370543688534,-0.7021569199860096,0.029678094301838424
1772031893382132700,3.8621328125,2.0588772341340777,-0.6692687958627939,0.20746429950753226
1772031893392081700,3.87208154296875,1.8262889599651098,-0.6317861835561692,0.2347816925600171
1772031893402030600,3.882030517578125,1.5666203711688518,-0.5807957087703048,0.13478729542931542
1772031893411979800,3.891979736328125,1.2660598000138998,-0.4972533560782671,0.07730820754282176
1772031893421928700,3.9019287109375,0.9461603221386671,-0.3612447569593787,0.07457512931711971
1772031893431876600,3.911876708984375,0.7015554469615221,-0.26717896442636846,0.03112173550520092
1772031893441825500,3.921825439453125,0.5512076491057872,-0.23099691332429645,-0.028251038907095787
1772031893451774700,3.931774658203125,0.37182840255498883,-0.18971373969092964,-0.0689691260036081
1772031893461723600,3.9417236328125,0.19318156193196773,-0.18606106240227818,-0.0876515415765345
1772031893471672800,3.9516728515625,0.1320575234055519,-0.2111908274836838,-0.058207877085078505
1772031893481621800,3.961621826171875,0.1661380721837282,-0.2814851376764476,0.0019813282766379414
1772031893491569700,3.971569580078125,0.3795803318560123,-0.27473917054757474,0.013369239459838717
1772031893501518800,3.981518798828125,0.5793272436529397,-0.30173224528282877,-0.09535652646329254
1772031893511467800,3.9914677734375,0.5660334623157978,-0.39464916004166006,-0.23722378848250955
1772031893521416700,4.001416748046875,0.422045262619853,-0.377073463601619,-0.37689149463083593
1772031893531365600,4.01136572265625,0.21117197665274143,-0.21024127167388795,-0.4723862239884212
1772031893541314600,4.021314453125,0.1607838516741991,0.0027246026583015916,-0.5543640307774766
1772031893551262700,4.0312626953125,0.3150362557530403,0.10874109135642647,-0.6402249260775744
1772031893561211600,4.041211669921875,0.4135270251214504,0.019215280340611932,-0.7810866643160581
1772031893571160600,4.05116064453125,0.4881231241613626,-0.18361761477291583,-0.8557103089500218
1772031893581109800,4.06110986328125,0.34571196452379227,-0.48634179370254277,-0.7732213377684354
1772031893591058700,4.07105859375,0.17322656913995743,-0.6266774622403085,-0.5029210629837587
1772031893601007600,4.081007568359375,0.10858546240329742,-0.6167449740298092,-0.21844366642246021
1772031893610955800,4.090955810546875,0.127296008092165,-0.5513040952175855,-0.0034835130005143582
1772031893620904700,4.10090478515625,0.1587877094209194,-0.4616223629876971,0.09966419706195592
1772031893630853600,4.110853515625,0.0628986469835043,-0.4773291968159377,0.034317371475044635
1772031893640802600,4.120802490234375,-0.1281581778794527,-0.49152854869067664,-0.18709296273328363
1772031893650751500,4.13075146484375,-0.2172299615174532,-0.534182572285831,-0.4987916350288316
1772031893660700700,4.14070068359375,-0.2037093856871128,-0.614289105310291,-0.7390472654879092
1772031893670648600,4.150648681640625,-0.21930969040095805,-0.7491190160386264,-0.9137783209066838
1772031893680597800,4.16059765625,-0.258847920063138,-1.1584472742959857,-1.0729651126477866
1772031893690546700,4.170546630859375,-0.2918471033453941,-1.5089002958670257,-1.2507238453246652
1772031893700495600,4.18049560546875,-0.5193085360199212,-1.9242055827073752,-1.0383134859833865
1772031893710444800,4.19044482421875,-0.7783423340439796,-1.992108613849431,-0.47372898036688565
1772031893720392700,4.200392822265625,-1.209018062365055,-1.8503499267712233,0.19808398355338722
1772031893730341600,4.210341552734375,-1.8112550569623707,-1.7531573805198073,0.9327263286132365
1772031893740290600,4.22029052734375,-2.454139119246602,-1.4150531145207583,1.6222560414120555
1772031893750239500,4.230239501953125,-3.005052169319987,-0.7081852403648197,2.2635282845854756
1772031893760188700,4.240188720703125,-3.494553011575341,0.18021321315690875,2.6986013710826633
1772031893770137900,4.250137939453125,-3.8650685779660936,1.2179470726214348,2.7336685928106306
1772031893780085500,4.26008544921875,-4.0467940953820944,2.1601905135773123,2.5874784991562363
1772031893790034700,4.27003466796875,-4.054173099717498,2.7162755594611165,2.3440008744433523
1772031893799983600,4.279983642578125,-3.8475989722490307,2.434540538676828,1.8161131645180284
1772031893809932800,4.289932861328125,-3.0265386094629765,1.7556512431621552,1.0167780190669
1772031893819881700,4.2998818359375,-1.9060107314556836,1.5401529277428985,0.5350872660405933
1772031893829830700,4.30983056640625,-0.8260106786698103,1.3896942168585955,0.46988830622546374
1772031893839779600,4.319779541015625,0.08399462650418281,1.214760697670281,0.5649027777854353
1772031893849727700,4.329727783203125,0.7765987052470446,0.9934843833714723,0.6802983585949987
1772031893859676700,4.3396767578125,1.404767428958416,0.7210201720185577,0.8638350170861929
1772031893869625600,4.34962548828125,1.945962218093872,0.34737127603814005,1.0328266520701348
1772031893879574800,4.35957470703125,2.2431775704741477,-0.007105009699612855,1.0674646155353635
1772031893889523700,4.369523681640625,2.410702713102102,-0.18368804966062308,1.034344728482887
1772031893899472600,4.37947265625,2.491955347421765,-0.18205007319524882,0.9553783054042607
1772031893909420800,4.3894208984375,2.4686405228078363,-0.11712868821248411,0.815834225635603
1772031893919369700,4.39936962890625,2.3049112653315067,-0.041802959723770614,0.6670896251928061
1772031893929318700,4.409318603515625,2.0707173095315694,0.0885217485398054,0.5365871492095291
1772031893939267600,4.419267578125,1.8278356048852205,0.22766791503205894,0.4308941933773458
1772031893949216500,4.429216552734375,1.5044605598539114,0.39819457756355403,0.3836626327335834
1772031893959165700,4.439165771484375,1.221456103655696,0.5354444089151918,0.35409400842189787
1772031893969113600,4.449113525390625,1.0770850421220064,0.5949719720304012,0.3080659783490002
1772031893979062500,4.4590625,1.119548219320178,0.5801020274177193,0.23052491189837454
1772031893989011700,4.46901171875,1.2395149074375629,0.49736792236864563,0.16793489247262477
1772031893998960600,4.478960693359375,1.3040537228435276,0.4453760154552758,0.15066680067703128
1772031894008909800,4.488909912109375,1.367754333859682,0.41135450338795776,0.12882530001867562
1772031894018858800,4.498858642578125,1.3923475078463554,0.30711364606022834,0.08594751413762569
1772031894028807700,4.5088076171875,1.4103133726477621,0.1786981324188411,0.02027096340600401
1772031894038755600,4.518755615234375,1.4005606249183415,0.09006956250369548,-0.06130045453924685
1772031894048704500,4.52870458984375,1.3182722178101538,0.014168518345057963,-0.1413655961073935
1772031894058653700,4.53865380859375,1.192566693779826,-0.053483606775850054,-0.20855395790776238
1772031894068602600,4.5486025390625,1.1300380491524935,-0.05528568776175379,-0.2573464842579327
1772031894078551800,4.5585517578125,1.053810549518466,-0.05634586433917284,-0.2876270014323294
1772031894088500700,4.568500732421875,0.9725719437241553,-0.05944660683348774,-0.30197237418163564
1772031894098448600,4.57844873046875,0.8627244985610246,-0.0554969924248755,-0.3210230020124465
1772031894108397800,4.588397705078125,0.7318143916249275,-0.04837722354754805,-0.3264657045230269
1772031894118346800,4.5983466796875,0.5224807363152504,-0.04974310507327318,-0.3034808790484443
1772031894128295700,4.608295654296875,0.3036281420320272,-0.012204817056655883,-0.1982709574928507
1772031894138244600,4.61824462890625,0.056795069411396976,-0.02668094004616141,-0.03263119022008031
1772031894148193500,4.628193603515625,-0.18323007676005362,-0.1588208810381591,0.19037088842540978
1772031894158141700,4.6381416015625,-0.3310655995339155,-0.3142909172784537,0.4574328388759866
1772031894168090600,4.648090576171875,-0.3928852191090584,-0.4912618605785072,0.692095398568362
1772031894178039600,4.65803955078125,-0.3769073132544756,-0.7805116409070789,0.8655753579474985
1772031894187988700,4.66798876953125,-0.23193185608685016,-1.1020413503326476,0.9989520011276006
1772031894197937700,4.677937744140625,0.03883563435077667,-1.4182904890067876,1.0434529677636921
1772031894207886600,4.687886474609375,0.41173897266089915,-1.6802657473102212,0.9560779781062155
1772031894217834800,4.697834716796875,0.7533639601320028,-1.8435718109384178,0.7435285756204277
1772031894227783700,4.70778369140625,0.905643018311262,-1.8910345499895511,0.3944422027600929
1772031894237732600,4.717732666015625,0.7902724258124828,-1.843611704557389,0.02425812877945136
1772031894247681500,4.727681640625,0.5492530079066753,-1.6583150506563484,-0.23464688719920812
1772031894257629700,4.737629638671875,0.2738619493216276,-1.380848500971496,-0.3398774131514132
1772031894267578600,4.74757861328125,-0.0689589699357748,-1.1357374298378824,-0.313161547922343
1772031894277527600,4.757527587890625,-0.45379766071140765,-0.9501150511138141,-0.19570096087437122
1772031894287475700,4.767475830078125,-0.8787836529582739,-0.8772226872518658,-0.066340348402597
1772031894297424600,4.777424560546875,-1.2876567147940396,-0.9607631402477621,0.02033376297652721
1772031894307373800,4.787373779296875,-1.5561773030877113,-1.1711902898825703,0.0007268895024433731
1772031894317322800,4.79732275390625,-1.49773037481606,-1.4058173764027655,-0.0872957504088059
1772031894327271700,4.807271728515625,-1.2376830158352852,-1.5429213695429265,-0.22486173503752796
1772031894337220600,4.817220703125,-0.9852548996865749,-1.577931892647594,-0.3816887388447299
1772031894347169500,4.82716943359375,-0.8339426407128572,-1.604140246745944,-0.5215321303535253
1772031894357117700,4.83711767578125,-0.941971638277173,-1.7337313800379632,-0.7535457464396953
1772031894367066600,4.847066650390625,-1.1205214482665062,-1.9731964081086217,-1.0451441357210278
1772031894377015600,4.857015625,-1.0937310564965008,-1.8665328536786139,-1.1270216239407658
1772031894386964500,4.866964599609375,-1.1670640037328004,-1.1856690432205796,-0.8983828911151737
1772031894396913700,4.87691357421875,-1.6497317850977182,-0.40229251440167424,-0.5565022483825683
1772031894406862800,4.88686279296875,-2.409453589823842,0.05488718996345997,-0.29930275311358273
1772031894416810800,4.896810791015625,-3.210858235025406,0.3434777757309377,-0.11120426659956574
1772031894426759700,4.906759765625,-3.6142169173538683,0.7877040366292,0.08054843157306313
1772031894436708600,4.91670849609375,-3.702790103819966,1.2115933196805417,0.1727504760608077
1772031894446657500,4.926657470703125,-3.4833600019097326,1.559125485368818,0.15229272137843072
1772031894456606700,4.936606689453125,-2.7840274916946885,1.763911414246261,-0.0005065612826496362
1772031894466555600,4.9465556640625,-1.9169038813918828,1.723039890153706,-0.2535388538695872
1772031894476504600,4.956504638671875,-1.1793652669012546,1.5653076811350881,-0.5090994228251278
1772031894486452500,4.966452392578125,-0.6621329526335,1.380774705082923,-0.7074104566000402
1772031894496401700,4.976401611328125,-0.3857371009200811,1.2571961100786924,-0.7990065710838884
1772031894506350800,4.986350830078125,-0.28886019648909567,1.24520391285941,-0.7817476124428212
1772031894516299800,4.9962998046875,-0.2818605468600988,1.2764772952623664,-0.6979507004678249
1772031894526248700,5.006248779296875,-0.2703191621482372,1.310410690654814,-0.5470373046185821
1772031894536197600,5.01619775390625,-0.23251228632330892,1.3188136312104761,-0.35649252093099054
1772031894546145800,5.026145751953125,-0.21579086862504482,1.3217878247156738,-0.10899813485741615
1772031894556094700,5.0360947265625,-0.10832768824994564,1.400861215300113,0.12371961091011761
1772031894566043600,5.046043701171875,0.056765843316912645,1.5375814698196946,0.3436345737278461
1772031894575992600,5.05599267578125,0.22666765194833277,1.6948703189849852,0.5274375550050288
1772031894585941500,5.06594140625,0.3771726861923933,1.840898061684519,0.6101229986067861
1772031894595890700,5.075890625,0.5262760369449854,1.973364896543324,0.6135731390606611
1772031894605839600,5.085839599609375,0.6909627412766218,2.0668783158905804,0.5986957417938857
1772031894615787800,5.095787841796875,0.9139981742024421,2.0861079170174897,0.5150489788793027
1772031894625736700,5.10573681640625,1.1482201870530844,2.005535373916477,0.3036639439977705
1772031894635685600,5.115685546875,1.3898328946769236,1.87849450962916,0.05145506009031087
1772031894645634600,5.125634521484375,1.7163211032927035,1.7785032725699246,-0.10421177736371755
1772031894655583700,5.135583740234375,2.16249309143126,1.6709725799165664,-0.17589279267452657
1772031894665532700,5.14553271484375,2.6040719065606592,1.48546798235327,-0.24414507564567028
1772031894675481600,5.155481689453125,2.925585833895206,1.1526583156310022,-0.3460536906335503
1772031894685429500,5.165429443359375,3.123071815022826,0.7102697915539145,-0.4180481192750856
1772031894695378700,5.175378662109375,3.1962422651737925,0.22972017138674855,-0.4294537122454494
1772031894705327900,5.185327880859375,3.1674148146182297,-0.18715207250937818,-0.3656975716497749
1772031894715276800,5.19527685546875,3.0342344246625896,-0.471460450913012,-0.2921804269529879
1772031894725225700,5.205225830078125,2.7444296407997606,-0.6391033747017383,-0.194945356734097
1772031894735174700,5.215174560546875,2.3334715893834828,-0.7114099014997481,-0.11874543922673911
1772031894745123600,5.22512353515625,1.8709616299062966,-0.7939332864075899,-0.04586392555236816
1772031894755071700,5.23507177734375,1.3708230737805365,-0.8646918531112372,0.030595519674010575
1772031894765020700,5.245020751953125,0.8458826693534851,-0.8761984587706625,0.1095352374088019
1772031894774969600,5.254969482421875,0.41004853535592556,-0.8393116204001009,0.22587299443930386
1772031894784918800,5.264918701171875,0.08518062141835689,-0.8080553352624178,0.33452728429511186
1772031894794867700,5.27486767578125,-0.14662965411543846,-0.8292337323695421,0.3557029049232602
1772031894804816600,5.284816650390625,-0.26889702039062974,-0.8897042754232883,0.31301622116751965
1772031894814765600,5.294765625,-0.26860943562090395,-0.931974122006446,0.2730477833945304
1772031894824713700,5.304713623046875,-0.23295710748136042,-0.9994207876831293,0.1991566908188164
1772031894834662700,5.31466259765625,-0.197200149923563,-1.135167813256383,0.14636786137409508
1772031894844611600,5.324611572265625,-0.14520342070460318,-1.2311964302949607,0.08306348313391208
1772031894854560500,5.334560546875,-0.10187515110969543,-1.3148125788755713,-0.02269420849755406
1772031894864509700,5.344509765625,-0.0859814164072275,-1.4319349834777413,-0.16101042697168885
1772031894874458600,5.354458740234375,-0.09920797772705554,-1.5293939255803823,-0.2689546688620001
1772031894884406500,5.364406494140625,-0.14445231007635592,-1.5273409385733305,-0.2468542615391314
1772031894894355700,5.374355712890625,-0.18082710727155207,-1.404909175516665,-0.1431828746624291
1772031894904304600,5.3843046875,-0.3201063986241817,-1.2160488377846776,-0.025866116531938314
1772031894914253800,5.39425390625,-0.593107347202301,-0.9611417643018066,0.10540376362726092
1772031894924202800,5.40420263671875,-0.8783353246688842,-0.6157002872824668,0.311203764918074
1772031894934151700,5.414151611328125,-1.0303700526982544,-0.2107715791583061,0.5262718722265214
1772031894944100600,5.4241005859375,-1.0528180313497781,0.10771087152585386,0.610517039425671
1772031894954049500,5.434049560546875,-1.150119298672676,0.30529914398416874,0.5985766454588621
1772031894963997700,5.443997802734375,-1.235723113939166,0.2555022628970444,0.3959794587973505
1772031894973946600,5.453946533203125,-1.017784127369523,-0.21925649890899657,-0.11135832465011626
1772031894983895800,5.463895751953125,-0.41267128507494927,-0.6583633709669113,-0.5768251977041363
1772031894993844700,5.4738447265625,0.06525427019894123,-1.0017159128829836,-0.8867993477620184
1772031895003793700,5.483793701171875,0.26489655257761474,-1.2255176540061832,-0.9918827933937311
1772031895013742600,5.49374267578125,0.3346078021854162,-1.1241564437679945,-0.8626863585077226
1772031895023690800,5.503690673828125,0.31118133389055724,-0.6517191106468438,-0.5120753698959947
1772031895033639700,5.5136396484375,0.1255401043355465,-0.014128624726086855,-0.10946019941121339
1772031895043588600,5.523588623046875,-0.166875154286623,0.6960374141924083,0.32078152140676974
1772031895053537500,5.53353759765625,-0.6441361081719398,1.395474846086651,0.7492331439375877
1772031895063486500,5.543486572265625,-1.3387263922959565,1.9523533804357052,1.0765236088469623
1772031895073436000,5.553435791015625,-2.058103327152133,2.2595834924824536,1.170225244242698
1772031895083384800,5.563384765625,-2.4917139398813246,2.241751483193785,1.012371089344844
1772031895093333800,5.573333740234375,-2.6870202388823032,2.1212075797103345,0.8125777811229229
1772031895103281700,5.58328173828125,-2.6244144373655316,2.091526434934884,0.697795509906113
1772031895113230600,5.593230712890625,-2.20374689283967,2.057879163007438,0.6420493650257587
1772031895123179800,5.6031796875,-1.5082763187497854,1.750753826509416,0.5334574728816748
1772031895133128700,5.613128662109375,-0.7704273231357336,1.2795944043695926,0.48151894012335683
1772031895143077600,5.62307763671875,-0.11940963875651359,0.8759855466723442,0.5480578067727386
1772031895153026600,5.633026611328125,0.35114509548842904,0.5452857117109,0.6364882237672805
1772031895162975500,5.6429755859375,0.6980863095462322,0.2747625514231622,0.6905844094835222
1772031895172923600,5.652923583984375,0.9622077860981225,0.09710866736024618,0.7312291390828788
1772031895182872800,5.662872802734375,1.1352274344891309,0.009960983652621507,0.7690591035224497
1772031895192821800,5.67282177734375,1.2517951278179884,-0.060749506125599144,0.737285224251449
1772031895202770700,5.682770751953125,1.233811727359891,-0.12338453373685479,0.6471320751175283
1772031895212719600,5.6927197265625,1.060022848162055,-0.11539119689539075,0.537587996815145
1772031895222668500,5.70266845703125,0.8334241697967052,-0.0411959337413311,0.4493695420708507
1772031895232617700,5.71261767578125,0.6465554442733525,0.0009594926819205283,0.39035844057779756
1772031895242565600,5.722565673828125,0.5433955140501261,-0.0125276192702353,0.37863125097025185
1772031895252514800,5.732514892578125,0.5463713149905205,-0.05214505164846778,0.3750915690694004
1772031895262463700,5.742463623046875,0.67951488006711,-0.13382789407894014,0.34085349164195355
1772031895272413000,5.752412841796875,0.8278226965278387,-0.2329008472494781,0.27085650216164064
1772031895282362000,5.762362060546875,0.9436714279323816,-0.3104590109653771,0.2356383459219709
1772031895292311000,5.77231103515625,1.0200678543925286,-0.38251711596027016,0.1990712592913769
1772031895302260000,5.782260009765625,1.1252683505326508,-0.44570159414783117,0.1411405734461732
1772031895312208000,5.792207763671875,1.2180524326920508,-0.5024412801101803,0.08590650627380236
1772031895322156800,5.80215673828125,1.2241314603447913,-0.5644334797732532,0.03837901315707713
1772031895332106000,5.81210595703125,1.1586959883600472,-0.6354936597719788,0.013913465871755033
1772031895342055000,5.822054931640625,1.0480962635248898,-0.6631392070665956,-0.02398215681570582
1772031895352003800,5.83200390625,0.8603484170794486,-0.6229910288125277,-0.028099894332839173
1772031895361953000,5.841953125,0.6414683502674102,-0.5627376356407999,0.031851529350783676
1772031895371902000,5.85190185546875,0.4722697214692831,-0.5129961380027235,0.14539849575213157
1772031895381850000,5.86185009765625,0.41889585867822166,-0.4602430374585092,0.21692396430820227
1772031895391799000,5.871799072265625,0.4515162717759609,-0.44613004869297146,0.25135486089400944
1772031895401748000,5.881748046875,0.5245183796226978,-0.42248453081995246,0.26137583110556006
1772031895411697000,5.89169677734375,0.5889695167452097,-0.4179502483911812,0.24390169534385203
1772031895421645800,5.901645751953125,0.6478221032083035,-0.40406317733600733,0.22779194327052682
1772031895431594800,5.9115947265625,0.7290162853389978,-0.38005642493516206,0.2005673065354116
1772031895441544000,5.9215439453125,0.8269383149087428,-0.40893063724189993,0.09105184240615927
1772031895451491800,5.931491943359375,0.8724223012328147,-0.5198451271146536,-0.03184470688435249
1772031895461440800,5.941440673828125,0.872567262661457,-0.6657584496542811,-0.16197178281713276
1772031895471390000,5.951389892578125,0.8362222760826349,-0.7640861374154686,-0.2244055887678638
1772031895481339000,5.9613388671875,0.7385854931950568,-0.8713606633506715,-0.2230458081893623
1772031895491288000,5.9712880859375,0.6815455091118812,-0.9712192139409482,-0.20100129577219486
1772031895501237000,5.981237060546875,0.6441659187883139,-1.0096604421466588,-0.10389337733061983
1772031895511186000,5.99118603515625,0.6063099431246519,-0.9939433791853487,-0.012861773994890972
1772031895521134800,6.001134765625,0.529081742015481,-0.9103406746082008,0.03399242297015153
1772031895531082800,6.011082763671875,0.4261877692520618,-0.7927427614487708,0.05607292001615278
1772031895541032000,6.021031982421875,0.25934301010370253,-0.6587094079256057,0.08929566465490497
1772031895550980900,6.03098095703125,0.024582652592658995,-0.5247587642498314,0.16128924391306937
1772031895560930000,6.040929931640625,-0.19622633645534515,-0.37821693454831834,0.23285481615066528
1772031895570879000,6.05087890625,-0.33947979213595386,-0.3042603024557233,0.2690980411217548
1772031895580828000,6.060827880859375,-0.4311076899975538,-0.3182319830544293,0.3261332211656496
1772031895590776800,6.07077685546875,-0.5411848522633314,-0.39112113204598425,0.3258312790770084
1772031895600725000,6.08072509765625,-0.6710761375457048,-0.5540791128888726,0.18088042662767692
1772031895610674000,6.090673828125,-0.7222007601052522,-0.7544102543145418,0.0559029337441083
1772031895620622800,6.100622802734375,-0.5670610517978668,-0.8921298951350152,-0.04562149509862065
1772031895630571800,6.11057177734375,-0.4500812705367803,-0.9597929800413548,-0.12461068713148124
1772031895640520700,6.120520751953125,-0.5035165081262588,-1.0124718463055788,-0.15271107465466482
1772031895650470100,6.13047021484375,-0.6016986499369144,-1.2386894163988529,-0.378151650759764
1772031895660419000,6.140419189453125,-0.661679948168993,-1.4016725316829979,-0.6659910893663764
1772031895670368000,6.150367919921875,-0.7136340072900056,-1.1603496007859706,-0.754606142212823
1772031895680316000,6.16031591796875,-0.8194178562760353,-0.5924944760009646,-0.5650480680076405
1772031895690264800,6.170264892578125,-0.9351467606931925,0.17525193748772144,-0.1975876879364252
1772031895700214000,6.180214111328125,-1.2157044082611799,0.833133662417531,0.08810944141186773
1772031895710163000,6.190162841796875,-1.478617678067088,1.2650618750177323,0.22565562536157666
1772031895720111900,6.20011181640625,-1.6433645881533623,1.5398421082280576,0.29405113446200265
1772031895730060800,6.210060791015625,-1.6733973228454588,1.747255170738697,0.3071533204834908
1772031895740010000,6.220010009765625,-1.538152401575446,1.9581895392432809,0.24805443110913036
1772031895749958000,6.2299580078125,-1.3429770354777575,2.038034352591634,0.05608869297401979
1772031895759907000,6.239906982421875,-1.1420166562378407,1.9251715051300822,-0.18241339008230714
1772031895769856000,6.24985595703125,-0.7588882765114306,1.716240147010982,-0.4386396198723465
1772031895779805000,6.259804931640625,-0.3409071945905685,1.4906728575199841,-0.6748962803557514
1772031895789753900,6.26975390625,-0.09437631978690623,1.3419384862102568,-0.7575893227420747
1772031895799702800,6.279702880859375,0.10073357985913753,1.2826719121187924,-0.7084604040443897
1772031895809652000,6.28965185546875,0.26398762103915213,1.2491820227101444,-0.6581099076624959
1772031895819600000,6.299599853515625,0.3776426417917013,1.1700091172739864,-0.6045924716822803
1772031895829548800,6.309548828125,0.43837797326147554,1.056370024742931,-0.5380712868200614
1772031895839497700,6.319497802734375,0.43650341156125066,0.9601846097074449,-0.3827586696311831
1772031895849447000,6.329447021484375,0.36500060236155984,0.9425102751985192,-0.15935918916594236
1772031895859396000,6.33939599609375,0.2587123109847307,0.9671953652523457,0.09288372487528249
1772031895869345000,6.349344970703125,0.09438976379036902,1.0252670304708182,0.2840312967616133
1772031895879294000,6.3592939453125,-0.03704641284644603,1.0723355095073581,0.3766480777963996
1772031895889241900,6.369241943359375,-0.10931202311217784,1.0494709128789603,0.3591925736699253
1772031895899190800,6.379190673828125,-0.07178162614107131,0.9821376444488763,0.27777004440976305
1772031895909140000,6.389139892578125,0.111409872174263,0.916123641923815,0.1974143954624422
1772031895919089000,6.3990888671875,0.421086646720767,0.831372059572488,0.1644340812774375
1772031895929037800,6.409037841796875,0.7654770072519779,0.6933088660113513,0.10969009917695074
1772031895938987000,6.418987060546875,1.061219948992133,0.5183958050891757,0.02735023130958434
1772031895948936000,6.42893603515625,1.3132611116498707,0.3007417729407549,-0.062406169025134295
1772031895958884900,6.438884765625,1.5008739335387944,0.07545359265208244,-0.17055035393433646
1772031895968833000,6.4488330078125,1.624489207291603,-0.15554069032371043,-0.30324137120414524
1772031895978782000,6.458781982421875,1.6552134313791989,-0.36658699477016926,-0.41838856674320996
1772031895988731000,6.46873095703125,1.5847037248700857,-0.5096994345448911,-0.4573017233096063
1772031895998679800,6.4786796875,1.5239239697366953,-0.6215666950978338,-0.43038175034318116
1772031896008628700,6.488628662109375,1.4833610732018947,-0.688292499154061,-0.4343805011231452
1772031896018578000,6.498577880859375,1.4521388364642858,-0.7250782152377069,-0.43963776406422256
1772031896028527000,6.508527099609375,1.3404016320317982,-0.679087886826694,-0.403285361363925
1772031896038475000,6.51847509765625,1.160109946811199,-0.5842682071864604,-0.33605712421089406
1772031896048424000,6.528423828125,0.9262941766738891,-0.4620013523679226,-0.2490497622894123
1772031896058372900,6.538372802734375,0.6317939284712076,-0.3916272549372166,-0.15214638084345497
1772031896068322000,6.548322021484375,0.3173702516585588,-0.34968306011185046,-0.11727927566431462
1772031896078271000,6.55827099609375,0.06540507684648036,-0.3415821712426841,-0.07772071560015902
1772031896088220000,6.568219970703125,-0.12950725440084934,-0.35322913522087035,-0.01952470248281024
1772031896098168800,6.5781689453125,-0.2439116322159767,-0.38962928605303165,0.01058407485387288
1772031896108117800,6.58811767578125,-0.23523382024168968,-0.44546771232672033,-0.012318406099500134
1772031896118066000,6.59806591796875,-0.16501579015552997,-0.44289720425158735,-0.0261303386923857
1772031896128014800,6.608014892578125,-0.12038462126851081,-0.4738705807946622,0.04308649672828614
1772031896137964000,6.617964111328125,-0.08104454452693462,-0.5883160943377763,0.004113810260687023
1772031896147913000,6.627912841796875,0.021953473132848737,-0.6676604838833212,-0.09821065551908686
1772031896157862000,6.63786181640625,0.22056933507323265,-0.625028306793794,-0.17719105232413856
1772031896167810800,6.647810791015625,0.29782793132066726,-0.6443376220934093,-0.22326867542611434
1772031896177760000,6.657760009765625,0.29243863949775695,-0.7122310816895217,-0.262213122179918
1772031896187709000,6.667708984375,0.21905834598839283,-0.784387021035701,-0.29674846552088857
1772031896197656800,6.67765673828125,0.08493278413712978,-0.8246840331759303,-0.26814337074542416
1772031896207605800,6.687605712890625,-0.028519992041587828,-0.7013058561146259,-0.20736756113478913
1772031896217554700,6.6975546875,-0.26773440635204315,-0.5341505697123706,-0.19006302805263547
1772031896227504000,6.707504150390625,-0.5291062919348478,-0.2843121777959168,-0.11868682264098897
1772031896237453000,6.717453125,-0.780359519085288,-0.059992842539399856,-0.15245253331633285
1772031896247402000,6.727402099609375,-1.0391542476564646,-0.14320333292856813,-0.37474140392486005
1772031896257350700,6.7373505859375,-1.013045408409834,-0.473523228661716,-0.7847573156528175
1772031896267298800,6.747298828125,-0.4141735063314438,-0.9674898181542754,-1.3557497155502438
1772031896277247700,6.757247802734375,-0.1221364333719015,-1.130573325072974,-1.5919067881166935
1772031896287196700,6.76719677734375,-0.13917875358760357,-0.9581402443982661,-1.1616079302839935
1772031896297145600,6.7771455078125,-0.16686814002394676,-1.0998621065974235,-0.7372861010342836
1772031896307094500,6.787094482421875,-0.2699672799706459,-1.12471977673918,-0.4081105164980516
1772031896317043700,6.797043701171875,-0.6025695875525474,-0.5406690116956829,0.06433554335224907
1772031896326992600,6.80699267578125,-1.2723743899881839,0.31988574161082506,0.5255342786669731
1772031896336941800,6.81694189453125,-1.9666455251604318,1.0429210528440773,0.8412599779888987
1772031896346889700,6.8268896484375,-2.555332717832923,1.6963623111084103,0.9038220134291798
1772031896356838700,6.836838623046875,-3.030722617149353,2.0915487928971648,0.7054191366523503
1772031896366787600,6.84678759765625,-3.3134804051101208,2.2641395483516153,0.5036984040318057
1772031896376736800,6.85673681640625,-3.293292772606015,2.2807152739688754,0.38837176027260717
1772031896386685700,6.866685791015625,-3.020156799471378,2.1399574344962833,0.5531898724315688
