time,seconds_elapsed,z,y,x
1772031889611542800,0.091542724609375,0.12863846123218536,0.010210394859313965,-0.021786997094750404
1772031889621491700,0.10149169921875,-0.012147421948611736,-0.345038503408432,0.12604959309101105
1772031889631440600,0.111440673828125,-0.1623820662498474,-0.5384345054626465,0.23597465455532074
1772031889641389600,0.1213896484375,-0.2883434593677521,-0.6229997277259827,0.31138738989830017
1772031889651338500,0.13133837890625,-0.35702618956565857,-0.6239649057388306,0.3353104591369629
1772031889661286700,0.14128662109375,-0.37267357110977173,-0.4739069938659668,0.3256032168865204
1772031889671235600,0.151235595703125,-0.3444399833679199,-0.2670067548751831,0.3280731439590454
1772031889681184800,0.161184814453125,-0.27065393328666687,-0.14494101703166962,0.34666547179222107
1772031889691133700,0.1711337890625,-0.14494018256664276,-0.0863129198551178,0.36562594771385193
1772031889701081900,0.181081787109375,-0.014136619865894318,-0.046022482216358185,0.3697751760482788
1772031889711030800,0.19103076171875,0.08044534176588058,-0.021424300968647003,0.35692471265792847
1772031889720979700,0.200979736328125,0.12167506664991379,-0.01304253377020359,0.3276600241661072
1772031889730928600,0.2109287109375,0.1208014041185379,-0.03485995531082153,0.2859804630279541
1772031889740877600,0.220877685546875,0.09551628679037094,-0.0598587803542614,0.22924846410751343
1772031889750825700,0.23082568359375,0.06874371320009232,-0.0970989316701889,0.16431266069412231
1772031889760774700,0.240774658203125,0.036069657653570175,-0.16821783781051636,0.11570623517036438
1772031889770723600,0.2507236328125,-0.0011043916456401348,-0.3214549124240875,0.11148231476545334
1772031889780672500,0.260672607421875,-0.03868638724088669,-0.5332755446434021,0.12172137200832367
1772031889790620700,0.27062060546875,-0.0687192901968956,-0.7259109616279602,0.11881595104932785
1772031889800569900,0.28056982421875,-0.08919713646173477,-0.8389225006103516,0.07307456433773041
1772031889810518800,0.290518798828125,-0.10646223276853561,-0.8733354210853577,-0.01189634669572115
1772031889820467700,0.3004677734375,-0.1341676414012909,-0.8528043031692505,-0.1178014725446701
1772031889830415600,0.31041552734375,-0.1734994351863861,-0.819661557674408,-0.21738088130950928
1772031889840364800,0.32036474609375,-0.20316359400749207,-0.7767537832260132,-0.30019694566726685
1772031889850313700,0.330313720703125,-0.215010404586792,-0.7171481847763062,-0.36398404836654663
1772031889860262700,0.3402626953125,-0.2182117998600006,-0.6206165552139282,-0.4140852987766266
1772031889870211600,0.350211669921875,-0.2161712348461151,-0.5058042407035828,-0.4546760320663452
1772031889880159700,0.36015966796875,-0.2291131317615509,-0.393229216337204,-0.4803720712661743
1772031889890108700,0.370108642578125,-0.2799365520477295,-0.3113989233970642,-0.46995049715042114
1772031889900057600,0.3800576171875,-0.34981071949005127,-0.26873430609703064,-0.4155663549900055
1772031889910006800,0.3900068359375,-0.40906617045402527,-0.2788148820400238,-0.32453814148902893
1772031889919954700,0.39995458984375,-0.45816633105278015,-0.3185199499130249,-0.23118025064468384
1772031889929903900,0.40990380859375,-0.49936673045158386,-0.3531990051269531,-0.15079370141029358
1772031889939852800,0.419852783203125,-0.534359872341156,-0.403607577085495,-0.08807174116373062
1772031889949801700,0.4298017578125,-0.5789145231246948,-0.4600412845611572,-0.028345756232738495
1772031889959749600,0.43974951171875,-0.638821005821228,-0.5021557211875916,0.03300867974758148
1772031889969698600,0.449698486328125,-0.7089154720306396,-0.49211975932121277,0.07913780957460403
1772031889979647700,0.459647705078125,-0.7818578481674194,-0.4573010802268982,0.11019932478666306
1772031889989596700,0.4695966796875,-0.8654472231864929,-0.3782930076122284,0.12845611572265625
1772031889999544600,0.479544677734375,-0.9394197463989258,-0.25341764092445374,0.14462922513484955
1772031890009493500,0.489493408203125,-0.987614095211029,-0.11378464847803116,0.15271179378032684
1772031890019442400,0.4994423828125,-0.9914599657058716,0.05211803689599037,0.13902980089187622
1772031890029392000,0.509391845703125,-0.9597490429878235,0.196327343583107,0.1344641149044037
1772031890039340800,0.5193408203125,-0.9210320115089417,0.30781659483909607,0.15841259062290192
1772031890049288700,0.529288818359375,-0.885100245475769,0.38049760460853577,0.24466319382190704
1772031890059237600,0.539237548828125,-0.8591573238372803,0.3991570472717285,0.3870605528354645
1772031890069186600,0.5491865234375,-0.8431753516197205,0.3350370526313782,0.5778549313545227
1772031890079135700,0.5591357421875,-0.8180859684944153,0.1755448877811432,0.7917603254318237
1772031890089083600,0.569083740234375,-0.7844598293304443,-0.07823294401168823,0.9982216358184814
1772031890099032600,0.579032470703125,-0.7786014080047607,-0.380928635597229,1.1650543212890625
1772031890108981500,0.5889814453125,-0.771328866481781,-0.6415144205093384,1.2425488233566284
1772031890118930700,0.5989306640625,-0.775204062461853,-0.8479421734809875,1.2229218482971191
1772031890128878600,0.608878662109375,-0.775994598865509,-0.9453865885734558,1.106184959411621
1772031890138827500,0.61882763671875,-0.7710767984390259,-0.8769830465316772,0.9028675556182861
1772031890148776700,0.628776611328125,-0.7546643614768982,-0.6853784918785095,0.6585217714309692
1772031890158725600,0.6387255859375,-0.7066837549209595,-0.35035383701324463,0.4035632312297821
1772031890168673800,0.648673828125,-0.6120192408561707,0.052781421691179276,0.15808750689029694
1772031890178622700,0.658622802734375,-0.540416419506073,0.3851354122161865,-0.013869598507881165
1772031890188571600,0.668571533203125,-0.5124990344047546,0.5200687646865845,-0.06334787607192993
1772031890198520600,0.6785205078125,-0.5039383172988892,0.4678593575954437,-0.0063112229108810425
1772031890208468700,0.68846875,-0.4928455054759979,0.29812347888946533,0.12993009388446808
1772031890218417700,0.698417724609375,-0.47104382514953613,0.07348265498876572,0.3465481400489807
1772031890228366600,0.70836669921875,-0.4386763870716095,-0.06525120139122009,0.570327877998352
1772031890238315500,0.7183154296875,-0.43149811029434204,-0.14428557455539703,0.7385885119438171
1772031890248265500,0.728265380859375,-0.4425281584262848,-0.15127643942832947,0.8066558241844177
1772031890258213600,0.738213623046875,-0.4436376392841339,-0.07357071340084076,0.7567436099052429
1772031890268162600,0.74816259765625,-0.41231629252433777,0.0554782971739769,0.601570188999176
1772031890278111500,0.758111572265625,-0.37386050820350647,0.15928831696510315,0.37039583921432495
1772031890288060400,0.768060302734375,-0.3506348133087158,0.16875873506069183,0.11756124347448349
1772031890298008300,0.77800830078125,-0.3489525020122528,0.08360867947340012,-0.1272120177745819
1772031890307957500,0.78795751953125,-0.35429251194000244,-0.022565526887774467,-0.3615885078907013
1772031890317906400,0.797906494140625,-0.36005958914756775,-0.09456248581409454,-0.571363627910614
1772031890327855400,0.80785546875,-0.3872334063053131,-0.031030435115098953,-0.7292847037315369
1772031890337803300,0.81780322265625,-0.42404308915138245,0.09123795479536057,-0.8059621453285217
1772031890347752400,0.82775244140625,-0.4522809088230133,0.17853125929832458,-0.7894145846366882
1772031890357701400,0.837701416015625,-0.4541182219982147,0.20863322913646698,-0.6828482151031494
1772031890367650600,0.847650634765625,-0.42888709902763367,0.18038104474544525,-0.5031914114952087
1772031890377598500,0.857598388671875,-0.3836439847946167,0.063947893679142,-0.26759591698646545
1772031890387547400,0.86754736328125,-0.34124305844306946,-0.08621598780155182,-0.015218478627502918
1772031890397496600,0.87749658203125,-0.3115205764770508,-0.2204350382089615,0.19116371870040894
1772031890407445500,0.887445556640625,-0.30287492275238037,-0.31831812858581543,0.3434274196624756
1772031890417393400,0.897393310546875,-0.32057803869247437,-0.3950866758823395,0.4392665922641754
1772031890427342300,0.90734228515625,-0.3532136082649231,-0.45347100496292114,0.48012202978134155
1772031890437291300,0.917291259765625,-0.3888549506664276,-0.4716028571128845,0.4606844186782837
1772031890447240400,0.927240478515625,-0.4018840193748474,-0.43488630652427673,0.3851054310798645
1772031890457189400,0.937189453125,-0.39775747060775757,-0.37095391750335693,0.2583402693271637
1772031890467137300,0.94713720703125,-0.36713048815727234,-0.2828405499458313,0.10250905156135559
1772031890477086200,0.957086181640625,-0.3173600137233734,-0.17357347905635834,-0.06958948075771332
1772031890487035400,0.967035400390625,-0.24992558360099792,-0.06405811011791229,-0.22518907487392426
1772031890496984600,0.976984619140625,-0.17384199798107147,0.028882212936878204,-0.35202929377555847
1772031890506932500,0.986932373046875,-0.10648760944604874,0.1020185798406601,-0.44842877984046936
1772031890516881400,0.99688134765625,-0.047322820872068405,0.1716221570968628,-0.533294141292572
1772031890526830300,1.006830322265625,0.006778364069759846,0.21961532533168793,-0.5883535146713257
1772031890536779500,1.016779541015625,0.05036525800824165,0.23043440282344818,-0.5881010293960571
1772031890546727400,1.0267275390625,0.09484090656042099,0.20752061903476715,-0.542530357837677
1772031890556676400,1.03667626953125,0.13116882741451263,0.18509121239185333,-0.4682185649871826
1772031890566625300,1.046625244140625,0.1577492654323578,0.1582973748445511,-0.37329357862472534
1772031890576574200,1.05657421875,0.17640763521194458,0.12802840769290924,-0.27335527539253235
1772031890586522400,1.0665224609375,0.17993316054344177,0.09822368621826172,-0.16627387702465057
1772031890596471300,1.07647119140625,0.17565932869911194,0.055580880492925644,-0.05488050729036331
1772031890606420500,1.08642041015625,0.17550596594810486,0.014886986464262009,0.04901426285505295
1772031890616369400,1.096369384765625,0.1685822755098343,-0.020563948899507523,0.1414259523153305
1772031890626317600,1.106317626953125,0.16434717178344727,-0.03607127442955971,0.21675743162631989
1772031890636266500,1.1162666015625,0.1551872193813324,-0.0365477129817009,0.2748686671257019
1772031890646215400,1.12621533203125,0.14848729968070984,-0.018143564462661743,0.31744876503944397
1772031890656164400,1.136164306640625,0.14626489579677582,0.030821580439805984,0.34694167971611023
1772031890666113300,1.14611328125,0.14238709211349487,0.08686184138059616,0.3949779272079468
1772031890676061400,1.1560615234375,0.14173674583435059,0.14036980271339417,0.4712229073047638
1772031890686010400,1.16601025390625,0.13919760286808014,0.190505251288414,0.5361363291740417
1772031890695959300,1.175959228515625,0.13784818351268768,0.24647638201713562,0.5705211758613586
1772031890705908500,1.185908447265625,0.12822243571281433,0.3164176940917969,0.5821015238761902
1772031890715856400,1.1958564453125,0.10568491369485855,0.3788056969642639,0.5703980326652527
1772031890725805600,1.2058056640625,0.07319903373718262,0.43988850712776184,0.535626232624054
1772031890735754500,1.21575439453125,0.05068599432706833,0.4888123571872711,0.49197059869766235
1772031890745703400,1.225703369140625,0.023968521505594254,0.5053586959838867,0.45442864298820496
1772031890755651600,1.235651611328125,-0.0019142096862196922,0.4303678274154663,0.43041864037513733
1772031890765600500,1.2456005859375,-0.04658730700612068,0.2914765477180481,0.4030025601387024
1772031890775549400,1.255549560546875,-0.07872659713029861,0.2109747976064682,0.3310476839542389
1772031890785498400,1.265498291015625,-0.07377633452415466,0.26960423588752747,0.19150502979755402
1772031890795446300,1.2754462890625,-0.03631231561303139,0.423857182264328,0.0026972999330610037
1772031890805395500,1.2853955078125,0.015509752556681633,0.6056429743766785,-0.2028672695159912
1772031890815344400,1.295344482421875,0.07434990257024765,0.7988473176956177,-0.4201902747154236
1772031890825293300,1.305293212890625,0.13485701382160187,0.9959836006164551,-0.6521852016448975
1772031890835241200,1.3152412109375,0.1975715160369873,1.167554259300232,-0.8655246496200562
1772031890845190400,1.3251904296875,0.24593934416770935,1.2331739664077759,-1.0420029163360596
1772031890855139600,1.3351396484375,0.2818872034549713,1.1327168941497803,-1.1737383604049683
1772031890865088500,1.345088623046875,0.29229435324668884,0.8624045252799988,-1.2604840993881226
1772031890875037400,1.355037353515625,0.26363101601600647,0.4397730827331543,-1.280867338180542
1772031890884985300,1.3649853515625,0.20604893565177917,-0.062175631523132324,-1.2260738611221313
1772031890894934500,1.3749345703125,0.1129663959145546,-0.5783524513244629,-1.0723040103912354
1772031890904883500,1.384883544921875,-0.003764609107747674,-1.0381121635437012,-0.8192146420478821
1772031890914832400,1.394832275390625,-0.12739866971969604,-1.4201769828796387,-0.47552409768104553
1772031890924780300,1.4047802734375,-0.22169476747512817,-1.7126965522766113,-0.07354890555143356
1772031890934729200,1.414729248046875,-0.22751112282276154,-1.8011609315872192,0.317018061876297
1772031890944678400,1.424678466796875,-0.15335755050182343,-1.5993950366973877,0.6240275502204895
1772031890954627600,1.434627685546875,-0.14192752540111542,-1.2462118864059448,0.8192641735076904
1772031890964575500,1.444575439453125,-0.20005685091018677,-0.7999659776687622,0.8863124847412109
1772031890974524400,1.4545244140625,-0.26159772276878357,-0.3594304323196411,0.8710064888000488
1772031890984473300,1.464473388671875,-0.2645341157913208,0.04760866239666939,0.8184283375740051
1772031890994422500,1.474422607421875,-0.20108482241630554,0.4021957814693451,0.7186471223831177
1772031891004370400,1.484370361328125,-0.09391480684280396,0.660811722278595,0.5600213408470154
1772031891014319400,1.4943193359375,0.03597075492143631,0.8261897563934326,0.3446946442127228
1772031891024268300,1.504268310546875,0.1914701908826828,0.8485481142997742,0.10825411230325699
1772031891034217500,1.514217529296875,0.36904871463775635,0.7565971612930298,-0.127598375082016
1772031891044166400,1.52416650390625,0.5640358328819275,0.5782557725906372,-0.3402877449989319
1772031891054114300,1.5341142578125,0.7432569861412048,0.33641842007637024,-0.5140526294708252
1772031891064063200,1.544063232421875,0.873536229133606,0.09865406155586243,-0.6365326046943665
1772031891074012400,1.554012451171875,0.96446692943573,-0.11998986452817917,-0.7031981945037842
1772031891083961600,1.563961669921875,1.0089253187179565,-0.30154573917388916,-0.7229297161102295
1772031891093909500,1.573909423828125,1.0070477724075317,-0.43480420112609863,-0.6963505744934082
1772031891103858400,1.5838583984375,0.9742341637611389,-0.5189813375473022,-0.6381285190582275
1772031891113807400,1.593807373046875,0.9370535016059875,-0.540653645992279,-0.5643250942230225
1772031891123756300,1.60375634765625,0.8952869772911072,-0.5052486658096313,-0.49763762950897217
1772031891133704400,1.613704345703125,0.8372995853424072,-0.4359143376350403,-0.44640615582466125
1772031891143653400,1.6236533203125,0.7709964513778687,-0.3420350253582001,-0.42380836606025696
1772031891153602300,1.633602294921875,0.6905503273010254,-0.25408437848091125,-0.43316060304641724
1772031891163551200,1.64355126953125,0.5879002213478088,-0.17677225172519684,-0.46767979860305786
1772031891173500400,1.65350048828125,0.4583398401737213,-0.10678064078092575,-0.5291585922241211
1772031891183448300,1.6634482421875,0.3010762333869934,-0.009680943563580513,-0.6111554503440857
1772031891193397500,1.6733974609375,0.12770366668701172,0.09968602657318115,-0.6988013982772827
1772031891203346400,1.683346435546875,-0.045258406549692154,0.2113058865070343,-0.7669660449028015
1772031891213295400,1.69329541015625,-0.17981646955013275,0.323370099067688,-0.7895392179489136
1772031891223243500,1.703243408203125,-0.26330840587615967,0.4156029522418976,-0.7286383509635925
1772031891233192400,1.7131923828125,-0.26516062021255493,0.5051698684692383,-0.5832007527351379
1772031891243141400,1.723141357421875,-0.18982303142547607,0.5922862887382507,-0.38043537735939026
1772031891253093600,1.73309375,-0.05123986676335335,0.6703395247459412,-0.1784101128578186
1772031891263042800,1.743042724609375,0.11801362782716751,0.7168092131614685,-0.011890504509210587
1772031891272990700,1.75299072265625,0.289781391620636,0.692039966583252,0.09033013880252838
1772031891282940000,1.76293994140625,0.433558851480484,0.6079270839691162,0.1251470446586609
1772031891292888800,1.772888916015625,0.5345070362091064,0.5062934160232544,0.12218375504016876
1772031891302837800,1.782837646484375,0.5892277359962463,0.40541955828666687,0.09883534908294678
1772031891312786000,1.792785888671875,0.5950387716293335,0.287804514169693,0.08359833806753159
1772031891322734800,1.80273486328125,0.5636221766471863,0.17220109701156616,0.07605049014091492
1772031891332683800,1.812683837890625,0.5182579159736633,0.08800952881574631,0.06332670897245407
1772031891342632700,1.8226328125,0.46283477544784546,0.05024642497301102,0.03944075107574463
1772031891352580900,1.832580810546875,0.3995383679866791,0.04881257936358452,0.013081848621368408
1772031891362529800,1.84252978515625,0.32680484652519226,0.07699436694383621,-0.016508862376213074
1772031891372478700,1.852478759765625,0.2581791877746582,0.09234562516212463,-0.024083424359560013
1772031891382427600,1.862427734375,0.2227739542722702,0.11381357908248901,-0.009781278669834137
1772031891392376800,1.872376953125,0.21804657578468323,0.1366339474916458,-0.0111773069947958
1772031891402324700,1.88232470703125,0.22234059870243073,0.1566387414932251,-0.01854919269680977
1772031891412274000,1.89227392578125,0.2245856374502182,0.15915755927562714,-0.007521042600274086
1772031891422222800,1.902222900390625,0.23248563706874847,0.14725589752197266,0.011389264836907387
1772031891432171800,1.912171875,0.23825564980506897,0.11886925995349884,0.018079392611980438
1772031891442120000,1.922119873046875,0.22909826040267944,0.0922304019331932,-0.0004949187859892845
1772031891452068900,1.93206884765625,0.20855410397052765,0.06568561494350433,-0.04010278359055519
1772031891462017800,1.942017822265625,0.18703071773052216,0.030041184276342392,-0.08754241466522217
1772031891471966700,1.951966796875,0.16120603680610657,-0.015716448426246643,-0.12075656652450562
1772031891481915600,1.96191552734375,0.13482153415679932,-0.07191181927919388,-0.12650452554225922
1772031891491863800,1.97186376953125,0.11542786657810211,-0.13432219624519348,-0.12353964149951935
1772031891501812700,1.981812744140625,0.09704113751649857,-0.2098514586687088,-0.10857101529836655
1772031891511762000,1.991761962890625,0.07870021462440491,-0.28068965673446655,-0.09941373765468597
1772031891521710800,2.0017109375,0.05745349079370499,-0.347726434469223,-0.08599314838647842
1772031891531659000,2.011658935546875,0.039329349994659424,-0.40277424454689026,-0.06545298546552658
1772031891541608000,2.02160791015625,0.008185777813196182,-0.46744951605796814,-0.036674614995718
1772031891551556900,2.031556884765625,-0.022797171026468277,-0.54759281873703,-0.01334239449352026
1772031891561505800,2.041505859375,-0.06183508411049843,-0.6545794606208801,0.005159616935998201
1772031891571454700,2.051454833984375,-0.08928056061267853,-0.782127857208252,0.0156032033264637
1772031891581403000,2.06140283203125,-0.09509506821632385,-0.8299744725227356,-0.021052777767181396
1772031891591351800,2.071351806640625,-0.047707583755254745,-0.7204274535179138,-0.13669095933437347
1772031891601300700,2.08130078125,0.013756678439676762,-0.48602718114852905,-0.3031480312347412
1772031891611249700,2.091249755859375,0.06581588834524155,-0.1592588871717453,-0.47547292709350586
1772031891621197800,2.10119775390625,0.0868108794093132,0.17801658809185028,-0.6132686734199524
1772031891631147000,2.11114697265625,0.05297515541315079,0.46836453676223755,-0.6763978600502014
1772031891641096000,2.121095947265625,-0.019829200580716133,0.6464395523071289,-0.5836862325668335
1772031891651044900,2.131044921875,-0.1222493126988411,0.616759181022644,-0.2928527891635895
1772031891660993800,2.140993896484375,-0.2275288701057434,0.3717326819896698,0.16970530152320862
1772031891670942000,2.15094189453125,-0.3301868140697479,0.009039186872541904,0.7092955708503723
1772031891680891000,2.160890869140625,-0.4246535301208496,-0.3341342508792877,1.187147855758667
1772031891690839800,2.17083984375,-0.5262842178344727,-0.5886275768280029,1.5185893774032593
1772031891700788700,2.180788818359375,-0.6285607218742371,-0.7405484914779663,1.6864213943481445
1772031891710736600,2.190736572265625,-0.7151219844818115,-0.784653902053833,1.729373574256897
1772031891720685800,2.200685791015625,-0.7822586894035339,-0.7531099915504456,1.6953791379928589
1772031891730634800,2.210634765625,-0.8262754082679749,-0.6450698375701904,1.609663963317871
1772031891740584000,2.220583984375,-0.8528745174407959,-0.48772352933883667,1.4784431457519531
1772031891750532900,2.230532958984375,-0.8637136220932007,-0.3095220923423767,1.3072831630706787
1772031891760480800,2.240480712890625,-0.8594792485237122,-0.12640492618083954,1.1043435335159302
1772031891770430000,2.250429931640625,-0.8290302753448486,0.06249496340751648,0.8622800707817078
1772031891780379000,2.26037890625,-0.7687208652496338,0.2696667015552521,0.5682275295257568
1772031891790327800,2.270327880859375,-0.6805835962295532,0.44215431809425354,0.2261815071105957
1772031891800275700,2.280275634765625,-0.5727736949920654,0.529927670955658,-0.11173027753829956
1772031891810225000,2.290224853515625,-0.4441573917865753,0.48014122247695923,-0.39205753803253174
1772031891820173800,2.300173828125,-0.2885573208332062,0.2954452335834503,-0.5469356179237366
1772031891830122800,2.310122802734375,-0.13432437181472778,-0.015039648860692978,-0.566032350063324
1772031891840071700,2.32007177734375,-0.0071631502360105515,-0.3885580897331238,-0.4662662744522095
1772031891850019600,2.33001953125,0.05886087194085121,-0.7491119503974915,-0.29988792538642883
1772031891859969000,2.339968994140625,0.05292375385761261,-1.0509494543075562,-0.11313176155090332
1772031891869918000,2.34991796875,-0.01832166314125061,-1.2430877685546875,0.07293930649757385
1772031891879867000,2.359866943359375,-0.12128937244415283,-1.3322008848190308,0.25305747985839844
1772031891889815800,2.36981591796875,-0.24029485881328583,-1.308120846748352,0.41997429728507996
1772031891899763700,2.379763671875,-0.3766721487045288,-1.2060168981552124,0.5727448463439941
1772031891909713000,2.389712890625,-0.5072978138923645,-1.0444445610046387,0.6991962194442749
1772031891919661800,2.399661865234375,-0.6247199773788452,-0.8553640842437744,0.7997087240219116
1772031891929610800,2.40961083984375,-0.7216616868972778,-0.6593179106712341,0.8559792041778564
1772031891939558700,2.41955859375,-0.7852221727371216,-0.47834333777427673,0.864398181438446
1772031891949507800,2.4295078125,-0.8096486330032349,-0.33590230345726013,0.821432888507843
1772031891959456800,2.439456787109375,-0.8036794066429138,-0.2441658228635788,0.7255959510803223
1772031891969406000,2.449406005859375,-0.7585726380348206,-0.20264554023742676,0.5995575785636902
1772031891979355000,2.45935498046875,-0.6856313347816467,-0.20843075215816498,0.4543643593788147
1772031891989302800,2.469302734375,-0.5843494534492493,-0.226117342710495,0.2993452250957489
1772031891999252000,2.479251953125,-0.45530518889427185,-0.22892004251480103,0.13296103477478027
1772031892009201000,2.489200927734375,-0.3171665072441101,-0.2096153199672699,-0.03454728424549103
1772031892019149800,2.49914990234375,-0.17460854351520538,-0.1631784439086914,-0.19665572047233582
1772031892029098800,2.5090986328125,-0.03407486155629158,-0.09482628107070923,-0.33866584300994873
1772031892039046700,2.519046630859375,0.09748192131519318,-0.014623488299548626,-0.45284023880958557
1772031892048995800,2.528995849609375,0.2071245312690735,0.08127614110708237,-0.543767511844635
1772031892058944800,2.53894482421875,0.29128962755203247,0.17407111823558807,-0.6020537614822388
1772031892068894000,2.54889404296875,0.3500402867794037,0.24445712566375732,-0.6246496438980103
1772031892078841600,2.558841552734375,0.3811269700527191,0.29664480686187744,-0.6101927161216736
1772031892088790800,2.568790771484375,0.39823299646377563,0.32467031478881836,-0.5736397504806519
1772031892098740000,2.578739990234375,0.4034207761287689,0.3477449119091034,-0.5284415483474731
1772031892108689000,2.58868896484375,0.3935966491699219,0.3591022193431854,-0.46581360697746277
1772031892118637800,2.598637939453125,0.39440473914146423,0.35136693716049194,-0.3858535885810852
1772031892128585700,2.608585693359375,0.4105008840560913,0.335827112197876,-0.3131125271320343
1772031892138535000,2.618534912109375,0.43481823801994324,0.3149263858795166,-0.24370276927947998
1772031892148483800,2.62848388671875,0.4699717164039612,0.2886766791343689,-0.20106209814548492
1772031892158432800,2.638432861328125,0.5147628784179688,0.2714560925960541,-0.1735706627368927
1772031892168381700,2.648381591796875,0.5633817911148071,0.2708193063735962,-0.1549498438835144
1772031892178329600,2.65832958984375,0.5991562604904175,0.2853397727012634,-0.1232636347413063
1772031892188278800,2.66827880859375,0.6334471702575684,0.3095524311065674,-0.06365596503019333
1772031892198228000,2.67822802734375,0.673395574092865,0.36090797185897827,-0.002509912010282278
1772031892208177000,2.688177001953125,0.7155480980873108,0.43785762786865234,0.017827317118644714
1772031892218125800,2.698125732421875,0.751251220703125,0.5412130951881409,-0.01982053741812706
1772031892228073700,2.70807373046875,0.784354031085968,0.6632066965103149,-0.12656375765800476
1772031892238023000,2.71802294921875,0.8237012624740601,0.7911937236785889,-0.29261839389801025
1772031892247971800,2.727971923828125,0.8695324063301086,0.879435658454895,-0.4794905483722687
1772031892257917700,2.737917724609375,0.9144326448440552,0.9050343036651611,-0.632780134677887
1772031892267866600,2.74786669921875,0.9408442378044128,0.8543117642402649,-0.7145945429801941
1772031892277814500,2.757814453125,0.931165874004364,0.744486391544342,-0.6969185471534729
1772031892287763700,2.767763671875,0.8801701068878174,0.5604760646820068,-0.5804132223129272
1772031892297712600,2.777712646484375,0.7827100157737732,0.33401429653167725,-0.36978402733802795
1772031892307661600,2.78766162109375,0.6505668759346008,0.12219367176294327,-0.10928906500339508
1772031892317610500,2.797610595703125,0.5008964538574219,-0.044652946293354034,0.1552899032831192
1772031892327558400,2.807558349609375,0.35579222440719604,-0.16375775635242462,0.401846706867218
1772031892337507600,2.817507568359375,0.21947987377643585,-0.2507075369358063,0.6195108890533447
1772031892347456500,2.82745654296875,0.10697917640209198,-0.30596229434013367,0.8075146079063416
1772031892357405700,2.83740576171875,0.02659442648291588,-0.32316532731056213,0.9697174429893494
1772031892367354600,2.847354736328125,-0.0216671135276556,-0.2983228266239166,1.090272307395935
1772031892377302500,2.857302490234375,-0.057817474007606506,-0.22452542185783386,1.146299958229065
1772031892387251700,2.867251708984375,-0.0732201412320137,-0.13094088435173035,1.1497231721878052
1772031892397200600,2.87720068359375,-0.06764493882656097,-0.04835180193185806,1.0975757837295532
1772031892407149600,2.887149658203125,-0.044546544551849365,0.02212902531027794,0.996299147605896
1772031892417097500,2.897097412109375,0.000610442366451025,0.08728176355361938,0.8585779666900635
1772031892427046700,2.907046630859375,0.05353304371237755,0.14582256972789764,0.6884791851043701
1772031892436995600,2.91699560546875,0.1167823076248169,0.20414425432682037,0.5004005432128906
1772031892446944500,2.926944580078125,0.1847006380558014,0.2708790898323059,0.3046400547027588
1772031892456893400,2.9368935546875,0.259928435087204,0.3203544318675995,0.121813103556633
1772031892466841300,2.94684130859375,0.33013519644737244,0.3369467258453369,-0.05225909501314163
1772031892476790500,2.95679052734375,0.3936755061149597,0.34643885493278503,-0.1973675638437271
1772031892486739700,2.96673974609375,0.4495534300804138,0.34459036588668823,-0.31229788064956665
1772031892496688600,2.976688720703125,0.491402268409729,0.3300190269947052,-0.3859478235244751
1772031892506637600,2.986637451171875,0.5181036591529846,0.32007744908332825,-0.4376906454563141
1772031892516586500,2.99658642578125,0.5377464890480042,0.30358126759529114,-0.478582501411438
1772031892526534700,3.00653466796875,0.5392879247665405,0.2864941656589508,-0.5078083276748657
1772031892536483600,3.016483642578125,0.532488226890564,0.2641810476779938,-0.5205585956573486
1772031892546432500,3.0264326171875,0.5113365650177002,0.22885610163211823,-0.5007641315460205
1772031892556381400,3.03638134765625,0.49547624588012695,0.19741958379745483,-0.4654405117034912
1772031892566329600,3.04632958984375,0.48675253987312317,0.15779253840446472,-0.4548312723636627
1772031892576278500,3.056278564453125,0.5032358765602112,0.12999354302883148,-0.4983294606208801
1772031892586227700,3.066227783203125,0.5232524871826172,0.0860535204410553,-0.5843844413757324
1772031892596176600,3.0761767578125,0.5404676198959351,0.039531536400318146,-0.6875343322753906
1772031892606125600,3.08612548828125,0.5567797422409058,0.01175103709101677,-0.7970941066741943
1772031892616074500,3.096074462890625,0.5656349658966064,0.018888620659708977,-0.9159865975379944
1772031892626022700,3.106022705078125,0.5692552924156189,0.033263031393289566,-1.0190199613571167
1772031892635971600,3.1159716796875,0.5819300413131714,0.05725464969873428,-1.1057924032211304
1772031892645920500,3.12592041015625,0.5971084833145142,0.09571096301078796,-1.1706302165985107
1772031892655869400,3.135869384765625,0.6180471777915955,0.17418208718299866,-1.2324515581130981
1772031892665818400,3.145818359375,0.6204999685287476,0.27390655875205994,-1.2974143028259277
1772031892675766500,3.1557666015625,0.5812318325042725,0.3614794909954071,-1.3348076343536377
1772031892685715500,3.165715576171875,0.5119169354438782,0.41708096861839294,-1.3214142322540283
1772031892695664600,3.17566455078125,0.44321727752685547,0.4902814030647278,-1.2705007791519165
1772031892705613600,3.185613525390625,0.37062323093414307,0.5675495266914368,-1.1945804357528687
1772031892715562500,3.1955625,0.27981147170066833,0.6204161047935486,-1.090590238571167
1772031892725510700,3.2055107421875,0.18283408880233765,0.6384867429733276,-0.9556682705879211
1772031892735459600,3.21545947265625,0.09291283041238785,0.6630018949508667,-0.8081169724464417
1772031892745408500,3.225408447265625,0.0239044688642025,0.6775968074798584,-0.6245572566986084
1772031892755357400,3.235357421875,-0.01133381575345993,0.642027735710144,-0.4123076796531677
1772031892765306400,3.245306396484375,-0.0185491181910038,0.5597714781761169,-0.1932445913553238
1772031892775254500,3.255254638671875,-0.02321525290608406,0.4736596643924713,0.018482135608792305
1772031892785203500,3.265203369140625,-0.04917680844664574,0.37405556440353394,0.20831066370010376
1772031892795152400,3.27515234375,-0.10849377512931824,0.29583999514579773,0.38173484802246094
1772031892805101600,3.2851015625,-0.1856575459241867,0.24691930413246155,0.4995267391204834
1772031892815050500,3.295050537109375,-0.27052661776542664,0.2422592043876648,0.5729472637176514
1772031892824998700,3.30499853515625,-0.3355977535247803,0.253788024187088,0.6119298338890076
1772031892834947600,3.314947509765625,-0.374991774559021,0.2712170481681824,0.6155598163604736
1772031892844896500,3.324896484375,-0.38490059971809387,0.2993685007095337,0.5923735499382019
1772031892854845400,3.334845458984375,-0.3671293258666992,0.32264506816864014,0.5631868839263916
1772031892864794400,3.34479443359375,-0.3257416784763336,0.3059838116168976,0.5176122188568115
1772031892874743600,3.35474365234375,-0.2725664973258972,0.283851683139801,0.4546334743499756
1772031892884691500,3.36469140625,-0.22680674493312836,0.2653083801269531,0.38696736097335815
1772031892894640400,3.374640380859375,-0.2008502185344696,0.23140104115009308,0.3337148427963257
1772031892904589600,3.384589599609375,-0.20120280981063843,0.14534339308738708,0.3097812831401825
1772031892914538500,3.39453857421875,-0.2204625904560089,0.021228834986686707,0.32207798957824707
1772031892924487700,3.40448779296875,-0.24114923179149628,-0.0778878927230835,0.3478725552558899
1772031892934435600,3.414435546875,-0.24272745847702026,-0.11397690325975418,0.3539696931838989
1772031892944384500,3.424384521484375,-0.232063889503479,-0.09773268550634384,0.3314465284347534
1772031892954333400,3.43433349609375,-0.20108361542224884,-0.05448363721370697,0.300864040851593
1772031892964282600,3.44428271484375,-0.14494018256664276,0.009982437826693058,0.24594777822494507
1772031892974231600,3.4542314453125,-0.08299490809440613,0.11182919889688492,0.15356513857841492
1772031892984179500,3.464179443359375,-0.005757373757660389,0.2719115614891052,0.028346775099635124
1772031892994128400,3.47412841796875,0.07091333717107773,0.4465371072292328,-0.10015584528446198
1772031893004077300,3.484077392578125,0.1495082825422287,0.5867208242416382,-0.2225576639175415
1772031893014026800,3.49402685546875,0.22401848435401917,0.6576488614082336,-0.31840944290161133
1772031893023975700,3.5039755859375,0.2846378684043884,0.6282049417495728,-0.35342761874198914
1772031893033924600,3.513924560546875,0.31953001022338867,0.5045547485351562,-0.3149639964103699
1772031893043872500,3.52387255859375,0.3200695514678955,0.308182030916214,-0.20742739737033844
1772031893053821400,3.533821533203125,0.26780861616134644,0.0654270350933075,-0.025224095210433006
1772031893063770600,3.5437705078125,0.16681011021137238,-0.19539043307304382,0.210415318608284
1772031893073719600,3.553719482421875,0.03546948730945587,-0.4361996352672577,0.4615912139415741
1772031893083668500,3.56366845703125,-0.10798142105340958,-0.627564549446106,0.6963320970535278
1772031893093616400,3.573616455078125,-0.23317992687225342,-0.7468974590301514,0.8799663782119751
1772031893103565600,3.583565673828125,-0.3178234398365021,-0.7811004519462585,0.9813824892044067
1772031893113514800,3.5935146484375,-0.35917404294013977,-0.7686834931373596,0.9859534502029419
1772031893123463700,3.603463623046875,-0.36521968245506287,-0.7188746333122253,0.8968725800514221
1772031893133412600,3.61341259765625,-0.35570067167282104,-0.6305684447288513,0.7478731870651245
1772031893143361500,3.623361572265625,-0.3508782386779785,-0.5361665487289429,0.580852746963501
1772031893153309700,3.633309814453125,-0.3540314733982086,-0.46010592579841614,0.39029940962791443
1772031893163258600,3.643258544921875,-0.354679137468338,-0.3836686909198761,0.17972829937934875
1772031893173207600,3.65320751953125,-0.35436561703681946,-0.26029857993125916,-0.056808292865753174
1772031893183156500,3.663156494140625,-0.3518417179584503,-0.11825194209814072,-0.2784120440483093
1772031893193105400,3.67310546875,-0.3378729820251465,-0.005076402332633734,-0.47303810715675354
1772031893203053600,3.683053466796875,-0.3234114646911621,0.07404237985610962,-0.6397503614425659
1772031893213002500,3.69300244140625,-0.3094920814037323,0.12420812994241714,-0.7688241600990295
1772031893222951700,3.70295166015625,-0.3063841760158539,0.1384027749300003,-0.8422490954399109
1772031893232900600,3.712900634765625,-0.3160070478916168,0.11307653784751892,-0.8650784492492676
1772031893242849500,3.722849609375,-0.33040356636047363,0.03111455775797367,-0.8213850259780884
1772031893252798500,3.732798583984375,-0.35867738723754883,-0.10376811772584915,-0.723495602607727
1772031893262746600,3.74274658203125,-0.4056518077850342,-0.252462238073349,-0.5826250314712524
1772031893272695800,3.75269580078125,-0.4799260199069977,-0.4168723225593567,-0.4196157157421112
1772031893282644700,3.762644775390625,-0.5564799308776855,-0.5506471395492554,-0.25615063309669495
1772031893292593700,3.77259375,-0.6133778691291809,-0.6245628595352173,-0.12126753479242325
1772031893302542600,3.78254248046875,-0.6387401819229126,-0.6465680003166199,-0.031239643692970276
1772031893312491800,3.79249169921875,-0.6318353414535522,-0.6395078897476196,0.002998792566359043
1772031893322439700,3.802439697265625,-0.5994454622268677,-0.5725783705711365,-0.026155363768339157
1772031893332388600,3.812388671875,-0.5460578203201294,-0.4196254014968872,-0.10554610937833786
1772031893342337500,3.822337646484375,-0.48992934823036194,-0.23037289083003998,-0.20713505148887634
1772031893352286500,3.832286376953125,-0.4229653775691986,-0.06079622358083725,-0.28141698241233826
1772031893362236000,3.84223583984375,-0.3321976363658905,0.04512221738696098,-0.3197510838508606
1772031893372183600,3.85218359375,-0.22593313455581665,0.1129475086927414,-0.32066333293914795
1772031893382132700,3.8621328125,-0.12070364505052567,0.1574409306049347,-0.3004390299320221
1772031893392081700,3.87208154296875,-0.05097270756959915,0.17725571990013123,-0.2608584463596344
1772031893402030600,3.882030517578125,-0.03479347005486488,0.160013347864151,-0.2143615186214447
1772031893411979800,3.891979736328125,-0.058600980788469315,0.13506242632865906,-0.14576423168182373
1772031893421928700,3.9019287109375,-0.07225900143384933,0.1139153242111206,-0.06508935242891312
1772031893431876600,3.911876708984375,-0.07624369859695435,0.10269878059625626,0.016710221767425537
1772031893441825500,3.921825439453125,-0.0668661817908287,0.09066688269376755,0.11707038432359695
1772031893451774700,3.931774658203125,-0.04207652062177658,0.07330184429883957,0.22623229026794434
1772031893461723600,3.9417236328125,0.01365119218826294,0.06368836760520935,0.3404363691806793
1772031893471672800,3.9516728515625,0.10047673434019089,0.06661522388458252,0.4455231726169586
1772031893481621800,3.961621826171875,0.206836998462677,0.10477539151906967,0.4891146123409271
1772031893491569700,3.971569580078125,0.31213733553886414,0.19022803008556366,0.4599655568599701
1772031893501518800,3.981518798828125,0.3991398811340332,0.2730105519294739,0.37965235114097595
1772031893511467800,3.9914677734375,0.4288976192474365,0.2800036370754242,0.3129846453666687
1772031893521416700,4.001416748046875,0.3941657543182373,0.16680675745010376,0.2551748752593994
1772031893531365600,4.01136572265625,0.29753389954566956,0.04782940819859505,0.18984711170196533
1772031893541314600,4.021314453125,0.14777393639087677,-0.04938582703471184,0.11096348613500595
1772031893551262700,4.0312626953125,-0.013559633865952492,-0.1350872665643692,0.027117904275655746
1772031893561211600,4.041211669921875,-0.14809933304786682,-0.23183457553386688,-0.07336529344320297
1772031893571160600,4.05116064453125,-0.25533607602119446,-0.3511744737625122,-0.15310873091220856
1772031893581109800,4.06110986328125,-0.35180482268333435,-0.4582095742225647,-0.20023444294929504
1772031893591058700,4.07105859375,-0.42997655272483826,-0.5110781788825989,-0.22533831000328064
1772031893601007600,4.081007568359375,-0.47981441020965576,-0.505454957485199,-0.233083575963974
1772031893610955800,4.090955810546875,-0.5037925839424133,-0.4398924708366394,-0.23731625080108643
1772031893620904700,4.10090478515625,-0.552476704120636,-0.35095807909965515,-0.22572989761829376
1772031893630853600,4.110853515625,-0.6648375988006592,-0.28699585795402527,-0.17914588749408722
1772031893640802600,4.120802490234375,-0.8148406744003296,-0.23899345099925995,-0.10448496043682098
1772031893650751500,4.13075146484375,-0.9648324251174927,-0.17590223252773285,-0.007155350409448147
1772031893660700700,4.14070068359375,-1.1133522987365723,-0.10157926380634308,0.10533630847930908
1772031893670648600,4.150648681640625,-1.3384443521499634,0.044012099504470825,0.19463586807250977
1772031893680597800,4.16059765625,-1.5644127130508423,0.1684562861919403,0.2479800581932068
1772031893690546700,4.170546630859375,-1.7392131090164185,0.3250645101070404,0.2577281594276428
1772031893700495600,4.18049560546875,-1.798221230506897,0.554061233997345,0.1399029791355133
1772031893710444800,4.19044482421875,-1.7069004774093628,0.8417890667915344,-0.12888243794441223
1772031893720392700,4.200392822265625,-1.476908564567566,1.063351035118103,-0.5129960179328918
1772031893730341600,4.210341552734375,-1.1601415872573853,1.1483503580093384,-0.8851850628852844
1772031893740290600,4.22029052734375,-0.8584168553352356,1.145161509513855,-1.117305040359497
1772031893750239500,4.230239501953125,-0.6114521622657776,0.9859988689422607,-1.1712136268615723
1772031893760188700,4.240188720703125,-0.3839106559753418,0.6755129098892212,-1.0744929313659668
1772031893770137900,4.250137939453125,-0.14822062849998474,0.26762452721595764,-0.8391055464744568
1772031893780085500,4.26008544921875,0.02634318545460701,-0.20460480451583862,-0.44770264625549316
1772031893790034700,4.27003466796875,-0.010561568662524223,-0.4629596471786499,0.003029904095456004
1772031893799983600,4.279983642578125,-0.12238956242799759,-0.48842480778694153,0.37760430574417114
1772031893809932800,4.289932861328125,-0.1740424633026123,-0.41192227602005005,0.6884129643440247
1772031893819881700,4.2998818359375,-0.19416983425617218,-0.25813353061676025,0.9250385761260986
1772031893829830700,4.30983056640625,-0.20843373239040375,-0.09845057129859924,1.0752053260803223
1772031893839779600,4.319779541015625,-0.18772633373737335,0.021276626735925674,1.1414490938186646
1772031893849727700,4.329727783203125,-0.11477991193532944,0.125088632106781,1.1040632724761963
1772031893859676700,4.3396767578125,0.010981746017932892,0.1985790878534317,0.9819249510765076
1772031893869625600,4.34962548828125,0.15876959264278412,0.217061385512352,0.7944721579551697
1772031893879574800,4.35957470703125,0.30125242471694946,0.19908876717090607,0.573052167892456
1772031893889523700,4.369523681640625,0.4231514632701874,0.15780963003635406,0.3286649286746979
1772031893899472600,4.37947265625,0.5225715041160583,0.11862920969724655,0.10035108774900436
1772031893909420800,4.3894208984375,0.5949772596359253,0.08478495478630066,-0.09009901434183121
1772031893919369700,4.39936962890625,0.6491097211837769,0.05096547678112984,-0.24087467789649963
1772031893929318700,4.409318603515625,0.6866613626480103,-0.003817735705524683,-0.3414801359176636
1772031893939267600,4.419267578125,0.7078009843826294,-0.07496541738510132,-0.3869224488735199
1772031893949216500,4.429216552734375,0.7223309874534607,-0.1814131885766983,-0.3935870826244354
1772031893959165700,4.439165771484375,0.7333801984786987,-0.2797520160675049,-0.3741862177848816
1772031893969113600,4.449113525390625,0.7461158633232117,-0.3463524878025055,-0.3567408323287964
1772031893979062500,4.4590625,0.7544869780540466,-0.389119952917099,-0.35393545031547546
1772031893989011700,4.46901171875,0.7590130567550659,-0.4278060495853424,-0.37522628903388977
1772031893998960600,4.478960693359375,0.7586537599563599,-0.46421411633491516,-0.4100401997566223
1772031894008909800,4.488909912109375,0.7591082453727722,-0.49641960859298706,-0.4458101987838745
1772031894018858800,4.498858642578125,0.7584829330444336,-0.5142174959182739,-0.48474404215812683
1772031894028807700,4.5088076171875,0.7515438199043274,-0.5235034823417664,-0.5204470157623291
1772031894038755600,4.518755615234375,0.73624587059021,-0.5127136707305908,-0.5396185517311096
1772031894048704500,4.52870458984375,0.7196417450904846,-0.49419113993644714,-0.5477845668792725
1772031894058653700,4.53865380859375,0.6897075772285461,-0.46913450956344604,-0.5603682994842529
1772031894068602600,4.5486025390625,0.6421430706977844,-0.4489184319972992,-0.5936208367347717
1772031894078551800,4.5585517578125,0.574327826499939,-0.4497770071029663,-0.6351531147956848
1772031894088500700,4.568500732421875,0.48152458667755127,-0.4617612957954407,-0.676849901676178
1772031894098448600,4.57844873046875,0.3499646782875061,-0.46340686082839966,-0.6910991072654724
1772031894108397800,4.588397705078125,0.18004152178764343,-0.4528834819793701,-0.6744581460952759
1772031894118346800,4.5983466796875,-0.019996758550405502,-0.4165382385253906,-0.6294129490852356
1772031894128295700,4.608295654296875,-0.21348556876182556,-0.3729766607284546,-0.5382649898529053
1772031894138244600,4.61824462890625,-0.3841705024242401,-0.31625717878341675,-0.3846224546432495
1772031894148193500,4.628193603515625,-0.5166977047920227,-0.23812668025493622,-0.1952015906572342
1772031894158141700,4.6381416015625,-0.6060667037963867,-0.16712920367717743,0.006406095810234547
1772031894168090600,4.648090576171875,-0.6509382128715515,-0.10975002497434616,0.18613307178020477
1772031894178039600,4.65803955078125,-0.6373164057731628,-0.057489752769470215,0.3304995894432068
1772031894187988700,4.66798876953125,-0.5761758685112,0.003640723880380392,0.4157809913158417
1772031894197937700,4.677937744140625,-0.48904627561569214,0.08282501995563507,0.420015424489975
1772031894207886600,4.687886474609375,-0.4059338867664337,0.16787348687648773,0.348935604095459
1772031894217834800,4.697834716796875,-0.35666167736053467,0.25383418798446655,0.24373731017112732
1772031894227783700,4.70778369140625,-0.33707958459854126,0.33407676219940186,0.13498419523239136
1772031894237732600,4.717732666015625,-0.3490574359893799,0.41495004296302795,0.05172205716371536
1772031894247681500,4.727681640625,-0.3782687187194824,0.49171167612075806,-0.00021168915554881096
1772031894257629700,4.737629638671875,-0.4208545386791229,0.5388903617858887,-0.016094516962766647
1772031894267578600,4.74757861328125,-0.4536169171333313,0.5511300563812256,0.005911087151616812
1772031894277527600,4.757527587890625,-0.4762207567691803,0.5166889429092407,0.08666319400072098
1772031894287475700,4.767475830078125,-0.48163294792175293,0.41091471910476685,0.2275463491678238
1772031894297424600,4.777424560546875,-0.46340733766555786,0.2909669876098633,0.3861037790775299
1772031894307373800,4.787373779296875,-0.42965036630630493,0.21082496643066406,0.49262574315071106
1772031894317322800,4.79732275390625,-0.39191073179244995,0.18123723566532135,0.5360571146011353
1772031894327271700,4.807271728515625,-0.35082170367240906,0.18667642772197723,0.5309485197067261
1772031894337220600,4.817220703125,-0.30288374423980713,0.2262675017118454,0.5046446919441223
1772031894347169500,4.82716943359375,-0.25558432936668396,0.268758088350296,0.49446311593055725
1772031894357117700,4.83711767578125,-0.19633272290229797,0.3718101680278778,0.46196773648262024
1772031894367066600,4.847066650390625,-0.12550069391727448,0.6226649880409241,0.3585226833820343
1772031894377015600,4.857015625,-0.04994921013712883,0.9174931645393372,0.21083204448223114
1772031894386964500,4.866964599609375,0.02373373880982399,1.1602611541748047,0.11194053292274475
1772031894396913700,4.87691357421875,0.09130426496267319,1.2652443647384644,0.11252029985189438
1772031894406862800,4.88686279296875,0.16480132937431335,1.2294034957885742,0.203300341963768
1772031894416810800,4.896810791015625,0.22291922569274902,1.0518673658370972,0.31795209646224976
1772031894426759700,4.906759765625,0.24488075077533722,0.7155165076255798,0.48531901836395264
1772031894436708600,4.91670849609375,0.2466815859079361,0.3516634702682495,0.6533918976783752
1772031894446657500,4.926657470703125,0.23024575412273407,0.10510777682065964,0.72086501121521
1772031894456606700,4.936606689453125,0.2058330923318863,-0.04938299208879471,0.6772240400314331
1772031894466555600,4.9465556640625,0.1783892810344696,-0.09951308369636536,0.5518944263458252
1772031894476504600,4.956504638671875,0.1552317589521408,-0.08313704282045364,0.39087730646133423
1772031894486452500,4.966452392578125,0.13489612936973572,-0.03381769359111786,0.25322437286376953
1772031894496401700,4.976401611328125,0.1326705366373062,0.021427985280752182,0.14960718154907227
1772031894506350800,4.986350830078125,0.1375173181295395,0.052176762372255325,0.08337542414665222
1772031894516299800,4.9962998046875,0.1509052813053131,0.054277729243040085,0.03405474126338959
1772031894526248700,5.006248779296875,0.18815642595291138,0.021029535681009293,-0.008216865360736847
1772031894536197600,5.01619775390625,0.24246519804000854,-0.051522430032491684,-0.0669265165925026
1772031894546145800,5.026145751953125,0.29764655232429504,-0.14579205214977264,-0.15179672837257385
1772031894556094700,5.0360947265625,0.35458067059516907,-0.25234299898147583,-0.25988298654556274
1772031894566043600,5.046043701171875,0.41315579414367676,-0.3686777949333191,-0.3728190064430237
1772031894575992600,5.05599267578125,0.4458381235599518,-0.4843926727771759,-0.4554363787174225
1772031894585941500,5.06594140625,0.45236948132514954,-0.5953651070594788,-0.4933590292930603
1772031894595890700,5.075890625,0.42911744117736816,-0.6959452629089355,-0.49277740716934204
1772031894605839600,5.085839599609375,0.38563644886016846,-0.7649142742156982,-0.45129382610321045
1772031894615787800,5.095787841796875,0.31422993540763855,-0.7818964123725891,-0.35605040192604065
1772031894625736700,5.10573681640625,0.22375932335853577,-0.7585999369621277,-0.20237120985984802
1772031894635685600,5.115685546875,0.126404270529747,-0.6741670966148376,-0.0178476981818676
1772031894645634600,5.125634521484375,0.030995436012744904,-0.5264247059822083,0.14050716161727905
1772031894655583700,5.135583740234375,-0.060637012124061584,-0.356199711561203,0.24660617113113403
1772031894665532700,5.14553271484375,-0.14541488885879517,-0.1928534209728241,0.27711692452430725
1772031894675481600,5.155481689453125,-0.21345359086990356,-0.04729408770799637,0.23608854413032532
1772031894685429500,5.165429443359375,-0.25178012251853943,0.0635816752910614,0.14198727905750275
1772031894695378700,5.175378662109375,-0.2665516138076782,0.15538562834262848,0.0043782927095890045
1772031894705327900,5.185327880859375,-0.2609342634677887,0.21358969807624817,-0.1641894429922104
1772031894715276800,5.19527685546875,-0.26413673162460327,0.22414487600326538,-0.3381953537464142
1772031894725225700,5.205225830078125,-0.2643274664878845,0.20854397118091583,-0.4847985804080963
1772031894735174700,5.215174560546875,-0.2557257115840912,0.19210374355316162,-0.5771950483322144
1772031894745123600,5.22512353515625,-0.23393723368644714,0.18435649573802948,-0.6106817722320557
1772031894755071700,5.23507177734375,-0.20822176337242126,0.1703629195690155,-0.5768084526062012
1772031894765020700,5.245020751953125,-0.17794759571552277,0.14089266955852509,-0.4908836781978607
1772031894774969600,5.254969482421875,-0.13933467864990234,0.11173105984926224,-0.36746108531951904
1772031894784918800,5.264918701171875,-0.08558356016874313,0.09411671757698059,-0.21490450203418732
1772031894794867700,5.27486767578125,-0.02634899690747261,0.0952640026807785,-0.06136687472462654
1772031894804816600,5.284816650390625,0.03708465397357941,0.09771556407213211,0.07073146104812622
1772031894814765600,5.294765625,0.09800499677658081,0.09711422026157379,0.15836544334888458
1772031894824713700,5.304713623046875,0.15210068225860596,0.10113399475812912,0.20074759423732758
1772031894834662700,5.31466259765625,0.20383445918560028,0.0963488295674324,0.2144506275653839
1772031894844611600,5.324611572265625,0.25127941370010376,0.10240721702575684,0.20097137987613678
1772031894854560500,5.334560546875,0.2908361256122589,0.11066114902496338,0.15494316816329956
1772031894864509700,5.344509765625,0.32208794355392456,0.11562815308570862,0.07663675397634506
1772031894874458600,5.354458740234375,0.34937283396720886,0.12652713060379028,-0.04060225933790207
1772031894884406500,5.364406494140625,0.37931743264198303,0.13663430511951447,-0.18817365169525146
1772031894894355700,5.374355712890625,0.3956940174102783,0.14671596884727478,-0.3148477077484131
1772031894904304600,5.3843046875,0.41486963629722595,0.15406878292560577,-0.3874521553516388
1772031894914253800,5.39425390625,0.42613083124160767,0.12358356267213821,-0.39487919211387634
1772031894924202800,5.40420263671875,0.431147038936615,0.07329852879047394,-0.3584437668323517
1772031894934151700,5.414151611328125,0.4224294424057007,-0.03900858014822006,-0.26869896054267883
1772031894944100600,5.4241005859375,0.3658253252506256,-0.2680531144142151,-0.07169055193662643
1772031894954049500,5.434049560546875,0.27522674202919006,-0.5428071618080139,0.22081267833709717
1772031894963997700,5.443997802734375,0.22317175567150116,-0.5977172255516052,0.4493652880191803
1772031894973946600,5.453946533203125,0.23749209940433502,-0.41882094740867615,0.540286660194397
1772031894983895800,5.463895751953125,0.2770676016807556,-0.15150822699069977,0.5383285284042358
1772031894993844700,5.4738447265625,0.3253781497478485,0.11720418930053711,0.4535156488418579
1772031895003793700,5.483793701171875,0.38020560145378113,0.3384064733982086,0.31349337100982666
1772031895013742600,5.49374267578125,0.43729791045188904,0.4759123921394348,0.12008793652057648
1772031895023690800,5.503690673828125,0.480050653219223,0.5526264309883118,-0.11821025609970093
1772031895033639700,5.5136396484375,0.5030726194381714,0.5775309801101685,-0.3789534568786621
1772031895043588600,5.523588623046875,0.5107304453849792,0.5396793484687805,-0.6092355251312256
1772031895053537500,5.53353759765625,0.5029210448265076,0.412954717874527,-0.7509868144989014
1772031895063486500,5.543486572265625,0.4566277265548706,0.24234335124492645,-0.7828923463821411
1772031895073436000,5.553435791015625,0.3718864917755127,0.04851742461323738,-0.714005708694458
1772031895083384800,5.563384765625,0.25045016407966614,-0.19057536125183105,-0.505988359451294
1772031895093333800,5.573333740234375,0.13326790928840637,-0.3944541811943054,-0.1887536346912384
1772031895103281700,5.58328173828125,0.045387692749500275,-0.4622960388660431,0.14366115629673004
1772031895113230600,5.593230712890625,0.0005483157001435757,-0.4072205424308777,0.40131428837776184
1772031895123179800,5.6031796875,-0.013535399921238422,-0.3132946789264679,0.5593074560165405
1772031895133128700,5.613128662109375,0.008510247804224491,-0.20145416259765625,0.6057047843933105
1772031895143077600,5.62307763671875,0.06000670790672302,-0.10858141630887985,0.5756333470344543
1772031895153026600,5.633026611328125,0.12608639895915985,-0.05194956064224243,0.47898027300834656
1772031895162975500,5.6429755859375,0.18733003735542297,-0.02675389125943184,0.3300294578075409
1772031895172923600,5.652923583984375,0.24905677139759064,-0.029142212122678757,0.14935849606990814
1772031895182872800,5.662872802734375,0.3069431185722351,-0.04583349823951721,-0.03632606565952301
1772031895192821800,5.67282177734375,0.35904064774513245,-0.06693239510059357,-0.2004566788673401
1772031895202770700,5.682770751953125,0.38860446214675903,-0.09647917747497559,-0.3107823431491852
1772031895212719600,5.6927197265625,0.3945331871509552,-0.12231343239545822,-0.35285574197769165
1772031895222668500,5.70266845703125,0.3909037709236145,-0.1629638522863388,-0.34355124831199646
1772031895232617700,5.71261767578125,0.39379385113716125,-0.21597380936145782,-0.28730475902557373
1772031895242565600,5.722565673828125,0.39805087447166443,-0.26203930377960205,-0.22056135535240173
1772031895252514800,5.732514892578125,0.4093725085258484,-0.2821352481842041,-0.15765616297721863
1772031895262463700,5.742463623046875,0.4270530045032501,-0.2825329899787903,-0.10478192567825317
1772031895272413000,5.752412841796875,0.4445190727710724,-0.2678927779197693,-0.061082642525434494
1772031895282362000,5.762362060546875,0.4549374282360077,-0.24875697493553162,-0.03422166407108307
1772031895292311000,5.77231103515625,0.45651161670684814,-0.2169758677482605,-0.032086607068777084
1772031895302260000,5.782260009765625,0.44328007102012634,-0.16965815424919128,-0.05859088897705078
1772031895312208000,5.792207763671875,0.42744943499565125,-0.13974712789058685,-0.1010454073548317
1772031895322156800,5.80215673828125,0.39396584033966064,-0.12270617485046387,-0.14972366392612457
1772031895332106000,5.81210595703125,0.34731367230415344,-0.11091316491365433,-0.19686028361320496
1772031895342055000,5.822054931640625,0.28139248490333557,-0.10713987797498703,-0.21434123814105988
1772031895352003800,5.83200390625,0.21281954646110535,-0.10972607135772705,-0.18853653967380524
1772031895361953000,5.841953125,0.1528134047985077,-0.10670703649520874,-0.12797553837299347
1772031895371902000,5.85190185546875,0.10129349678754807,-0.08967239409685135,-0.049053553491830826
1772031895381850000,5.86185009765625,0.05666564404964447,-0.06705509126186371,0.03267595171928406
1772031895391799000,5.871799072265625,0.015405019745230675,-0.05014321953058243,0.09822753071784973
1772031895401748000,5.881748046875,-0.022458774968981743,-0.042834971100091934,0.14830568432807922
1772031895411697000,5.89169677734375,-0.051839299499988556,-0.042779844254255295,0.19211122393608093
1772031895421645800,5.901645751953125,-0.07808355242013931,-0.04267168045043945,0.2224033772945404
1772031895431594800,5.9115947265625,-0.10629494488239288,-0.042868487536907196,0.23734930157661438
1772031895441544000,5.9215439453125,-0.1380399614572525,-0.03204064816236496,0.23936262726783752
1772031895451491800,5.931491943359375,-0.16513124108314514,-0.005990404635667801,0.23569118976593018
1772031895461440800,5.941440673828125,-0.17500613629817963,0.018034961074590683,0.23387518525123596
1772031895471390000,5.951389892578125,-0.1607036292552948,0.0402957908809185,0.2355436533689499
1772031895481339000,5.9613388671875,-0.11996650695800781,0.07458342611789703,0.21496598422527313
1772031895491288000,5.9712880859375,-0.061073631048202515,0.10184593498706818,0.17470964789390564
1772031895501237000,5.981237060546875,-0.0019701593555510044,0.11374170333147049,0.11132490634918213
1772031895511186000,5.99118603515625,0.02917817421257496,0.12031065672636032,0.045183438807725906
1772031895521134800,6.001134765625,0.039820801466703415,0.11897005140781403,-0.012123163789510727
1772031895531082800,6.011082763671875,0.04364749789237976,0.12272430956363678,-0.059592146426439285
1772031895541032000,6.021031982421875,0.03418739140033722,0.11514902859926224,-0.09931892901659012
1772031895550980900,6.03098095703125,0.020805807784199715,0.0877608135342598,-0.10965252667665482
1772031895560930000,6.040929931640625,-0.011544059962034225,0.04426299035549164,-0.09243497997522354
1772031895570879000,6.05087890625,-0.05321906879544258,-0.03461211919784546,-0.06351225078105927
1772031895580828000,6.060827880859375,-0.12344381958246231,-0.16938161849975586,-0.007859613746404648
1772031895590776800,6.07077685546875,-0.20565666258335114,-0.33157557249069214,0.08427190780639648
1772031895600725000,6.08072509765625,-0.2708090543746948,-0.4181180000305176,0.18976128101348877
1772031895610674000,6.090673828125,-0.2751004695892334,-0.3709251880645752,0.22855155169963837
1772031895620622800,6.100622802734375,-0.236789271235466,-0.307721346616745,0.23058488965034485
1772031895630571800,6.11057177734375,-0.19926293194293976,-0.2617088556289673,0.2114066630601883
1772031895640520700,6.120520751953125,-0.16164299845695496,-0.2087036669254303,0.15475115180015564
1772031895650470100,6.13047021484375,-0.1163887083530426,-0.110263392329216,0.06850335747003555
1772031895660419000,6.140419189453125,-0.06435766816139221,0.002234851708635688,-0.014123808592557907
1772031895670368000,6.150367919921875,-0.010816678404808044,0.15577487647533417,-0.06415235251188278
1772031895680316000,6.16031591796875,0.03761491924524307,0.29893192648887634,-0.10823819786310196
1772031895690264800,6.170264892578125,0.06384226679801941,0.4114683270454407,-0.17286565899848938
1772031895700214000,6.180214111328125,0.07387813925743103,0.460186243057251,-0.23589882254600525
1772031895710163000,6.190162841796875,0.08645039051771164,0.41173163056373596,-0.23470145463943481
1772031895720111900,6.20011181640625,0.08378256112337112,0.29861459136009216,-0.14930827915668488
1772031895730060800,6.210060791015625,0.053339965641498566,0.16949151456356049,-0.006881360895931721
1772031895740010000,6.220010009765625,-0.010041418485343456,0.04680160805583,0.16614161431789398
1772031895749958000,6.2299580078125,-0.08626721054315567,-0.03365035727620125,0.31355395913124084
1772031895759907000,6.239906982421875,-0.14291031658649445,-0.0325758270919323,0.36988338828086853
1772031895769856000,6.24985595703125,-0.18436987698078156,-0.005482690408825874,0.3441500663757324
1772031895779805000,6.259804931640625,-0.2238040566444397,-0.0020682532340288162,0.2686235010623932
1772031895789753900,6.26975390625,-0.2753623425960541,-0.014811478555202484,0.17107993364334106
1772031895799702800,6.279702880859375,-0.33146122097969055,-0.0296948179602623,0.056836292147636414
1772031895809652000,6.28965185546875,-0.3790271282196045,-0.026623662561178207,-0.06523608416318893
1772031895819600000,6.299599853515625,-0.4063750207424164,-0.025447038933634758,-0.20681017637252808
1772031895829548800,6.309548828125,-0.41389206051826477,-0.04813823848962784,-0.3555953800678253
1772031895839497700,6.319497802734375,-0.41261184215545654,-0.10404197871685028,-0.5012525320053101
1772031895849447000,6.329447021484375,-0.40683624148368835,-0.16987743973731995,-0.6105832457542419
1772031895859396000,6.33939599609375,-0.3907032310962677,-0.21051691472530365,-0.6605315208435059
1772031895869345000,6.349344970703125,-0.36149075627326965,-0.25398606061935425,-0.649457573890686
1772031895879294000,6.3592939453125,-0.3280051350593567,-0.2857967019081116,-0.5823020935058594
1772031895889241900,6.369241943359375,-0.29918840527534485,-0.2934817969799042,-0.47074925899505615
1772031895899190800,6.379190673828125,-0.2850279211997986,-0.28643015027046204,-0.34026646614074707
1772031895909140000,6.389139892578125,-0.2770563066005707,-0.2606488764286041,-0.22830691933631897
1772031895919089000,6.3990888671875,-0.2684328854084015,-0.22507353127002716,-0.15410847961902618
1772031895929037800,6.409037841796875,-0.26389700174331665,-0.18424460291862488,-0.11006832867860794
1772031895938987000,6.418987060546875,-0.2555615305900574,-0.14181040227413177,-0.09866345673799515
1772031895948936000,6.42893603515625,-0.2419900745153427,-0.1013958677649498,-0.11561447381973267
1772031895958884900,6.438884765625,-0.22721408307552338,-0.06348390877246857,-0.15273168683052063
1772031895968833000,6.4488330078125,-0.20739324390888214,-0.043307531625032425,-0.20244570076465607
1772031895978782000,6.458781982421875,-0.1909300535917282,-0.053773827850818634,-0.25778236985206604
1772031895988731000,6.46873095703125,-0.16236339509487152,-0.054152797907590866,-0.3074740469455719
1772031895998679800,6.4786796875,-0.12700620293617249,-0.032835789024829865,-0.3547392785549164
1772031896008628700,6.488628662109375,-0.08126988261938095,0.009464262053370476,-0.39455166459083557
1772031896018578000,6.498577880859375,-0.03750918060541153,0.05278358235955238,-0.4315911829471588
1772031896028527000,6.508527099609375,-0.008221598342061043,0.1027495488524437,-0.46519574522972107
1772031896038475000,6.51847509765625,0.006643139757215977,0.14231133460998535,-0.4879344403743744
1772031896048424000,6.528423828125,0.01963057741522789,0.16384299099445343,-0.489530473947525
1772031896058372900,6.538372802734375,0.033540990203619,0.16789031028747559,-0.4710252285003662
1772031896068322000,6.548322021484375,0.051003869622945786,0.15368661284446716,-0.42050454020500183
1772031896078271000,6.55827099609375,0.08018360286951065,0.10896345973014832,-0.34966036677360535
1772031896088220000,6.568219970703125,0.12314252555370331,0.05237581580877304,-0.2736998200416565
1772031896098168800,6.5781689453125,0.15467406809329987,0.02412918582558632,-0.1809488832950592
1772031896108117800,6.58811767578125,0.1764717698097229,-0.038898248225450516,-0.07702089101076126
1772031896118066000,6.59806591796875,0.2100529968738556,-0.11660270392894745,0.028847217559814453
1772031896128014800,6.608014892578125,0.2609843611717224,-0.16746428608894348,0.11485879868268967
1772031896137964000,6.617964111328125,0.2893115282058716,-0.1590670794248581,0.18392536044120789
1772031896147913000,6.627912841796875,0.2889983355998993,-0.11593132466077805,0.22935329377651215
1772031896157862000,6.63786181640625,0.27465325593948364,-0.10873404890298843,0.2536841630935669
1772031896167810800,6.647810791015625,0.27661389112472534,-0.08551900833845139,0.24432316422462463
1772031896177760000,6.657760009765625,0.2855742275714874,-0.07295896857976913,0.2212335765361786
1772031896187709000,6.667708984375,0.30873122811317444,-0.08002539724111557,0.19071295857429504
1772031896197656800,6.67765673828125,0.3178784251213074,-0.10469451546669006,0.15898397564888
1772031896207605800,6.687605712890625,0.3009396493434906,-0.20446957647800446,0.1558787226676941
1772031896217554700,6.6975546875,0.2412666380405426,-0.33689069747924805,0.18393433094024658
1772031896227504000,6.707504150390625,0.15596158802509308,-0.4820457398891449,0.25047793984413147
1772031896237453000,6.717453125,0.06940296292304993,-0.6285955309867859,0.34491533041000366
1772031896247402000,6.727402099609375,-0.0008688017260283232,-0.5852970480918884,0.5168471336364746
1772031896257350700,6.7373505859375,-0.02841932885348797,-0.18227975070476532,0.5870839953422546
1772031896267298800,6.747298828125,-0.05320829898118973,0.09061063081026077,0.5498729944229126
1772031896277247700,6.757247802734375,-0.038944732397794724,0.2706294655799866,0.3957824409008026
1772031896287196700,6.76719677734375,0.014501446858048439,0.40167003870010376,0.1625281423330307
1772031896297145600,6.7771455078125,0.10392729938030243,0.4934294521808624,-0.15206627547740936
1772031896307094500,6.787094482421875,0.16700425744056702,0.48190757632255554,-0.5080424547195435
1772031896317043700,6.797043701171875,0.17355218529701233,0.3777463734149933,-0.8112755417823792
1772031896326992600,6.80699267578125,0.1270911991596222,0.23323073983192444,-1.0083028078079224
1772031896336941800,6.81694189453125,0.04211753234267235,0.09269630163908005,-1.0708541870117188
1772031896346889700,6.8268896484375,-0.08323585987091064,-0.033449381589889526,-0.9490262269973755
1772031896356838700,6.836838623046875,-0.24603348970413208,-0.10703262686729431,-0.6483224034309387
1772031896366787600,6.84678759765625,-0.4065518081188202,-0.15040139853954315,-0.21294452250003815
1772031896376736800,6.85673681640625,-0.5211292505264282,-0.15189410746097565,0.26463907957077026
1772031896386685700,6.866685791015625,-0.5542137026786804,-0.12403610348701477,0.6477494239807129
