time,seconds_elapsed,z,y,x
1772094058696296200,0.080296142578125,-0.08678981018066406,-0.00037113486733287573,0.04871332363411784
1772094058706245000,0.0902451171875,-0.12712357413470746,-0.016783778877370058,-0.03251651433184743
1772094058716194000,0.100194091796875,-0.038143560433387756,-0.04173250656975433,-0.06555018440559505
1772094058726144000,0.11014404296875,0.18188567641377448,-0.08835519633386284,-0.009908522813022137
1772094058736093000,0.120093017578125,0.3028349458277225,-0.06973251159153879,0.0036364568062126636
1772094058746042000,0.1300419921875,0.31704818009734154,-0.012380356286652386,-0.038853900659829375
1772094058755991000,0.139990966796875,0.29396248806416986,0.02501675142729655,-0.06057064242735505
1772094058765940000,0.14993994140625,0.2212631625562906,0.07134254060406238,-0.06611030250638723
1772094058775890200,0.15989013671875,0.051017655053734776,0.11591501984009518,-0.08805807655081152
1772094058785839000,0.169839111328125,-0.14297054708600043,0.10316751987463794,-0.08135054173618554
1772094058795788000,0.1797880859375,-0.16754501637220381,0.0019518007880542426,-0.007173252630233764
1772094058805737000,0.189737060546875,-0.10089256981313229,-0.06063499463414773,0.024886311714351177
1772094058815686000,0.199685791015625,-0.03590074994266033,-0.09555736453132703,0.05604410491362214
1772094058825636000,0.209635986328125,0.031929508224129675,-0.09550336932176723,0.03645516895502805
1772094058835585000,0.2195849609375,0.0925128640025854,-0.06355769541412591,-0.017084551922231912
1772094058845534200,0.2295341796875,0.1285942312091589,-0.028166648559272287,-0.060091772869229315
1772094058855483100,0.239483154296875,0.10782616846859454,-0.0016726276536472141,-0.10187076719552278
1772094058865432000,0.24943212890625,0.06175298407971858,0.02033915153769776,-0.1082572533622384
1772094058875382000,0.259382080078125,0.0695645346134901,-0.002961991610750556,-0.05350669539049267
1772094058885331200,0.269331298828125,0.1471072084993124,-0.05525419664494693,0.001085603279620409
1772094058895280000,0.279280029296875,0.21810615983009338,-0.08741638111378996,0.012998743913322687
1772094058905229000,0.28922900390625,0.16627485030591488,-0.05080734590445645,-0.011284633471816777
1772094058915178000,0.299177978515625,0.049828153008222575,0.014063094342360272,-0.05228387559726834
1772094058925128000,0.3091279296875,-0.09279694164097309,0.028556013203039764,-0.04678717787712812
1772094058935076900,0.319076904296875,-0.19300678988695144,-0.003035550037305802,0.04065758908092976
1772094058945026000,0.329026123046875,-0.1602051750034094,-0.04306921679992228,0.04273483374640345
1772094058954975200,0.338975341796875,-0.06225976455807686,-0.07619701316421851,0.004259849401563405
1772094058964925000,0.348925048828125,0.056389411219954486,-0.07612517177071422,0.0010259820468723774
1772094058974874000,0.3588740234375,0.12926993851363658,-0.04005217053368687,-0.018710399558395145
1772094058984823000,0.368822998046875,0.19951894825994967,-0.023340086919348687,0.002003010385483503
1772094058994772000,0.37877197265625,0.26527532276213167,-0.006286258928943425,-0.005773030443489551
1772094059004721200,0.38872119140625,0.2651134101986885,-0.03649765638988465,-0.03053819999620318
1772094059014671000,0.398671142578125,0.24107377844154834,-0.037707507103681565,-0.04230447950512171
1772094059024620000,0.4086201171875,0.16357786630690097,0.0007560790643095969,-0.043666415508091444
1772094059034569000,0.41856884765625,0.08207154948711395,0.01623089423496276,-0.040043402705341576
1772094059044518000,0.428517822265625,0.042160979381203646,0.000017444325145334005,-0.02074804286584258
1772094059054467000,0.438467041015625,-0.03379822470545769,-0.0035861148584634063,0.025061229889839887
1772094059064417000,0.4484169921875,-0.09119184453189373,0.04322206927407533,0.04821297289654612
1772094059074366200,0.4583662109375,-0.07156827565133571,0.033572900650138036,0.056914750268310305
1772094059084315100,0.468315185546875,0.0018014964640140532,-0.05753996036141179,0.06018471184968948
1772094059094264000,0.47826416015625,0.04106675440371036,-0.07147589379330166,0.07352671624273062
1772094059104214000,0.488214111328125,0.06531096882224083,-0.042489371085353195,0.06959069196805358
1772094059114163200,0.4981630859375,0.06530103195011615,-0.018699503705045206,0.01190188858732581
1772094059124112100,0.508112060546875,0.06676467476189137,0.03522248535491526,-0.008375029635429382
1772094059134061000,0.51806103515625,0.07807692689299583,0.09484852214222773,-0.0371177245169878
1772094059144010000,0.528010009765625,0.0778822811037302,0.09625400502597913,-0.04044219276458025
1772094059153960000,0.5379599609375,0.025753449937701223,0.08485836719404906,0.047095367043465376
1772094059163908900,0.547908935546875,-0.013572013756632804,0.04869207991668954,0.01505231544226408
1772094059173858000,0.557858154296875,0.05862170031666755,-0.0014927045094780622,0.028000644342601296
1772094059183807200,0.56780712890625,0.11079378610253333,0.021295977338496596,-0.003666267422586679
1772094059193756200,0.577756103515625,0.12417115406990051,0.04719658066192642,-0.024896833108365535
1772094059203706000,0.5877060546875,0.06290215411484242,0.06769464908838271,0.11840060784444212
1772094059213655000,0.597655029296875,0.20077040962576864,-0.17507457162681966,-0.2642297592319548
1772094059223604000,0.60760400390625,0.3829004161894321,-0.16437687119748443,-0.478125023368746
1772094059233553200,0.61755322265625,0.3455594043105841,0.023950839228834956,-0.27377441716864703
1772094059243502000,0.627502197265625,0.12792203103601932,0.05074289323296398,-0.07494140534624456
1772094059253452000,0.6374521484375,-0.039055414581298825,-0.19078589896708725,-0.23530805452167985
1772094059263401000,0.64740087890625,-0.22268296622633932,-0.0528886639568489,-0.04928600895553827
1772094059273350000,0.657349853515625,-0.42279929585754866,-0.05590940001751296,0.1728964604027569
1772094059283299000,0.667299072265625,-0.5573486360788344,-0.224545673091989,0.27302432945370675
1772094059293249000,0.6772490234375,-0.49355508608222004,-0.1824117826471105,0.3406720706604421
1772094059303198200,0.6871982421875,-0.3923036198288202,-0.08880639243377372,0.3909405147820711
1772094059313147100,0.697147216796875,-0.04979308169484138,-0.0850966511956416,0.0811618872962892
1772094059323096000,0.707095947265625,0.2520166127383709,0.1545277138888836,-0.05299450808465481
1772094059333045000,0.717044921875,0.44134617541730403,0.1007185284204781,-0.20131474563553928
1772094059342995200,0.7269951171875,0.49319794320762156,0.14649320478681474,-0.29042203897833824
1772094059352944000,0.736944091796875,0.49239656369686124,0.17258412478426471,-0.25718933920115233
1772094059362893000,0.74689306640625,0.2797258729189634,0.13961776605937629,-0.22926804370507597
1772094059372842000,0.756842041015625,0.0015033903002738952,0.18158833743501454,0.041781332413852214
1772094059382791200,0.766791259765625,-0.10547639047205448,-0.009554247748944908,0.110050274258852
1772094059392740900,0.776740966796875,-0.12418985877037048,-0.11545788718974218,0.12315890828743577
1772094059402690000,0.78668994140625,-0.08373743687272071,0.026520086928643286,0.16188012247830627
1772094059412639200,0.79663916015625,0.015510872864723205,-0.03967387527320534,0.017289572975039483
1772094059422588200,0.806588134765625,0.04068213900029659,-0.01561776730529964,0.02026873491629958
1772094059432537000,0.816537109375,-0.03612754443585872,0.07639666392216458,-0.0750246997155249
1772094059442487000,0.826487060546875,-0.06389876393675804,0.0994246709513478,-0.13764628332331777
1772094059452436000,0.83643603515625,-0.011007716226577757,0.08500320075852796,-0.06448664682731033
1772094059462385200,0.84638525390625,0.1829120968520641,-0.04440132392020896,-0.014357026654481887
1772094059472334000,0.856333984375,0.3033820583164692,-0.15051606709472834,-0.06743702106550335
1772094059482283000,0.866282958984375,0.3025613895833492,-0.07373533575842156,0.03418035589084029
1772094059492233000,0.87623291015625,0.2157435223519802,-0.052119241353776304,-0.008009849584847689
1772094059502182000,0.886181884765625,0.1043733976662159,-0.015091770669817924,-0.05126359263882041
1772094059512131000,0.896131103515625,0.049618309649825096,-0.0038369660806842148,0.0013639818295836448
1772094059522080000,0.906080078125,0.0757476071625948,-0.008955423339270055,-0.0065332011610269546
1772094059532030200,0.9160302734375,0.16594517996013164,-0.002362089488841593,-0.01179258299395442
1772094059541979100,0.925979248046875,0.2619312730312347,-0.0227879694619216,-0.04591784769669175
1772094059551928000,0.935927978515625,0.23942659575641154,0.03873820185828954,-0.0351342956148088
1772094059561877000,0.945876953125,0.22741350187957285,0.02788715576445684,-0.05168795553073287
1772094059571826000,0.955825927734375,0.12593991730809212,0.05519958038087934,0.027116847245395183
1772094059581776100,0.965776123046875,0.038923897156119346,0.063979153962899,0.08683233414813876
1772094059591725000,0.97572509765625,0.1225198797315359,-0.06081133758174255,0.030060645612329243
1772094059601674000,0.985674072265625,0.1870966890603304,-0.09892839360069483,0.059913347562402484
1772094059611623200,0.995623046875,0.13429565772116184,-0.11369031126163899,0.03562821661159396
1772094059621572000,1.005572021484375,0.04449614433050155,-0.07330483538666739,-0.0014569208100438118
1772094059631522300,1.015522216796875,-0.012699322575330733,-0.009407185694761573,-0.07054594686627387
1772094059641471200,1.02547119140625,-0.03208440652489662,0.02442397316591814,-0.15266440423503516
1772094059651420200,1.035420166015625,-0.09647007719576359,0.006833097423054277,-0.1374237266138196
1772094059661369000,1.045369140625,-0.10273147567808627,-0.008797858157381416,-0.040012423045188185
1772094059671319000,1.055319091796875,-0.038491350957751275,-0.06870967134982348,0.011791121689230202
1772094059681268000,1.06526806640625,-0.06088906072676181,-0.1317410961338319,0.06700564391091465
1772094059691217000,1.075216796875,-0.15591069267988203,-0.1403351388148032,0.07991963215023279
1772094059701166000,1.085166015625,-0.24492110151946545,-0.07393383573889732,-0.01353343531191349
1772094059711115000,1.095114990234375,-0.16954291219115256,0.04263637834060937,-0.13596929002180694
1772094059721061000,1.10506103515625,0.02016308258473873,0.07626591368196532,-0.1860578475318849
1772094059731010300,1.11501025390625,0.2125537863999605,0.05617598766498267,-0.15698548230454326
1772094059740959200,1.124959228515625,0.32662849386930465,0.025369382523559032,-0.10063318822458386
1772094059750908200,1.134908203125,0.3334153775304556,0.011805095415655522,-0.08772256098613142
1772094059760857300,1.144857421875,0.226391173094511,0.020262761833239346,-0.09047653586938977
1772094059770807300,1.154807373046875,0.12312661345303058,0.006316599268279969,-0.0653904637992382
1772094059780756200,1.164756103515625,-0.00819733498096466,-0.04549158510863781,0.012075345458090305
1772094059790705200,1.174705078125,-0.005037994167208671,-0.05438926864499226,0.0811861449547112
1772094059800654000,1.184654052734375,0.013449848681688309,-0.009297788769844918,-0.011257453203946352
1772094059810604300,1.194604248046875,0.022807459613680837,0.08175610859608277,-0.09896773923039436
1772094059820553200,1.20455322265625,0.047287236353754994,0.11545054413350299,-0.048021103586256504
1772094059830502100,1.214502197265625,0.07661153051555156,0.08365306479120627,0.0018320377327501773
1772094059840451300,1.224451416015625,0.1466279005497694,-0.039627953772246836,-0.014495119950920343
1772094059850400300,1.234400146484375,0.19759061054587362,-0.043008846648503095,-0.05903334985747933
1772094059860350200,1.24435009765625,0.07314297762215137,0.08614581318870186,0.12718962510824203
1772094059870299400,1.25429931640625,0.020988427492976188,-0.05615231452845037,0.0492477227717638
1772094059880248300,1.264248291015625,-0.01885550711750984,-0.10094607183234766,-0.019365794727206228
1772094059890197200,1.274197265625,-0.01988777277469635,-0.012381178270559757,-0.007370090376585722
1772094059900146200,1.284146240234375,-0.01047521678507328,-0.021407584486808625,-0.03698401513472199
1772094059910096100,1.29409619140625,0.021960487395524978,0.005363591126073152,-0.05385974661186337
1772094059920045000,1.304045166015625,0.04250584729611873,0.03197393188774585,0.03158113317787647
1772094059929994200,1.313994140625,0.0575567014336586,-0.02325377860907465,0.022227467768639323
1772094059939943400,1.323943359375,0.09614742111265659,-0.03939372489126399,-0.03129895523563027
1772094059949893000,1.33389306640625,0.1600818408846855,-0.0417991420651786,-0.023357786972820756
1772094059959842300,1.34384228515625,0.2743891880661249,-0.043787192343547936,0.009982026440650224
1772094059969791200,1.353791259765625,0.3458703699558973,-0.0038055662954226133,-0.03994286494031548
1772094059979740200,1.363740234375,0.26168635835945603,0.021538964914670212,-0.08410349370613694
1772094059989689000,1.373689208984375,0.18444003707170487,0.03682618509135209,-0.05026230664178729
1772094059999639300,1.383639404296875,0.18917232629060743,0.02912204958796501,-0.04629676401168108
1772094060009588200,1.393588134765625,0.11506021137535571,-0.054875426460430025,-0.07036620638519525
1772094060019537200,1.403537109375,-0.004374561822414398,-0.13450564721003175,0.002775748323649168
1772094060029486000,1.413486083984375,-0.06511807659864426,-0.10322162468205205,0.03884922448471188
1772094060039435300,1.423435302734375,-0.1842594198077917,-0.038288905454520135,0.0158726919144392
1772094060049385200,1.43338525390625,-0.25422318287193774,0.013615012648142874,0.017404431526362896
1772094060059334400,1.44333447265625,-0.2121487127304077,0.07907069630385376,0.0946535292930901
1772094060069283300,1.453283447265625,-0.04466331759095192,0.052989777110610155,0.1361066526658833
1772094060079232300,1.463232177734375,0.10196984365582465,0.05916272099134512,0.07118965159729122
1772094060089181200,1.47318115234375,0.13231003686189652,0.06228014975897968,-0.013166501695662736
1772094060099131400,1.48313134765625,0.14949673398435115,0.10111335469065233,-0.07774798719957471
1772094060109080300,1.493080322265625,0.13943185156583784,0.030474441444454714,-0.11002309399098158
1772094060119029200,1.503029296875,0.12143734519183635,-0.08424806240913457,-0.10294234194979071
1772094060128978200,1.512978271484375,0.06079612174630165,-0.052405163889378305,-0.016220482438802718
1772094060138928000,1.52292822265625,-0.04062427133321762,-0.08233625570475123,0.03168079416006803
1772094060148877000,1.532876953125,-0.039430093112587924,-0.14370552856335417,-0.014514847564697266
1772094060158826200,1.542826171875,-0.018722820648550985,-0.003255471831723116,0.05219049822539091
1772094060168775400,1.552775390625,-0.026937691286206242,0.05250991203864105,-0.06103606798201799
1772094060178724400,1.562724365234375,-0.08340133678615093,0.02109237192464061,-0.16129472380578516
1772094060188674300,1.57267431640625,-0.06934709247052669,-0.013058739605406298,-0.1004424879580736
1772094060198623200,1.582623291015625,-0.014811200162768363,-0.0708462267207913,-0.04890636198818683
1772094060208572200,1.592572265625,0.04620820894539356,-0.06758281361120752,-0.03835208861753344
1772094060218521000,1.60252099609375,0.14325988542139528,-0.04577339772470295,-0.05899725563079118
1772094060228470300,1.61247021484375,0.23617957665920256,-0.014497184043843299,-0.06666939769387245
1772094060238420200,1.622420166015625,0.294749254527688,0.011957052840664981,-0.02110036343485117
1772094060248369200,1.632369140625,0.2751186713844538,0.019926127457129766,0.007537263637036085
1772094060258318000,1.642318115234375,0.18704174400269985,0.003970707428990863,0.039119273597747084
1772094060268267300,1.652267333984375,0.12499825254380702,-0.021525036854017524,0.06069295363277197
1772094060278217200,1.66221728515625,0.101109427434206,-0.06505250968229956,0.07911664520427585
1772094060288166400,1.67216650390625,0.1177010812729597,-0.06408108910056762,0.1048825162321329
1772094060298115300,1.682115234375,0.12380056719183921,-0.0014503449387848377,0.08233911438211798
1772094060308064300,1.692064208984375,0.07074643787443638,0.09106656505125574,0.026960779900848865
1772094060318013200,1.70201318359375,-0.11363923866152763,0.1279760262455791,0.0019435352832078933
1772094060327963100,1.711963134765625,-0.21262334450483322,0.10168356492719613,-0.0013319792561233043
1772094060337912300,1.721912353515625,-0.27263036170005794,0.1014022820340935,0.18447510838508605
1772094060347861200,1.731861328125,-0.14005202929079533,-0.02030343633692246,0.13254647596627472
1772094060357810200,1.74181005859375,0.032332243806123734,-0.11091662703091278,0.05991890052035451
1772094060367760100,1.751760009765625,0.16461831527054308,-0.028708313121343962,0.002366583000868559
1772094060377709000,1.761708984375,0.2017220112621784,0.0737440624875715,-0.12612170361578465
1772094060387658200,1.771658203125,0.2495972766369581,0.09853572275498881,-0.1924333739131689
1772094060397607400,1.781607421875,0.22474282136559484,0.034853581260575445,-0.19863062111809848
1772094060407556400,1.791556396484375,0.20909283229112624,-0.009359622509276959,-0.21843013108745216
1772094060417506300,1.80150634765625,0.14247662608921527,-0.04804691844752524,-0.19789529258087277
1772094060427455200,1.811455322265625,0.05327858572304248,-0.061995067473594095,-0.18905965969637034
1772094060437404200,1.821404052734375,0.016557167047262192,-0.02446100354094524,-0.19947627816200256
1772094060447353000,1.83135302734375,-0.0027840777605772017,-0.02240406187798362,-0.157228351149708
1772094060457302300,1.84130224609375,-0.03914835356175899,-0.031016841225465757,-0.10189180998355149
1772094060467252200,1.851252197265625,-0.11146247914433478,-0.04638221380542963,-0.06590835019350051
1772094060477201200,1.861201171875,-0.12564298018813133,-0.07189777246718294,-0.01150762857273221
1772094060487150000,1.871150146484375,-0.0811626179486513,-0.09313885041382164,0.00625409195870161
1772094060497099300,1.881099365234375,0.006995557975769042,-0.07993903097044676,-0.04731149401217699
1772094060507049200,1.89104931640625,0.0916460180401802,-0.03440086220714729,-0.10083660184219478
1772094060516998400,1.900998291015625,0.12471125229597091,0.014854347468039486,-0.0724194856531918
1772094060526947300,1.910947265625,0.12632628627717493,0.02058967396635562,-0.012588409546762705
1772094060536896300,1.920896240234375,0.11953940261602401,-0.01295856716656126,0.03738602006435394
1772094060546845200,1.93084521484375,0.09684358668327331,-0.033655199505575,0.06776464558467268
1772094060556795100,1.940795166015625,0.049345922449231146,-0.02113774543632753,0.0636649551808834
1772094060566744300,1.950744384765625,0.058419455742835996,-0.00740817106438335,0.05066153509244323
1772094060576693200,1.960693359375,0.11175766269862651,-0.030325077835330738,0.012986761214584112
1772094060586642200,1.97064208984375,0.18153963945508003,-0.05863897567845415,-0.004433160141855478
1772094060596591400,1.98059130859375,0.21949089218676088,-0.0632208920746576,-0.0018375906907022
1772094060606541000,1.990541015625,0.24963059438467025,-0.03608417108501307,-0.031844168028235434
1772094060616490200,2.000490234375,0.28053485121428967,0.002088697641249746,-0.0622512889906764
1772094060626439400,2.010439453125,0.13212591246664523,0.009609704263228923,-0.07436258254498243
1772094060636388400,2.020388427734375,-0.1160673425912857,0.0271811948856106,0.0034939795956015584
1772094060646338300,2.03033837890625,-0.2862204956352711,0.017728964472725053,0.04604264312013984
1772094060656287200,2.040287353515625,-0.31204934889674185,-0.0012469998198328539,-0.0019213234513998031
1772094060666236200,2.050236083984375,-0.2311193706601858,0.008672574110166168,-0.045477264322340484
1772094060676185000,2.06018505859375,-0.0906575915247202,0.008772330990480259,-0.03171937260478735
1772094060686134300,2.07013427734375,0.081398180270195,-0.049330103825591505,-0.0019479191973805427
1772094060696084200,2.080084228515625,0.09885375746190547,-0.06329683882112148,-0.0028290859460830685
1772094060706033200,2.090033203125,0.0759340696454048,0.017541556708421557,0.002741553793102503
1772094060715982000,2.099982177734375,0.11432312927246092,0.0335021187025588,0.0155655256614089
1772094060725932000,2.10993212890625,0.1698340040922165,0.015889976409380325,-0.035978199093043804
1772094060735882200,2.11988232421875,0.19176058921813963,0.044158770168875344,-0.07935089235156774
1772094060745831200,2.1298310546875,0.13784721272289752,0.05839379614519421,-0.10099296144768595
1772094060755780000,2.139780029296875,0.04117898260653019,0.021096778671699574,-0.07272475221008062
1772094060765729300,2.149729248046875,0.010657003092765807,-0.028698974470840764,-0.007786854483932256
1772094060775678200,2.15967822265625,0.04022036670744419,-0.05055496487885248,0.020079934345930812
1772094060785628200,2.169628173828125,0.10226736529767513,-0.046643992847041224,-0.00014116203635931014
1772094060795577300,2.179577392578125,0.16987375158071516,-0.03556212453886401,-0.02782236516624689
1772094060805526300,2.1895263671875,0.17824001338779924,-0.04086940063412767,-0.012592062808573246
1772094060815475200,2.19947509765625,0.14108371042609213,-0.023017019844288004,-0.019088439090549945
1772094060825424100,2.209424072265625,0.09263386003375053,0.037544740590290164,-0.02300283605530858
1772094060835374000,2.2193740234375,0.09088672410547732,0.053736517524416556,-0.016499883902072906
1772094060845323000,2.229322998046875,0.05659691649079322,0.032018666078615934,-0.009855915842950343
1772094060855272200,2.239272216796875,-0.034037878680229186,0.002233992430032231,0.036490532529354094
1772094060865221400,2.249221435546875,-0.0880295811086893,-0.024072862739884293,0.07548252648562193
1772094060875171000,2.259171142578125,-0.10513678325414658,-0.03711813550894148,0.06086451080739498
1772094060885120300,2.269120361328125,-0.05146832143068313,-0.01622414940034505,-0.0023931787468492983
1772094060895069200,2.279069091796875,0.0001537292569875717,0.03413160767855588,-0.04214505115970969
1772094060905018000,2.28901806640625,0.07724281415641307,0.01982938908438664,-0.0026866087354719638
1772094060914967300,2.29896728515625,0.1671183153927326,-0.06064949808353558,0.02658420167341828
1772094060924917200,2.308917236328125,0.20845219630002973,-0.08020820330064743,-0.0010309504829347134
1772094060934866200,2.3188662109375,0.18682839351296424,-0.050981021970929574,-0.0216696877554059
1772094060944815000,2.328815185546875,0.10027414565384388,-0.00864140722034499,-0.039096477244049306
1772094060954764000,2.338763916015625,0.011116437298059462,0.03401744324697647,-0.06018807285055518
1772094060964713200,2.348713134765625,-0.048310149660706514,0.0652288252304308,-0.04761383795961737
1772094060974663200,2.3586630859375,-0.046782209441065786,0.04380177799132652,-0.040878976746648546
1772094060984612400,2.3686123046875,0.0015343699604272842,-0.010539434277836698,-0.04191182692572474
1772094060994561300,2.378561279296875,0.05287292753159999,-0.03403341941753169,-0.05907616608589887
1772094061004510200,2.38851025390625,0.08241700192391872,-0.05262670225214679,-0.07680208465158939
1772094061014460200,2.398460205078125,0.13736147503256796,-0.06815438468777574,-0.05269216413721442
1772094061024409300,2.408409423828125,0.17634908507466315,-0.057997152377269226,-0.024795564690977333
1772094061034358300,2.418358154296875,0.17070260362029074,-0.020570058233721645,-0.043689065731316805
1772094061044307200,2.42830712890625,0.12571896803379057,0.012105331887688952,-0.06382467578724026
1772094061054256000,2.438256103515625,0.034873744982481,0.007431305344798602,-0.07514028891921043
1772094061064206000,2.4482060546875,-0.05759703344404697,-0.015026091872330288,-0.07259484222009778
1772094061074155000,2.458155029296875,-0.11773089188933372,-0.03129074452971108,-0.05756137760877609
1772094061084104200,2.468104248046875,-0.09798515793383121,-0.05092276157820597,-0.0570564968265593
1772094061094053400,2.478053466796875,-0.016338555860519407,-0.046197724083997305,-0.05666939720511436
1772094061104003000,2.488003173828125,0.05755494786798954,-0.041079591052397155,-0.03829246738478541
1772094061113952300,2.4979521484375,0.13101181374490262,-0.028437759401521177,-0.031348347335308786
1772094061123901200,2.507901123046875,0.1790004763662815,-0.014808122289692981,-0.06167860366925597
1772094061133850000,2.51785009765625,0.19474924964010715,-0.011909366357594263,-0.06651742200255394
1772094061143799300,2.52779931640625,0.1746867048203945,0.009616106604551896,-0.0746304397009313
1772094061153749200,2.537749267578125,0.1304372287273407,0.00283836066450458,-0.07493161460459231
1772094061163698200,2.5476982421875,0.026075521498918532,-0.0031785524043021723,-0.0639187838114798
1772094061173647000,2.557647216796875,-0.054767947497963904,-0.016763829784595872,-0.004583090006560087
1772094061183596000,2.567595947265625,-0.07665536965727805,-0.03650559310116805,0.007738777558505535
1772094061193546200,2.577546142578125,-0.06693944680690765,-0.0471678112251684,0.00497223545461893
1772094061203495200,2.5874951171875,-0.012524550530314444,-0.06142712225937284,0.008230798859149216
1772094061213444400,2.5974443359375,0.030597382837533948,-0.049939207600685764,-0.009435936865210532
1772094061223393300,2.607393310546875,0.060517889326810834,-0.03997237872916739,0.01129997717142105
1772094061233342200,2.61734228515625,0.09123217654228209,-0.04125817162285093,0.027818711904436348
1772094061243292200,2.627292236328125,0.08607552443146706,-0.006050309589976677,0.027067601276189086
1772094061253241300,2.637241455078125,0.035465281134843825,0.03522107656582957,0.04703735324591398
1772094061263190300,2.647190185546875,0.04874620299041271,0.05801313996426761,0.005800502972304821
1772094061273139200,2.65713916015625,0.08268938912451267,0.015783810337877367,-0.029073680401593444
1772094061283088100,2.667088134765625,0.10813596507012843,-0.006390831264981534,-0.016592092230170965
1772094061293038000,2.6770380859375,0.10345160664618015,-0.0008080866711155976,0.008457593352347612
1772094061302987000,2.686987060546875,0.13510638958215712,-0.017464734320767457,-0.0016395839005708694
1772094061312936200,2.696936279296875,0.21283377238512038,-0.030158957170939537,-0.031148440849035976
1772094061322885400,2.706885498046875,0.20703706880509853,-0.031480746109900065,-0.054397945141792296
1772094061332835000,2.7168349609375,0.12007248657941817,-0.03289378211244475,-0.045872839511185884
1772094061342784300,2.7267841796875,0.028052959051728246,-0.02852675514251459,0.003218815916031599
1772094061352733200,2.736733154296875,-0.0661836600035429,-0.033318065089255104,0.0428863710463047
1772094061362682000,2.74668212890625,-0.08549626323878765,-0.0375238028335385,0.08662015270218253
1772094061372631000,2.756631103515625,-0.06913666459023952,-0.025237027131451758,0.06501023230999708
1772094061382581200,2.766581298828125,-0.04278583328127861,0.009031633234748733,-0.008719751419872045
1772094061392530200,2.7765302734375,-0.03634031040370464,0.05662271308575291,-0.027238573928922413
1772094061402479000,2.78647900390625,0.0984299790918827,0.030492831051093523,0.03768251879289746
1772094061412428000,2.796427978515625,0.08191898927390574,-0.13016360855088568,-0.13843918726667762
1772094061422377200,2.806377197265625,0.044966099929809565,0.004785977326141437,0.045236441303789614
1772094061432327200,2.8163271484375,0.06876257058084011,0.02175728155717952,-0.057500002810359
1772094061442276400,2.8262763671875,0.04734042784571647,-0.038359733067872,-0.15785101309269667
1772094061452225300,2.836225341796875,0.06586860270500183,-0.01801051108566462,-0.1986503487318754
1772094061462174200,2.84617431640625,0.07456336581408977,-0.015905926322116282,-0.10000716528072953
1772094061472124200,2.856124267578125,0.024275778600573537,-0.001078011344920378,-0.07183613280728458
1772094061482073000,2.866072998046875,0.008959551525115966,-0.0571798766110558,-0.04153028026223182
1772094061492022300,2.876022216796875,0.062306526309251785,-0.06020737120606936,-0.014331892213225363
1772094061501971200,2.88597119140625,0.10432020617425442,-0.03393321272935718,-0.02068506063222885
1772094061511920000,2.895920166015625,0.060738838601112365,-0.004719998276198748,-0.039932928068190814
1772094061521870000,2.9058701171875,0.01393733993768692,0.025593745314364785,-0.05083762231171131
1772094061531819000,2.915819091796875,0.03068798373043537,0.0009460349787259474,-0.020272388178110123
1772094061541768200,2.925768310546875,0.0721966366827488,-0.02858757966837147,0.010840689096599817
1772094061551717400,2.93571728515625,0.09787176068723201,-0.03920070480350405,0.03639101767763495
1772094061561666300,2.945666259765625,0.11819617131352424,-0.015656389132502953,0.06319894510433077
1772094061571616300,2.9556162109375,0.15512626430392265,0.014236062589357607,0.02966536268442869
1772094061581565200,2.965565185546875,0.19193769935071467,0.0012382251416216603,-0.0017706629343330858
1772094061591514000,2.97551416015625,0.22339725197553634,-0.015745247876178474,0.02188552246317267
1772094061601463000,2.985463134765625,0.23027941270470617,-0.04091983391342219,0.004012158250808716
1772094061611413200,2.995413330078125,0.18113631935119628,-0.0640260801108554,-0.03337210824787617
1772094061621362200,3.005362060546875,0.05385667787194252,-0.0017075300036696716,-0.06878522080406546
1772094061631311000,3.01531103515625,-0.10519874257445334,0.050044960396946406,-0.08340104452520608
1772094061641260000,3.025260009765625,-0.17872458203434943,0.055877452242979776,-0.07759542698636651
1772094061651209200,3.035209228515625,-0.16400573633015156,-0.027539429172175004,-0.017367314386367797
1772094061661159200,3.0451591796875,-0.0933539910018444,-0.07646654625402298,0.015651304248720407
1772094061671108400,3.0551083984375,-0.0906745426595211,-0.06712489550956524,-0.04584288276433945
1772094061681057300,3.065057373046875,-0.009386252504587174,-0.049776578084612264,0.0005718085385859012
1772094061691006200,3.075006103515625,0.10235095192790031,-0.012663947584561536,0.008680442322790622
1772094061700956200,3.0849560546875,0.10912439158558845,0.0010870531679014674,-0.04451499516144394
1772094061710905000,3.094905029296875,0.10986614986360073,0.0022015834311954674,-0.06790887636095284
1772094061720854300,3.104854248046875,0.10583762499988078,-0.008282460547727532,-0.06636924570351839
1772094061730803200,3.11480322265625,0.13390285901129245,-0.005916009977599605,-0.056499593596160406
1772094061740752100,3.124752197265625,0.15400281323194503,-0.025098031936003826,-0.021594722823053598
1772094061750702000,3.1347021484375,0.18732932877242564,-0.04434625099841505,0.018828326849639414
1772094061760651000,3.144651123046875,0.1739209811449051,-0.07565443072011693,-0.013986585906893015
1772094061770600200,3.15460009765625,0.1413946760714054,-0.06239121805117465,-0.039759471197426316
1772094061780549400,3.16454931640625,0.10040741664469241,-0.03807606642143801,-0.06710793524160981
1772094061790499300,3.174499267578125,0.01777063449025154,-0.024774560718855355,-0.10736892622038721
1772094061800448300,3.1844482421875,0.007778232786059379,-0.056245312874414956,-0.0876508109241724
1772094061810397200,3.194397216796875,0.05560848997533321,-0.0981407320880331,-0.03236629220619797
1772094061820346000,3.20434619140625,0.10639058270752429,-0.15211158352470955,-0.004537058907747268
1772094061830295000,3.214294921875,0.0764572167366743,-0.16764328911490736,0.01592749084159732
1772094061840245200,3.224245361328125,0.05173252532482147,-0.17052657119994982,-0.01403422444090247
1772094061850194200,3.234194091796875,0.055012862169742584,-0.14937197509352118,-0.05773205800056457
1772094061860143000,3.24414306640625,0.015191139391064644,-0.10413917791838757,-0.15544439034238458
1772094061870092000,3.254092041015625,-0.12657061642706394,-0.05453332132475916,-0.14996478988751769
1772094061880041200,3.264041259765625,-0.285329099753499,-0.01610722333116573,-0.104633363776654
1772094061889991200,3.2739912109375,-0.305998962816596,-0.036413519487099255,-0.07456658068448305
1772094061899940400,3.2839404296875,-0.19409867677688597,-0.08767948902938515,-0.027007103260606527
1772094061909889300,3.29388916015625,-0.06081424192488193,-0.08992209859071298,0.008532119893282652
1772094061919838200,3.303838134765625,0.060659343624114986,-0.05238798442571423,0.04133241960257292
1772094061929788200,3.3137880859375,0.18171558054387568,-0.012759830865712137,0.029484891550987956
1772094061939737000,3.323737060546875,0.2401771218627691,0.029581008869223296,-0.0006770224787294864
1772094061949686300,3.333686279296875,0.16784487610161303,0.0877669481171295,-0.038188276357948775
1772094061959635200,3.34363525390625,0.06226560977697372,0.11897904705321416,-0.0264418705932796
1772094061969584000,3.353584228515625,0.028501287341117856,0.07768910575234331,0.026561113058775662
1772094061979534000,3.3635341796875,0.056769934970140455,0.018715792686142957,0.08039324101135134
1772094061989483000,3.37348291015625,0.1477162803083658,-0.007147917259577662,0.10566329134628176
1772094061999432200,3.38343212890625,0.23760288746058938,0.00011505034756846726,0.08832871018573642
1772094062009381400,3.39338134765625,0.3130067957520485,0.012471473202784545,0.05125526320189237
1772094062019330300,3.403330322265625,0.2994587473928928,0.05787042072506156,0.024833266352862118
1772094062029280300,3.4132802734375,0.18249241013526915,0.08292220236654393,-0.013569967930018901
1772094062039229200,3.423229248046875,0.04539338543117046,0.07672865408919752,-0.01389393918737769
1772094062049178000,3.43317822265625,-0.023404256463050842,0.05893152888424229,-0.025484569868445394
1772094062059127000,3.443126953125,-0.06285656140744686,0.015840355980838647,-0.05834492920190096
1772094062069077200,3.4530771484375,-0.10698387242555618,-0.0027812236497877165,-0.07162336683943868
1772094062079026200,3.463026123046875,-0.10709902323782443,-0.020529554976685904,-0.08834200805872679
1772094062088975000,3.47297509765625,-0.08944412408173084,-0.06188497642893344,-0.09040420128554105
1772094062098924300,3.48292431640625,-0.04803367080688476,-0.08352790404157713,-0.05506210813894868
1772094062108873200,3.492873291015625,-0.001370119309425354,-0.06979141130507924,-0.042754269099235534
1772094062118823200,3.5028232421875,0.0315016382008791,-0.002080176408076659,-0.09382190077453852
1772094062128772400,3.5127724609375,0.04215688772797584,0.08966869921837933,-0.12626374243497848
1772094062138721300,3.52272119140625,0.0281768776923418,0.13314465192197822,-0.11854732283875345
1772094062148670200,3.532670166015625,0.00921557211279869,0.06688448348296806,-0.0358344067081809
1772094062158619100,3.542619140625,-0.017957681494951246,0.019145740502048283,0.0267031518779695
1772094062168569000,3.552569091796875,0.07427753461003303,0.034301415854087094,0.03975450276136398
1772094062178518300,3.562518310546875,0.2527379127502441,0.03592511719893664,-0.0020404197864234445
1772094062188467200,3.57246728515625,0.402930812305212,0.08091183065851218,-0.049423079338669774
1772094062198416100,3.582416015625,0.43988954686820503,0.10528043864169158,-0.0525057016544044
1772094062208366000,3.592365966796875,0.30147184078097344,0.12018829497881232,-0.03491261568814516
1772094062218315000,3.60231494140625,0.12998188617527484,0.12562076835632324,-0.010905132634937762
1772094062228264200,3.61226416015625,0.0014420155018568038,0.12456633653310127,-0.009489420618116855
1772094062238213400,3.62221337890625,-0.05580839646160602,0.11020246914587914,-0.013863836310058832
1772094062248162300,3.632162353515625,-0.04151040651798248,0.08336602801075205,-0.03611877660751343
1772094062258112300,3.6421123046875,-0.0047153380841016765,0.03328801929415203,-0.050123628823459145
1772094062268061200,3.652061279296875,0.02054945155382156,0.012189226761879399,-0.05173252532482147
1772094062278010000,3.662010009765625,0.062146951833367346,0.00801312838732265,-0.05792772670313716
1772094062287959000,3.671958984375,0.0404290410220623,0.030666794811934232,-0.10637903840020298
1772094062297909200,3.6819091796875,-0.047394788381457324,0.1014149314531125,-0.15473814176917075
1772094062307858200,3.691858154296875,-0.07529986339509487,0.10375446205027401,-0.14656608735993504
1772094062317807000,3.70180712890625,-0.07268237437307834,0.07177821034127846,-0.11435250149741769
1772094062327756300,3.71175634765625,-0.040648821252584455,0.05988811265644617,-0.07707067245990037
1772094062337705200,3.721705322265625,0.04362929836809635,0.022502348320418968,-0.053992286950349806
1772094062347655400,3.731655517578125,0.1551589975297451,0.013237932097213342,-0.05212897729650139
1772094062357604400,3.741604248046875,0.1843243017375469,0.02637224855632521,-0.06255144098103047
1772094062367553300,3.75155322265625,0.18101356975436209,0.04412486333269626,-0.05403539543971419
1772094062377502200,3.761502197265625,0.17280512885749338,0.07013356667309999,-0.06488529075607657
1772094062387451100,3.771451171875,0.10575345384776591,0.09692889947970397,-0.09059227120354771
1772094062397401000,3.781401123046875,0.01542787075638771,0.06974196440647355,-0.058683951897919175
1772094062407350300,3.791350341796875,-0.07459902164936065,-0.004840297904331237,0.03176905696541071
1772094062417299200,3.80129931640625,-0.07186170563995838,-0.0457303349011112,0.06981485611274837
1772094062427248000,3.811248046875,-0.02710428002476692,-0.03219160235957242,-0.0009244213685393333
1772094062437198000,3.821197998046875,0.031933015355467796,-0.008462137096724472,-0.10688728018328547
1772094062447147000,3.83114697265625,0.09414426459670067,0.04269692658854182,-0.15118760968074202
1772094062457096200,3.84109619140625,0.14225392324924468,0.03405519057463389,-0.1296096918620169
1772094062467045000,3.851045166015625,0.19842121615111827,-0.03162472572443075,-0.08887363071739673
1772094062476994300,3.860994384765625,0.17669921368658542,-0.02999660849936772,-0.056040159390866755
1772094062486944300,3.8709443359375,0.07011398518979549,0.020664410569844766,-0.04677563356980681
1772094062496893200,3.88089306640625,-0.02661854233443737,0.008450181797449477,-0.033852439110726114
1772094062506842000,3.890842041015625,-0.08667992006540298,-0.01115190133708529,-0.027105302938073873
1772094062516791000,3.900791015625,-0.10481237360537052,-0.01205074073979631,-0.03884440217912197
1772094062526740000,3.910739990234375,-0.07863923695087432,-0.035167786892456934,-0.01473024388104677
1772094062536690200,3.920690185546875,-0.011526771664619444,-0.04170323937607463,0.0041002749256789685
1772094062546639000,3.93063916015625,0.04913315648138523,-0.01863142060462851,-0.003071078008413315
1772094062556588300,3.94058837890625,0.09796060801446438,0.010072540568583645,-0.03681216569915414
1772094062566537200,3.950537109375,0.16762041969597338,0.019196635005646383,-0.07275792382732034
1772094062576487400,3.9604873046875,0.17136545144319534,0.0163260069062002,-0.07982917738780379
1772094062586436400,3.970436279296875,0.08556465229988097,0.011878994052216875,-0.06451674970462917
1772094062596385300,3.98038525390625,-0.050018707144260405,0.032641469585499724,-0.016907441789656877
1772094062606334200,3.990334228515625,-0.07358662973642349,0.017177084477315654,0.03137304338514805
1772094062616283100,4.000283203125,0.021039865419268607,-0.017475081043201498,0.013393003927916288
1772094062626233000,4.010233154296875,0.12898060017824173,-0.05646486020949669,-0.027220015358924866
1772094062636182000,4.02018212890625,0.18106325411498544,-0.05598654777379706,-0.048506841276586055
1772094062646131200,4.030131103515625,0.18066519470810888,-0.06370723255318589,-0.0635717239394784
1772094062656080100,4.040080078125,0.15167466254532336,-0.05007173423944041,-0.05284165561050176
1772094062666029300,4.050029296875,0.10461129807531833,-0.04806822153045796,-0.024547142887860536
1772094062675979300,4.059979248046875,0.049961423999071115,0.0004127763437514659,-0.01601823786497116
1772094062685928200,4.06992822265625,0.033380291554331774,0.005595648028745199,-0.041516836258769035
1772094062695877000,4.079877197265625,0.014737550404667853,-0.003524865640921052,-0.05152049000933766
1772094062705826300,4.089826416015625,-0.05151975935697555,-0.006684234995784936,-0.049442514691501856
1772094062715776300,4.0997763671875,-0.1082248123973608,-0.02485181122312788,-0.005176964246481656
1772094062725724400,4.109724365234375,-0.08588438577353953,-0.0562488291389076,0.022552461939305067
1772094062735673300,4.11967333984375,-0.0030839374899864196,-0.09272779452805406,-0.004144406328350305
1772094062745622300,4.129622314453125,0.10603870052993297,-0.0780507147395052,-0.04033332556262612
1772094062755571500,4.139571533203125,0.1461608675599098,-0.02631600887404056,-0.08333645485639572
1772094062765521400,4.149521484375,0.10759586684405803,0.03088380541334627,-0.07606281059160828
1772094062775470600,4.159470703125,0.03507715860009193,0.027663658340042457,-0.0028637188680469988
1772094062785419500,4.16941943359375,-0.022416414469480513,0.011135443392628803,0.034339638105779884
1772094062795368400,4.179368408203125,0.015773907715082167,0.01671165207278682,0.03271978181898594
1772094062805317400,4.1893173828125,0.09076046737730503,0.027098466771910898,-0.006389116515219211
1772094062815267600,4.199267578125,0.12780746474564075,0.026078585672262122,-0.021457652439922092
1772094062825216500,4.209216552734375,0.16101356877684592,0.01344801291762851,-0.012440233247727155
1772094062835165400,4.21916552734375,0.13941548495292663,-0.011775277949415613,-0.009940671516954899
1772094062845114400,4.2291142578125,0.11133505337238311,0.0036554363575516616,0.0121637543939054
1772094062855064300,4.239064208984375,0.10871405721902846,0.00929159706189821,0.03814502173811197
1772094062865013200,4.24901318359375,0.08038929548859595,0.002433170547231566,0.02108984204083681
1772094062874962700,4.258962646484375,0.08467150285243988,-0.033592135073570534,-0.011159253526479005
1772094062884911600,4.26891162109375,0.0861994430720806,-0.06750130477363708,-0.028938217453658578
1772094062894860500,4.278860595703125,0.060493923929333684,-0.05653530879693571,-0.04999810274764895
1772094062904810500,4.288810546875,-0.0015635960549116134,-0.018465881037194046,-0.07547551222294568
1772094062914759400,4.298759521484375,-0.05006079272031784,0.0049350315496558324,-0.04562953227460384
1772094062924708400,4.308708251953125,-0.10180033230781554,0.0164697559085791,-0.0225270352371037
1772094062934657500,4.318657470703125,-0.0985474679917097,0.00033765500612789763,-0.016032704781740903
1772094062944607500,4.328607421875,-0.08697510361969471,-0.049464671724382785,0.015690905606746672
1772094062954556400,4.338556396484375,-0.06318447818756102,-0.06225701091198716,0.046655222060531375
1772094062964505300,4.34850537109375,0.002072130098938942,-0.03791885743257589,0.06186053610742092
1772094062974454500,4.35845458984375,0.0958200888544321,-0.022647056304023135,0.035389877811074257
1772094062984403500,4.368403564453125,0.20636545315384863,0.008193035548471379,0.02081716257929802
1772094062994353400,4.378353515625,0.2577425891697407,0.02938190153397154,0.01558583779707551
1772094063004302600,4.388302490234375,0.26274843463301656,0.05101196966504212,0.00953866658732295
1772094063014251500,4.39825146484375,0.2635352010965347,0.04314130022202153,0.009742810857295989
1772094063024200400,4.408200439453125,0.18911562766730786,0.0005605975914048031,0.011973200257867574
1772094063034149400,4.4181494140625,0.06521160010099411,-0.003995081535133067,0.020632307531684636
1772094063044099600,4.428099609375,-0.027986323556303976,-0.006514224749209824,0.059263943742960686
1772094063054048500,4.438048583984375,-0.05316869560778141,0.002283489846398879,0.08461451196819543
1772094063063997400,4.44799755859375,0.020164251628518103,-0.012753210470324848,0.08485226624682546
1772094063073946400,4.4579462890625,0.08471768008172512,-0.03019178172830725,0.05620514069423079
1772094063083895600,4.4678955078125,0.11552139914631843,-0.025473372620996085,0.05415522242709994
1772094063093845200,4.47784521484375,0.05807341878414154,0.0390760281110648,0.030171850901842115
1772094063103794700,4.487794677734375,-0.07682137387394905,0.10481705891364254,-0.011661942351609467
1772094063113743600,4.49774365234375,-0.13007248706817626,0.10106053765802643,0.014389759880304335
1772094063123692500,4.507692626953125,-0.0414139604061842,0.04873891473310068,0.026550007142871618
1772094063133642500,4.517642578125,0.10508826793730258,-0.012936624762811696,0.002833177599310875
1772094063143591400,4.52759130859375,0.21742168469727038,-0.06521108407776337,0.002428542321175337
1772094063153540400,4.537540283203125,0.21566811902821062,-0.05888006355848629,-0.0010495090529322624
1772094063163489500,4.547489501953125,0.15077800596654414,-0.042335340434266254,0.0028711715221405028
1772094063173438500,4.5574384765625,0.09256664001643657,-0.03317285021557472,-0.0040161037735641
1772094063183388400,4.567388427734375,0.03413374027013778,-0.01377347744575236,-0.017929186052829026
1772094063193337300,4.57733740234375,-0.0150666362285614,-0.002610601481859339,-0.03646320613101125
1772094063203286500,4.58728662109375,-0.057231707262992856,-0.00182950442401343,-0.015035364307463168
1772094063213235500,4.5972353515625,-0.0636778146624565,-0.005384129307314287,0.019879443337768313
1772094063223184600,4.6071845703125,-0.042568975660204886,-0.028916571877431123,0.04310805097296834
1772094063233134600,4.617134521484375,0.050640053912997245,-0.04199444087499287,0.03835062731280923
1772094063243083500,4.62708349609375,0.1486012464493513,-0.05043788697097916,0.0012101064421236513
1772094063253032400,4.637032470703125,0.18352993648946284,-0.06728722819811664,0.0005187631770968437
1772094063262981400,4.6469814453125,0.15154197607636452,-0.03849277572985738,-0.006016629941016436
1772094063272931600,4.656931640625,0.07841536506712436,0.0024545435558786266,0.0030802842281758783
1772094063282880500,4.666880615234375,0.059546998468041415,0.04171033583714161,0.00851253840997815
1772094063292829400,4.676829345703125,0.030495676028728484,0.05570426023369655,0.010161766921728849
1772094063302778400,4.6867783203125,0.042651393246650696,0.030739620302838735,0.05001476162150502
1772094063312727600,4.6967275390625,0.08554653212130069,-0.045805687992530875,0.09953487159386276
1772094063322677200,4.70667724609375,0.11353636280894279,-0.06763015531769488,0.10810936932414769
1772094063332626700,4.716626708984375,0.14645897372364997,-0.057156212607678024,0.07535393166989088
1772094063342575600,4.72657568359375,0.1476905613452196,-0.01953876982406946,0.005980097322911024
1772094063352524500,4.736524658203125,0.13638298538923263,0.012981471976469037,-0.03536941954493522
1772094063362473500,4.746473388671875,0.11143208400607109,0.029920001882489302,-0.04350815620645881
1772094063372423400,4.75642333984375,0.05975567278265953,0.05215288789505139,-0.04499722572043538
1772094063382372400,4.766372314453125,-0.006498714369535446,0.05869704884150997,-0.014384791444242
1772094063392321500,4.776321533203125,-0.011730769804120062,-0.0004648650073038879,0.013495149128139018
1772094063402270500,4.7862705078125,0.04163315611481666,-0.06730506981548387,-0.0033085400260984897
1772094063412219600,4.7962197265625,0.07741583263576031,-0.08861697994205169,-0.046005233719199894
1772094063422169300,4.80616943359375,0.05926233630776405,-0.07188825115358922,-0.05603592160716653
1772094063432118500,4.816118408203125,0.01481003111898899,-0.07247442157766781,-0.0344295083463192
1772094063442067500,4.8260673828125,0.0002028290957212448,-0.059381341311242425,-0.02080328018441796
1772094063452016600,4.8360166015625,-0.030122166541218756,-0.027238795407919677,-0.034598142911493775
1772094063461966600,4.845966552734375,-0.05096913973689079,0.010032512235583272,-0.03326894013434648
1772094063471915500,4.85591552734375,-0.05666472102999687,0.058500622087111695,-0.02856470796614885
1772094063481864400,4.865864501953125,-0.0023421792119741438,0.06786027884571813,-0.022869272803515195
1772094063491813400,4.8758134765625,0.0719172352194786,0.017210809792048528,-0.034906039816886184
1772094063501762300,4.88576220703125,0.13046353221237658,-0.031913132478063926,-0.05397913520783185
1772094063511712500,4.89571240234375,0.15167758515477178,-0.03788393224966712,-0.05821838021278381
1772094063521661400,4.905661376953125,0.1992909847229719,-0.02630169037103187,-0.028411124839633702
1772094063531610400,4.9156103515625,0.20771219158768653,-0.003027463770617032,-0.000464548771828413
1772094063541559600,4.9255595703125,0.16853695001900196,0.02436797779551707,-0.0005599719703197479
1772094063551508500,4.935508544921875,0.0909574512541294,0.0028724370348645607,0.01507803440541029
1772094063561458700,4.945458740234375,-0.012386018842458725,-0.0528455326345982,0.046416444868594406
1772094063571407600,4.95540771484375,-0.06265899300873279,-0.06791448868440929,0.027004619042575357
1772094063581356500,4.9653564453125,-0.07716448822319508,-0.022470532976626417,-0.02815174325108528
1772094063591305500,4.975305419921875,-0.01647182685136795,0.02137502707421081,-0.10064020248726009
1772094063601255400,4.98525537109375,0.1106342116266489,0.02560664589513326,-0.15412643961161374
1772094063611204400,4.995204345703125,0.21581541854441164,0.007857985774672125,-0.15960530941411852
1772094063621153500,5.005153564453125,0.22130115647912024,-0.01637749278155388,-0.1269908876657486
1772094063631102500,5.0151025390625,0.14051964680254458,-0.06621119646443985,-0.06520575488209725
1772094063641051600,5.0250517578125,0.03024433161616325,-0.0968274301329162,-0.03133987176790833
1772094063651001300,5.03500146484375,-0.0701134006679058,-0.09494337908513843,-0.02265606844425201
1772094063660950500,5.044950439453125,-0.12741408151388167,-0.032351254467270336,-0.0430855468802154
1772094063670899500,5.0548994140625,-0.1341524498581886,0.03469007039509015,-0.07003945864886045
1772094063680848400,5.064848388671875,-0.08305705339312552,0.03832469828710891,-0.0673597180455923
1772094063690797600,5.074797607421875,0.023018472015857695,0.00898994095515809,-0.047376960463821886
1772094063700747500,5.08474755859375,0.11608721633553504,-0.0024070023470470913,-0.051112493730336425
1772094063710696400,5.094696533203125,0.16650982810556889,-0.054783026336086914,-0.038836218872666355
1772094063720646100,5.104646240234375,0.13818097472190857,-0.050300935318856495,-0.037151188395172355
1772094063730595000,5.114594970703125,0.07842764002680779,-0.009518244853802024,-0.05673164878636598
1772094063740544000,5.1245439453125,0.06247369956970215,0.026587859501806085,-0.06357303911373019
1772094063750494000,5.134493896484375,0.060520811936259265,0.046637522007059305,-0.05988777472972869
1772094063760443100,5.144443115234375,0.08425298517942428,0.040080825806013305,-0.0330341084651649
1772094063770392000,5.15439208984375,0.11514145991802215,0.020385273968055843,-0.019362872117757796
1772094063780341200,5.16434130859375,0.1614677422851324,-0.01840069086347357,-0.013029723573476076
1772094063790291000,5.174291015625,0.16835282562375067,-0.04170662320982665,-0.004979834239184856
1772094063800240000,5.184240234375,0.15304653542041777,-0.016445266496361,-0.03325476547852158
1772094063810189000,5.19418896484375,0.1281137542158365,0.003949824471166357,-0.05314063855707645
1772094063820138200,5.20413818359375,0.07390928581953048,0.009170796251911088,-0.0324130539573729
1772094063830087200,5.214087158203125,-0.03985211791694164,0.024641652770899233,-0.01962605309858918
1772094063840037000,5.224037109375,-0.15601766018569468,0.045984935283265076,0.004476268631219864
1772094063849986000,5.233986083984375,-0.13700900833308696,0.03193969854129245,0.03099076606929302
1772094063859935000,5.24393505859375,-0.06203647719621658,-0.02230871631130576,0.024746903243660925
1772094063869884000,5.2538837890625,0.0018067571610212326,-0.027779217860975768,-0.014444704937934875
1772094063879833300,5.263833251953125,0.06532149021625519,-0.013763087340834318,-0.013707038313150404
1772094063889783000,5.273782958984375,0.11793430550694466,0.02123248593151802,-0.03632292087748647
1772094063899732200,5.283732177734375,0.12402268550992011,0.03561671568675665,-0.06170403037145734
1772094063909681200,5.29368115234375,0.10926292327344417,0.03445601732733194,-0.0493827473282814
1772094063919630000,5.303630126953125,0.08222410970032215,0.019302862725942393,-0.03353431307226419
1772094063929580300,5.313580322265625,0.07252981415987014,-0.005032176347775384,-0.025260844115167855
1772094063939529200,5.323529296875,0.04813946926891804,-0.013778622836683643,-0.035597675342857835
1772094063949478100,5.33347802734375,0.044509588333964345,0.01455279582175426,-0.030761341227591037
1772094063959427000,5.343427001953125,0.08777589860856533,0.026004883398523086,-0.04547843336611986
1772094063969376000,5.3533759765625,0.1311129360318184,-0.011560723024926845,-0.044061113914102314
1772094063979326000,5.363325927734375,0.16919921332001686,-0.04365442824277561,-0.029856793603301048
1772094063989275100,5.373275146484375,0.10389175162911414,-0.04450796263245865,-0.01890431469529867
1772094063999224000,5.38322412109375,0.05132336000204086,-0.05189325514475349,-0.015298545288294553
1772094064009173200,5.39317333984375,-0.0005646481454372405,-0.02014988517644815,-0.0445626336954534
1772094064019122200,5.4031220703125,-0.05808394017815589,0.03285370811367174,-0.06317088805362582
1772094064029072100,5.413072021484375,-0.07520166371762751,0.03346620942224981,-0.052899377147108316
1772094064039021000,5.42302099609375,-0.03529284717738628,0.0028291681444738057,-0.0479286029972136
1772094064048970200,5.43297021484375,-0.010347206491231917,-0.04023821745796594,-0.042362201041728255
1772094064058919200,5.442919189453125,0.052314709126949306,-0.06855305601600557,-0.049620355476439
1772094064068868000,5.4528681640625,0.1146861173659563,-0.06092446996686048,-0.08870616519600152
1772094064078818000,5.462818115234375,0.149912913569808,-0.0422966797911562,-0.13010390511974693
1772094064088767000,5.47276708984375,0.11328852552771568,-0.005678380138200009,-0.11777414650917052
1772094064098716000,5.4827158203125,0.03538753972351551,0.02945759255210869,-0.09407923653647303
1772094064108665000,5.4926650390625,-0.012610475248098373,0.028303744058578738,-0.045090749222785234
1772094064118615000,5.502614990234375,-0.0371305839985609,-0.01944218214837601,-0.0027658114515244957
1772094064128564200,5.512564208984375,-0.02171907985508442,-0.06759201983097009,-0.0005161328285932541
1772094064138513200,5.52251318359375,0.025216274321079254,-0.06178979525903705,-0.041659897991269824
1772094064148462000,5.532462158203125,0.07820259909927844,-0.042839106971630826,-0.07956804223358631
1772094064158411000,5.542410888671875,0.11417758332192897,-0.025842068936070425,-0.09864464475587009
1772094064168361200,5.552361328125,0.13595511536598204,0.024761938699299935,-0.09606427287384867
1772094064178310100,5.56231005859375,0.10867080259919167,0.05392116250947583,-0.08409194939881563
1772094064188259000,5.572259033203125,0.04717150101959705,0.019181451136246322,-0.029157997684180734
1772094064198208000,5.5822080078125,0.011050386324524878,-0.015363325611705657,0.019287907185405493
1772094064208157200,5.5921572265625,-0.001724339574575424,-0.0370086426859023,0.0307934899315238
1772094064218107000,5.60210693359375,-0.0036252047598361965,-0.05210120337358676,0.030633330933749675
1772094064228056300,5.612056396484375,0.0359936889231205,-0.014983444607269483,0.016679770513623952
1772094064238005200,5.622005126953125,0.09792962835431099,0.02076602604710497,-0.002847936777025461
1772094064247954200,5.6319541015625,0.1920014122366905,0.02498788837570464,-0.04042348806411028
1772094064257903000,5.641903076171875,0.18344576533734797,0.046301778113516046,-0.09402531439214944
1772094064267853000,5.65185302734375,0.06807341927289963,0.09265393470739945,-0.12247428702414036
1772094064277802000,5.661802001953125,-0.02571837862432003,0.0555079796097707,-0.0726037561789155
1772094064287751200,5.671751220703125,-0.0687193159610033,-0.023011526251840404,0.0014570669405162334
1772094064297700000,5.6817001953125,-0.05615910959541797,-0.07533527263519353,0.016840075641870497
1772094064307649000,5.69164892578125,-0.001003039562702179,-0.08630248332144692,0.005279547838121653
1772094064317599000,5.701598876953125,0.0702747287094593,-0.056902283512381836,-0.04737622981145978
1772094064327548000,5.7115478515625,0.09390519514381886,-0.03706645555405411,-0.07961948015987873
1772094064337497000,5.7214970703125,0.08218027055859566,0.0034788139925105493,-0.07574658424928785
1772094064347446300,5.7314462890625,0.04535480698645115,0.046934299296815876,-0.04200578881949186
1772094064357396200,5.741396240234375,0.020453005442023275,0.06573158712079748,-0.014070757059007882
1772094064367345200,5.75134521484375,0.03433715388774872,0.0287270155385253,-0.0009217910200357436
1772094064377294000,5.761294189453125,0.0558878914386034,-0.007386895380914211,-0.010299860218167305
1772094064387243000,5.771242919921875,0.057098436272144316,-0.007241043469705618,-0.023051935894042253
1772094064397192000,5.78119189453125,0.02603285140097141,0.0037482420510379596,-0.021595453475415704
1772094064407142100,5.79114208984375,0.0454699577987194,0.020581093367678112,-0.026872955486923453
1772094064417091000,5.801091064453125,0.07060264548957347,0.004966166473436169,-0.029707155999541282
1772094064427040000,5.8110400390625,0.08957739507257938,0.014274220908968708,-0.022809067048877477
1772094064436989200,5.8209892578125,0.09275602510869503,0.03799929769106675,-0.0234627086520195
1772094064446938000,5.830938232421875,0.07087094103693961,0.03519851995743811,-0.036677287273108955
1772094064456888300,5.840888427734375,0.051958735296130175,0.0189438338549342,-0.024121757082641124
1772094064466837200,5.850837158203125,0.08052782717645168,0.0022496146908495573,-0.032710721729695795
1772094064476786200,5.8607861328125,0.12680033352971076,-0.012679868956189602,-0.05796250575557351
1772094064486735000,5.870735107421875,0.15212942057549952,-0.027286436225217765,-0.06255597102567553
1772094064496684000,5.88068408203125,0.1404758076608181,-0.006228080734610557,-0.055173605689406394
1772094064506634000,5.890634033203125,0.11425181760191917,-0.007432789482409134,-0.028368747002631423
1772094064516583200,5.900583251953125,0.08295008588731288,-0.00006207120144972578,-0.004180646685510873
1772094064526532000,5.910531982421875,0.014324293428659438,0.027338095630507448,-0.0026521219439804553
1772094064536481000,5.92048095703125,-0.03475099538564682,0.03873925217106007,0.007132336097955703
1772094064546431000,5.930430908203125,-0.06243161399364471,0.036624913198477584,-0.009706278239190578
1772094064556380200,5.940380126953125,-0.050915363723039626,0.01730188903391827,-0.03466360936313868
1772094064566329000,5.9503291015625,0.0021662381231784818,-0.032209375478280705,-0.009682897363603114
1772094064576278300,5.9602783203125,0.041214638441801066,-0.020315957891778088,0.006522095245122909
1772094064586227200,5.970227294921875,0.09481646476984024,-0.015918599715665914,-0.008618775263428687
1772094064596177200,5.98017724609375,0.15323182885944842,-0.022825123134534806,-0.03920665962025523
1772094064606126000,5.9901259765625,0.15717910518050193,-0.01857391369715333,-0.05695712810531258
1772094064616075000,6.000074951171875,0.15415011274814605,-0.03746181154719088,-0.05553893187046051
1772094064626024000,6.01002392578125,0.11625146698653697,-0.030994241234590297,-0.06431625869646668
1772094064635973000,6.01997314453125,0.074941551476717,0.01649298837040551,-0.08068477130383253
1772094064645923000,6.029923095703125,0.059763271567225454,-0.026081636145873926,-0.04889613285511732
1772094064655872000,6.0398720703125,0.058553311255574225,-0.07630417246627622,-0.017241203788667916
1772094064665821200,6.0498212890625,0.05578033941090107,-0.13352583325929007,-0.00454246573522687
1772094064675770000,6.05977001953125,0.05903261920511722,-0.13510978711564092,-0.008078092515468597
1772094064685719000,6.069718994140625,0.07283961076140404,-0.09318683600770308,-0.04000920817479491
1772094064695669200,6.079669189453125,0.036567104896903034,-0.026198691220860926,-0.0698176325917244
1772094064705618200,6.0896181640625,-0.04741407760381698,0.06264751720007043,-0.07908990332782267
1772094064715567000,6.099567138671875,-0.06317512583732604,0.0444966968863504,-0.04339227474182844
1772094064725515500,6.109515625,-0.026669980260729788,-0.038760121429152784,-0.009087415688484906
1772094064735464400,6.11946435546875,0.018514730855822562,-0.11554196701031177,0.021161884363740682
1772094064745414700,6.12941455078125,0.0639700756072998,-0.15415687128249556,0.014996347471326589
1772094064755363600,6.139363525390625,0.11652560775279998,-0.12309137774286791,-0.035102146910876035
1772094064765312800,6.149312744140625,0.1401519825339317,-0.05199729090796318,-0.06876841579973697
1772094064775261700,6.15926171875,0.1320709674090147,0.032442613411997445,-0.12106763509660959
1772094064785212000,6.1692119140625,0.08159107249379158,0.07525671837311237,-0.1259432783089578
1772094064795160800,6.179160888671875,0.005220949518680572,0.0424953852676088,-0.047580374081432814
1772094064805109800,6.18910986328125,-0.07281506084203719,-0.037334732835111205,0.003645663025975227
1772094064815058700,6.19905859375,-0.10982990950644016,-0.09785637132185511,0.039794980902224775
1772094064825007600,6.209007568359375,-0.06875672536194324,-0.10941345592634752,0.06103709089532494
1772094064834957600,6.21895751953125,0.013765490502119063,-0.08297250778167509,0.027508038520067928
1772094064844906500,6.228906494140625,0.11347966418564319,-0.01948483169672545,-0.018873627296090125
1772094064854855700,6.238855712890625,0.17909516891241073,0.05515065863865893,-0.0543966299675405
1772094064864804900,6.248804931640625,0.17043606163859365,0.08195712019405327,-0.0799365832850337
1772094064874753800,6.25875390625,0.11917583000063896,0.04318470097233076,-0.054327948645502326
1772094064884703700,6.268703857421875,0.06252455297410488,-0.04491837463083211,-0.00884001679867506
1772094064894652700,6.278652587890625,0.04708616082370281,-0.12239786078706383,0.04495747823193669
1772094064904601600,6.2886015625,0.07180266892910003,-0.10580523883393034,0.06253770471662283
1772094064914550800,6.29855078125,0.10679039568006991,-0.042182268764404576,0.014968728812038897
1772094064924499700,6.308499755859375,0.1535381183296442,0.017414103537006304,-0.045431963875889776
1772094064934449700,6.31844970703125,0.11270692624747752,0.057487654785439365,-0.07510740956291556
1772094064944398600,6.328398681640625,0.04258826488256454,0.048264607185660856,-0.061737786510586735
1772094064954347500,6.338347412109375,-0.008090367475152016,-0.015055438981112092,-0.018492519024014473
1772094064964296700,6.348296630859375,-0.012788169902563094,-0.05586331411977298,0.006310936712473631
1772094064974246000,6.358245849609375,-0.004451718711853027,-0.06233236400340683,0.011327741961181163
1772094064984195600,6.368195556640625,0.04187222556769848,-0.06515508414078504,0.02368131983876228
1772094064994144800,6.378144775390625,0.091689272660017,-0.05683890855312347,0.00009060089290142059
1772094065004093700,6.38809375,0.12584580928385258,-0.04728603077735752,-0.00767448015064001
1772094065014042600,6.398042724609375,0.15480769987404344,-0.020006887376029042,-0.037205256669968365
1772094065023991600,6.407991455078125,0.13973346486091612,0.024671792180836198,-0.07508753581866622
1772094065033941800,6.417941650390625,0.06859072114527225,0.05674034811605233,-0.0948506593003869
1772094065043890700,6.427890625,-0.02490355511009693,0.0523749925134005,-0.0656442924298346
1772094065053839600,6.437839599609375,-0.10196049130558967,-0.028156816718424668,0.003156710465252399
1772094065063788500,6.44778857421875,-0.11203063442111015,-0.10178936338922939,0.06139277246519923
1772094065073737700,6.45773779296875,-0.0488467407554388,-0.10413688549660145,0.0465082148052752
1772094065083687700,6.467687744140625,0.051126376125216484,-0.07174093793765642,-0.02225976260304451
1772094065093636900,6.477636962890625,0.1405138015836477,-0.013586106214066966,-0.09876052622050047
1772094065103585800,6.487585693359375,0.17914602231681345,0.057396898628911,-0.14930179593414067
1772094065113534700,6.49753466796875,0.15169804342091084,0.07415221859677694,-0.13324673319011926
1772094065123484700,6.507484619140625,0.10681786820888518,0.01513149989200756,-0.049109921736270185
1772094065133433600,6.51743359375,0.03444879756867886,-0.041715400171326474,0.023352234014868734
1772094065143382800,6.5273828125,0.003651508244872093,-0.0772841690801084,0.03490969307869673
1772094065153331700,6.537331787109375,0.020016367590427398,-0.08186819066843018,-0.006195639769732952
1772094065163280600,6.54728076171875,0.058311903715133666,-0.016610349406069144,-0.07942176563069224
1772094065173230600,6.557230712890625,0.07060615262091159,0.038483752173185344,-0.11205723016709089
1772094065183179500,6.567179443359375,0.08648761236369609,0.024037768593616782,-0.08907061459422111
1772094065193128700,6.577128662109375,0.10055003998577594,-0.03955965604269877,-0.046959904095530504
1772094065203078000,6.587077880859375,0.11872224101424217,-0.06310683724093251,-0.012397417019307612
1772094065213026800,6.59702685546875,0.10715572186112403,-0.08730976066784933,0.01478343537300825
1772094065222976800,6.606976806640625,0.07107260108888148,-0.0457804485199973,0.0015697335347533226
1772094065232925700,6.61692578125,0.019426000481843946,0.010901296710036694,-0.03137932699546218
1772094065242874600,6.62687451171875,-0.022717443242669104,0.042330038638063706,-0.03661065177768469
1772094065252823600,6.636823486328125,-0.05355857170820236,0.043886803093389604,-0.01605126335173845
1772094065262772700,6.646772705078125,-0.0096247374355793,0.011445988912833854,0.019212796122580766
1772094065272722700,6.65672265625,0.06960662018954754,-0.023898538219439797,0.014846709867566824
1772094065282671600,6.666671630859375,0.0980728362172842,-0.03165524872685782,-0.012361176662147044
1772094065292620500,6.67662060546875,0.10555530092716216,-0.026085759765142574,-0.026628479206562042
1772094065302569700,6.68656982421875,0.09084989922642707,-0.03199088302254677,-0.04593041491732001
1772094065312518700,6.6965185546875,0.06204466050267219,-0.009574692315352148,-0.054513534345477815
1772094065322468900,6.70646875,0.02664952199459076,0.0054124352364800865,-0.05984817337170243
1772094065332417800,6.716417724609375,0.055717795568704605,0.014514422873011789,-0.038436405900120735
1772094065342366700,6.72636669921875,0.0931406405121088,0.007894771837815642,-0.017345687076449394
1772094065352315600,6.736315673828125,0.13195172494351864,-0.05397568287542089,-0.02671425779387355
1772094065362264600,6.7462646484375,0.13145488133728503,-0.07692753766216337,-0.02744242593795061
1772094065372214800,6.75621484375,0.042697570475935934,-0.039215094088460314,-0.02856982253268361
1772094065382163700,6.766163818359375,-0.011318681871891022,0.02324549483791925,-0.027862258785218
1772094065392112600,6.776112548828125,0.031876901254057885,0.01970446123019792,-0.04678951596468687
1772094065402061800,6.786061767578125,0.03480886305272579,0.020389278856315647,-0.023724574458599088
1772094065412011500,6.796011474609375,0.052746086281538006,0.04187187850782648,0.031468612714111804
1772094065421960700,6.805960693359375,0.08410334757566451,0.03881518521779217,0.019625614707171914
1772094065431910000,6.815909912109375,0.10680910038053988,0.029184483832307158,-0.03233618932887911
1772094065441858800,6.82585888671875,0.04830313539803028,0.014183811812312342,-0.030601474490761754
1772094065451807700,6.835807861328125,-0.008996376404166222,0.019437622420978733,0.014192922133952379
1772094065461757700,6.8457578125,-0.06113105278909206,0.009090493561560288,-0.029262773232907054
1772094065471706600,6.85570654296875,-0.05596797093749046,0.0016017178419046104,-0.07756357054337859
1772094065481655600,6.865655517578125,-0.026899697363376617,-0.01503936462914571,-0.07667582792341708
1772094065491604700,6.875604736328125,-0.004905307698249817,-0.03105042383465916,-0.0909824395649135
1772094065501553700,6.8855537109375,0.0004968436062335968,-0.035710355636826716,-0.08884732723236083
1772094065511503600,6.895503662109375,-0.0031868133425712584,-0.03527174045727588,-0.03674275372475386
1772094065521452500,6.90545263671875,0.015336685341596603,-0.0483307129581226,0.005580868872255087
1772094065531401700,6.915401611328125,0.04368833507895469,-0.03728333144143689,0.0067798693984746925
1772094065541350700,6.9253505859375,0.0610550649434328,-0.007484935228177346,-0.02379734743386507
1772094065551299600,6.935299560546875,0.07464870600998401,0.04016203781606163,-0.07716288078799843
1772094065561249800,6.945249755859375,0.09036474605798721,0.04449587490244303,-0.07442936417087913
1772094065571198700,6.95519873046875,0.16671733337640762,0.004057056838460266,-0.058693742639571424
1772094065581147600,6.965147705078125,0.20160802949368953,-0.04875028551048599,-0.0441541990250349
1772094065591096600,6.9750966796875,0.1670885047763586,-0.050419004173995925,-0.010235416679829358
1772094065601045500,6.98504541015625,0.14067045345008372,0.006228793120663613,0.005088116919249296
1772094065610995700,6.99499560546875,0.1510930632650852,0.029442778575466944,-0.01671075017377734
1772094065620944600,7.004944580078125,0.18650164577662945,0.031885016061854544,-0.04635083228647709
1772094065630893800,7.014893798828125,0.15811200211644172,0.048712095224834044,-0.059698535767942665
1772094065640842800,7.0248427734375,0.02358604277074337,0.05519527866509743,-0.07384440388977527
1772094065650791700,7.034791748046875,-0.1063730470508337,0.003922753801150247,-0.035521833627671
1772094065660741600,7.04474169921875,-0.15368307975828646,-0.039555509590543804,0.03370733155161142
1772094065670690800,7.05469091796875,-0.08826222082078457,-0.061277183261513705,0.019943302354216576
1772094065680639700,7.0646396484375,0.02324175937771797,-0.04100735236667096,-0.03399082466810942
1772094065690588700,7.074588623046875,0.1364496208846569,-0.0054202532167546445,-0.0728346423253417
1772094065700537600,7.08453759765625,0.17991466860175132,0.032834804767090824,-0.09668225864171981
1772094065710487600,7.094487548828125,0.12067454412579535,0.06199114935030229,-0.0843299959383905
1772094065720436500,7.1044365234375,0.027112463331222532,0.041823564120382066,-0.04755947742387652
1772094065730386000,7.114385986328125,-0.035624855610728264,0.025225535339768974,0.002893675614893436
1772094065740335000,7.124335205078125,-0.024887188497185707,0.004260232994053512,0.007011193936318159
1772094065750284000,7.134283935546875,0.04209259032011032,-0.02516509212311357,0.01473375101238489
1772094065760234000,7.14423388671875,0.07336860307157039,-0.036833281552419064,0.0017139643110334873
1772094065770183200,7.15418310546875,0.05232113886773586,0.007757774519920348,-0.04498158975988626
1772094065780132000,7.164132080078125,0.08361059562265873,0.04285972963455133,-0.06290083894059062
1772094065790081000,7.1740810546875,0.13491700448989868,0.0752656688645482,-0.07195698270797729
1772094065800031000,7.184031005859375,0.14093699543178081,0.05707633403819054,-0.07131327797695994
1772094065809980000,7.19397998046875,0.11039280408620834,0.016856834980426356,-0.032711013990640636
1772094065819928800,7.2039287109375,0.10729776068031788,-0.011760964012984185,-0.002245002447813749
1772094065829878000,7.2138779296875,0.0867833804398775,-0.008907775672106072,-0.0032721535384654995
1772094065839827000,7.223826904296875,0.04279810824096202,0.026772061528870836,-0.02658595523908734
1772094065849776000,7.233776123046875,0.019928104785084725,0.052762544225994495,-0.04065846586376429
1772094065859726000,7.24372607421875,0.03305412833988666,0.014403103419067337,-0.04228548254370689
1772094065869675000,7.253675048828125,0.0730628981232643,-0.01052322064526379,-0.03946647960022091
1772094065879624000,7.2636240234375,0.059897711601853365,0.008672852671379223,-0.05564852972477674
1772094065889573000,7.273572998046875,-0.005334931287169456,0.0223064421558287,-0.0576863191626966
1772094065899523000,7.283523193359375,-0.04385492381751537,0.051846680623246356,-0.03421922659650445
1772094065909472000,7.293471923828125,-0.04176408901810646,0.017240281340060754,-0.0115440150603652
1772094065919421000,7.3034208984375,0.0152104286134243,-0.024106833508145062,0.02709551219642162
1772094065929369900,7.313369873046875,0.07486614815294743,0.0014066062617581337,0.011316928306221961
1772094065939318800,7.32331884765625,0.11157646091282367,0.03450257358253002,-0.029489275465160607
1772094065949269000,7.33326904296875,0.1370329737305641,0.03969981343206018,-0.04746376196444034
1772094065959218000,7.343218017578125,0.13528349971473216,0.03620048180790618,-0.05123144393488765
1772094065969167000,7.3531669921875,0.12167933725416659,-0.0017158366077113896,-0.044465895322710274
1772094065979116000,7.363115966796875,0.1347720430612564,-0.03696638814648613,-0.025110914250463245
1772094065989065000,7.37306494140625,0.11485913584530352,-0.04708541190503165,-0.012718319536745548
1772094065999015200,7.38301513671875,0.10859598379731178,-0.03523604808938689,-0.011823416523635387
1772094066008964000,7.392964111328125,0.11877075633108615,-0.006093896428309381,-0.03756371471881866
1772094066018913000,7.4029130859375,0.12053659695982932,-0.005006667447183281,-0.07412365922257304
1772094066028862000,7.412862060546875,0.05785363855361938,-0.025726571063930167,-0.05546279789432883
1772094066038811000,7.422810791015625,-0.0678086308568716,-0.04396461300337687,0.021186434283107517
1772094066048760800,7.4327607421875,-0.15161270322501658,0.007409545604139566,0.04192205605879426
1772094066058709800,7.442709716796875,-0.12841712107658385,0.0706696828437969,-0.009500526534020901
1772094066068659000,7.452658935546875,-0.0033119010269641873,0.038473532173270354,-0.02650587574020028
1772094066078608100,7.462608154296875,0.11990882045030593,-0.03800112888854928,-0.036789223214983936
1772094066088557000,7.47255712890625,0.17736089246571063,-0.10030709807537495,-0.009013765930384396
1772094066098507000,7.482507080078125,0.13351824360787867,-0.10899259103261864,0.0032474574886262415
1772094066108456000,7.4924560546875,0.0729980161935091,-0.07885066034500486,-0.010931582250446081
1772094066118404900,7.50240478515625,0.0647848991215229,-0.035108010396081954,-0.04243380497321486
1772094066128354000,7.51235400390625,0.09570376899838447,0.00026961072161793705,-0.05674319309368729
1772094066138303000,7.522302978515625,0.05122925197780132,0.04922347424649633,-0.052325961173325775
1772094066148253000,7.5322529296875,-0.020337270107865332,0.08084594408175907,-0.04822919337898492
1772094066158201900,7.542201904296875,-0.008877133938670158,-0.005524663439299911,-0.02794745285063982
1772094066168150800,7.55215087890625,-0.0034393267989158626,-0.06628190534678287,-0.008596563431620597
1772094066178100000,7.562099853515625,-0.029028526085615156,-0.07796082623265684,-0.0022195757456123827
1772094066188049200,7.572049072265625,-0.043433483535051345,-0.05550269151329994,-0.02807823962345719
1772094066197999000,7.5819990234375,-0.01017243444621563,-0.06682399460054002,-0.05598331463709473
1772094066207948000,7.591947998046875,0.08475158235132693,-0.07242393349944613,-0.06963233915269375
1772094066217897000,7.60189697265625,0.11811375372707843,-0.04828550840979442,-0.10477291837781667
1772094066227846000,7.611845947265625,0.08916998331546783,-0.00030700185624882575,-0.10748232346698641
1772094066237794800,7.621794921875,0.056768765926361084,0.01474872938580811,-0.06072481007575988
1772094066247745000,7.6317451171875,0.06635726300477982,0.006574802679894492,-0.04049479973465204
1772094066257694000,7.64169384765625,0.08756079455316067,-0.05661490880521014,-0.027956805200874804
1772094066267643000,7.651642822265625,0.09723287826180457,-0.0672528327381704,-0.04989230428561568
1772094066277592000,7.661592041015625,0.07037760456204414,-0.05875825924314558,-0.056525312559306616
1772094066287541000,7.671541015625,0.053447512549161906,-0.058753975793672725,-0.031283027014136315
1772094066297491200,7.6814912109375,0.0454570983171463,-0.06011139088515192,0.0018142098151147363
1772094066307440000,7.691440185546875,0.04019873939752579,-0.012608977410756051,-0.024091215813904998
1772094066317389000,7.70138916015625,0.02651215935051441,0.027456025205040348,-0.027548808921873568
1772094066327338000,7.711337890625,0.0693815792620182,-0.0018458653287030755,-0.014155074341595172
1772094066337287000,7.721286865234375,0.12793664408326147,-0.0633813524665311,-0.007394932556897401
1772094066347236900,7.73123681640625,0.14328209725320337,-0.0878239938003011,-0.012258008548617362
1772094066357186000,7.74118603515625,0.10023147555589676,-0.04214816556540318,-0.030070874745398758
1772094066367135000,7.751135009765625,0.034579145950078966,-0.011967035378562287,-0.0378562679246068
1772094066377084000,7.761083984375,-0.026866964137554166,-0.01785873289881274,0.00032850130200386043
1772094066387033000,7.771033203125,-0.0602624532610178,-0.03337059214422479,0.02223418977037072
1772094066396982800,7.780982666015625,-0.025962124252319335,-0.02799713721126318,0.012479103953391312
1772094066406932000,7.790931884765625,0.058037762948870655,-0.032427740069851274,-0.0031909049957990644
1772094066416881200,7.800881103515625,0.1126993274629116,-0.019295907828770578,-0.01794379910007119
1772094066426830000,7.810830078125,0.12188333539366722,-0.010943848076974972,-0.008568360250443219
1772094066436779000,7.820779052734375,0.1483522401243448,-0.0204410227432847,-0.01856514586880803
1772094066446729000,7.83072900390625,0.1803290946215391,-0.022735426423931494,-0.04617971350327134
1772094066456678000,7.840677978515625,0.16496902840435504,-0.0053893100892193615,-0.09749284437224269
1772094066466626800,7.850626708984375,0.11633330005109309,0.008562852958263829,-0.11651435570642352
1772094066476576000,7.860575927734375,0.05309270776212215,-0.000695051325764507,-0.10673968840613961
1772094066486525200,7.870525146484375,0.02617547474205494,-0.029195178756257517,-0.07818579409494995
1772094066496475000,7.880474853515625,0.0210053786277771,-0.06955292637408711,-0.0388614994443953
1772094066506424000,7.890424072265625,0.03655716802477836,-0.09257064947127364,-0.01963058314323425
1772094066516373000,7.900373046875,0.031901451173424716,-0.08368472943794913,-0.029314211159199473
1772094066526322000,7.910322021484375,0.032435704180598254,-0.03403626211187802,-0.038353403791785236
1772094066536271000,7.92027099609375,0.042566637572646136,0.000807169930730015,-0.0738769909851253
1772094066546221000,7.930220947265625,0.021564181554317472,0.02455679663219489,-0.10867796299234032
1772094066556170000,7.940169921875,0.004506079247593879,0.03770058417255059,-0.13128420094549656
1772094066566119000,7.950118896484375,-0.03574409807622433,-0.00963327693506144,-0.06491422458961606
1772094066576067800,7.96006787109375,-0.025624855121970175,-0.065093554078741,-0.01711523932144046
1772094066586016800,7.970016845703125,-0.007810381489992141,-0.09297601540177129,0.04916910457760095
1772094066595967000,7.979967041015625,0.08259411205649375,-0.07717688191388733,0.0279210032351315
1772094066605916000,7.989916015625,0.15942542280256747,-0.02381570507446304,-0.055106239541620014
1772094066615865000,7.999864990234375,0.14342764320373536,0.025381739681633188,-0.11006401052325963
1772094066625814000,8.00981396484375,0.0688631083458662,0.06017656507585197,-0.10834960782080888
1772094066635763000,8.019762939453125,-0.02377718142867088,0.03679375325962901,-0.09293503493741154
1772094066645713200,8.029713134765625,-0.06480769547522068,-0.019753387538995592,-0.031130759061872956
1772094066655662000,8.039662109375,-0.06907996596693992,-0.05360487680165097,0.026252485501021144
1772094066665611000,8.049611083984376,-0.016139818418025968,-0.07683727469597942,0.04234408086314797
1772094066675560000,8.059559814453126,0.09776596222519875,-0.07988637833460234,0.03255640795081854
1772094066685508900,8.0695087890625,0.1905944680482149,-0.07700528820664622,-0.024686697489023208
1772094066695458800,8.079458740234376,0.2359124501556158,-0.06446800605892203,-0.0748977123349905
1772094066705408000,8.089407958984374,0.25806524525284763,-0.04942216602321714,-0.09101809540018439
1772094066715357200,8.099357177734374,0.16649696862399577,-0.024466606731247155,-0.14467238256782292
1772094066725306000,8.10930615234375,0.012735562932491302,0.012118262151209636,-0.1462815713301301
1772094066735255000,8.119255126953124,-0.09259820419847965,0.015573060513893141,-0.11252426315695047
1772094066745205200,8.129205322265625,-0.12108254040479659,-0.057975255639292296,-0.06757365305721759
1772094066755154200,8.139154296875,-0.07523615050911903,-0.11432643547439947,-0.02851487747505307
1772094066765103000,8.14910302734375,-0.0030921207964420315,-0.1273859879305586,-0.007948036395013331
1772094066775052000,8.159052001953125,0.05954466038048267,-0.09826176465181634,-0.033962621486932035
1772094066785002000,8.169001953125,0.09149111973941326,-0.022263324533309786,-0.0719077367387712
1772094066794951200,8.178951171875,0.11777648459672928,0.015974051663372665,-0.08563917884081601
1772094066804900000,8.188900146484375,0.13977671948075293,-0.00359464522479102,-0.0766314042598009
1772094066814849000,8.19884912109375,0.1033095678269863,-0.007354646212281659,-0.06286620601862669
1772094066824798200,8.208798095703125,0.011252630898356437,-0.028540806500753385,0.011250585071742534
1772094066834747100,8.2187470703125,-0.0017255086183547972,-0.013898117605573497,0.05155030062571168
1772094066844697000,8.228697021484376,0.02775660645365715,0.004707419639127328,0.04629837144687771
1772094066854646300,8.238646240234376,0.07257832947671412,0.03949289268311113,0.009915829336643218
1772094066864595200,8.24859521484375,0.08595686648786068,0.08860338067496194,-0.06594459055066108
1772094066874544000,8.258544189453126,0.06411152990460395,0.07422259411897976,-0.06899170316159725
1772094066884493000,8.2684931640625,0.05554068543612957,0.0223747353187995,-0.025901918497681618
1772094066894443000,8.278443115234374,0.04603168333470821,-0.027111490650265475,0.0028697102174162865
1772094066904392000,8.288391845703124,0.03790682906806469,-0.08224634893159381,0.006412497390806675
1772094066914341000,8.298341064453124,0.01161503446996212,-0.10363249790472909,0.01364259477481246
1772094066924290300,8.308290283203124,-0.03233925806879997,-0.08472566245878115,0.01926306500509381
1772094066934239200,8.3182392578125,-0.07104103690683841,-0.02741748329293914,-0.0304829626776278
1772094066944189200,8.328189208984375,-0.05829086092710495,0.03197560782160144,-0.07345379713699221
1772094066954138000,8.33813818359375,0.022160393881797788,0.05393017693299334,-0.09087488753721118
1772094066964087000,8.348087158203125,0.0720744716078043,0.015226512098545208,-0.07647650595903396
1772094066974036200,8.3580361328125,0.11010171218514442,-0.043692349100369024,-0.038230508064478634
1772094066983985200,8.367985107421875,0.10677928976416587,-0.057770179787557566,-0.023635581000894308
1772094066993935000,8.37793505859375,0.07802958061993122,-0.027293391122389585,-0.01854819473400712
1772094067003884000,8.387884033203125,0.10002221671938896,-0.013505661388998851,-0.0012621288903057575
1772094067013833000,8.3978330078125,0.1329723001629114,-0.030196236424427477,-0.00985913071334362
1772094067023782000,8.407781982421875,0.16614508644640444,-0.057016466210270296,-0.01674012239873409
1772094067033731300,8.4177314453125,0.2006120041936636,-0.04780636485703289,-0.0240311561897397
1772094067043681000,8.427680908203126,0.16999533213376997,-0.020358048034412785,-0.04328384593129158
1772094067053630200,8.437630126953126,0.13920914872586726,0.019612700426671653,-0.04964285956919193
1772094067063579100,8.4475791015625,0.03995557829141617,0.08140307564102113,-0.04672989473193884
1772094067073528000,8.457528076171876,-0.04373392778635025,0.07754083812176249,-0.033737434428930284
1772094067083477000,8.46747705078125,-0.027087913411855697,0.013248453491227701,-0.012031214055418968
1772094067093427200,8.47742724609375,-0.00005728314518928528,-0.06431293879479635,-0.013907383190840481
1772094067103376100,8.487376220703124,0.01647884111404419,-0.07161781388148665,-0.02681041164472699
1772094067113325000,8.497324951171874,0.006148001235723495,-0.04913830301396083,-0.04676934995949268
1772094067123274000,8.50727392578125,0.018739771783351896,-0.031257705343212,-0.027205256181210277
1772094067133224000,8.517223876953125,0.06601590222120285,0.028378236350184306,-0.018187398597598076
1772094067143173000,8.527173095703125,0.12428104418516159,0.09662789810597897,-0.07616159479096532
1772094067153122300,8.537122314453125,0.12513619970977305,0.07691936348886229,-0.10138371433094143
1772094067163071200,8.5470712890625,0.11032675311267376,0.027103512839786705,-0.06526493772342801
1772094067173020200,8.557020263671875,0.086944708481431,-0.008548239911021664,-0.031468320453166956
1772094067182970000,8.56697021484375,0.06524608689248561,-0.011321969807520508,-0.01180500408411026
1772094067192919000,8.5769189453125,0.11387187837362289,-0.011018022991460747,-0.006396423038840294
1772094067202868000,8.586867919921875,0.1869827072918415,0.010843894833838566,-0.029927813012897965
1772094067212817200,8.596817138671875,0.246024094325304,0.07312775265355594,-0.09554054126068949
1772094067222766000,8.60676611328125,0.19857085375487804,0.09993975346717052,-0.120148328294605
1772094067232716000,8.616716064453126,0.17803484620451926,0.04895943474913947,-0.15474106437861918
1772094067242665000,8.6266650390625,0.20250059441924095,0.07557336027396376,-0.04032616516947746
1772094067252614100,8.6366142578125,0.010343114838004111,0.023127690844261087,-0.10957622700631618
1772094067262563000,8.64656298828125,-0.17721593103706837,-0.04884424283767584,-0.024137100782245395
1772094067272512300,8.65651220703125,-0.379041987195611,-0.025714652297273276,0.23629911138564347
1772094067282462200,8.666462158203124,-0.43113633157014847,0.012741860242537222,0.16693682134598492
1772094067292411100,8.6764111328125,-0.3173778504431248,-0.04847829103553667,0.08626578630656004
1772094067302360000,8.686360107421875,-0.18500585426092148,0.09299814503518863,0.05217603130862117
1772094067312309000,8.69630908203125,-0.0918991160184145,0.10590799595550633,-0.01625087757706642
1772094067322258000,8.7062578125,-0.05167407313585281,0.09888976949020288,-0.016475041721761226
1772094067332208000,8.7162080078125,0.05029635504186153,0.08461655779480934,0.07156769112944603
1772094067342157000,8.726156982421875,0.053012628263235086,-0.026269071309641002,0.05697641732767224
1772094067352106000,8.73610595703125,0.0919032076716423,-0.04926282900935039,-0.026062077495455742
1772094067362055200,8.74605517578125,0.12093114923536777,-0.00020877477931790053,-0.1141642854489386
1772094067372004000,8.756004150390625,0.1701899779230356,0.02979866107474081,-0.13650266624614596
1772094067381954300,8.765954345703125,0.30655893478691576,0.030180180338770148,-0.13763093962371348
1772094067391903200,8.7759033203125,0.47351650665998457,0.030690449682157485,-0.13752324146553874
1772094067401852200,8.78585205078125,0.5048959797859192,0.08190478721861727,-0.1241832828991115
1772094067411801000,8.795801025390626,0.42465281476974487,-0.006647694386169314,-0.046076399259269235
