time,seconds_elapsed,z,y,x
1772094058696296200,0.080296142578125,-0.01340230368077755,0.02559512108564377,0.052420612424612045
1772094058706245000,0.0902451171875,-0.009899135679006577,-0.020468123257160187,0.05749892070889473
1772094058716194000,0.100194091796875,-0.004849782679229975,-0.036459870636463165,0.04108239710330963
1772094058726144000,0.11014404296875,-0.0007984931580722332,-0.0347692035138607,0.018757347017526627
1772094058736093000,0.120093017578125,-0.0015745381824672222,-0.04568736255168915,-0.007703288458287716
1772094058746042000,0.1300419921875,-0.002213343046605587,-0.0401233546435833,-0.032034728676080704
1772094058755991000,0.139990966796875,-0.002224261872470379,-0.021073762327432632,-0.04975993186235428
1772094058765940000,0.14993994140625,-0.009807262569665909,-0.010439305566251278,-0.046805236488580704
1772094058775890200,0.15989013671875,-0.01390080712735653,-0.026565279811620712,-0.030916549265384674
1772094058785839000,0.169839111328125,-0.009226998314261436,-0.031225817278027534,-0.013565592467784882
1772094058795788000,0.1797880859375,-0.0010090165305882692,-0.018658094108104706,0.0004484932869672775
1772094058805737000,0.189737060546875,0.008789402432739735,-0.013675715774297714,0.010276416316628456
1772094058815686000,0.199685791015625,0.01566275581717491,-0.01672237180173397,0.014372624456882477
1772094058825636000,0.209635986328125,0.015294631943106651,-0.009020315483212471,0.013778943568468094
1772094058835585000,0.2195849609375,0.004854774568229914,-0.012403861619532108,0.012061471119523048
1772094058845534200,0.2295341796875,-0.00013324152678251266,-0.012459864839911461,0.007576626725494862
1772094058855483100,0.239483154296875,-0.014788616448640823,-0.012916330248117447,0.007817110046744347
1772094058865432000,0.24943212890625,-0.01896578073501587,-0.02872559428215027,0.008203995414078236
1772094058875382000,0.259382080078125,-0.017335927113890648,-0.0340266153216362,-0.006093717645853758
1772094058885331200,0.269331298828125,-0.00906299240887165,-0.024474505335092545,-0.023878682404756546
1772094058895280000,0.279280029296875,-0.00573191000148654,-0.022850509732961655,-0.030924607068300247
1772094058905229000,0.28922900390625,-0.008299646899104118,-0.025299742817878723,-0.01843857392668724
1772094058915178000,0.299177978515625,-0.009221100248396397,-0.026158347725868225,0.00406859815120697
1772094058925128000,0.3091279296875,-0.007998530752956867,-0.02763771265745163,0.02882682904601097
1772094058935076900,0.319076904296875,-0.001975791761651635,-0.026418518275022507,0.05950910598039627
1772094058945026000,0.329026123046875,0.0026977495290338993,-0.02742680162191391,0.06207738816738129
1772094058954975200,0.338975341796875,0.00888134352862835,-0.017094800248742104,0.0556703545153141
1772094058964925000,0.348925048828125,0.009539764374494553,-0.016797076910734177,0.04109658673405647
1772094058974874000,0.3588740234375,0.004322898108512163,-0.012320837005972862,0.02598314732313156
1772094058984823000,0.368822998046875,0.0034710420295596123,-0.02179611660540104,0.007283077109605074
1772094058994772000,0.37877197265625,-0.003390326164662838,-0.02323821745812893,-0.013604627922177315
1772094059004721200,0.38872119140625,-0.007522445172071457,-0.02656790241599083,-0.03221852704882622
1772094059014671000,0.398671142578125,-0.01734737865626812,-0.03066730499267578,-0.04021706432104111
1772094059024620000,0.4086201171875,-0.022583290934562683,-0.04079153388738632,-0.042592499405145645
1772094059034569000,0.41856884765625,-0.022409122437238693,-0.035276662558317184,-0.0449717678129673
1772094059044518000,0.428517822265625,-0.01982491835951805,-0.02054356411099434,-0.03867935761809349
1772094059054467000,0.438467041015625,-0.016723133623600006,-0.023876778781414032,-0.021138448268175125
1772094059064417000,0.4484169921875,-0.012487554922699928,-0.02373937889933586,-0.008123733103275299
1772094059074366200,0.4583662109375,-0.00025219377130270004,-0.020222673192620277,-0.008379129692912102
1772094059084315100,0.468315185546875,0.009257419034838676,-0.00463738152757287,-0.011084296740591526
1772094059094264000,0.47826416015625,0.017787789925932884,-0.0011084266006946564,-0.007809674367308617
1772094059104214000,0.488214111328125,0.0206085704267025,-0.0004152711480855942,-0.01304970495402813
1772094059114163200,0.4981630859375,0.02055637165904045,-0.020395372062921524,-0.010486679151654243
1772094059124112100,0.508112060546875,0.008259892463684082,-0.035160306841135025,-0.004903131164610386
1772094059134061000,0.51806103515625,0.007737379986792803,-0.03008538857102394,-0.005037887021899223
1772094059144010000,0.528010009765625,0.007073319982737303,-0.05424654483795166,0.0010192422196269035
1772094059153960000,0.5379599609375,-0.0034421714954078197,-0.09660624712705612,0.01740460842847824
1772094059163908900,0.547908935546875,0.007202175445854664,-0.07777531445026398,0.02665635757148266
1772094059173858000,0.557858154296875,-0.0024738877546042204,-0.08415358513593674,0.024693874642252922
1772094059183807200,0.56780712890625,0.000593128614127636,-0.06013546139001846,0.022449158132076263
1772094059193756200,0.577756103515625,0.002349749207496643,-0.08142530918121338,0.030890578404068947
1772094059203706000,0.5877060546875,-0.04835425317287445,-0.09894870966672897,0.02226853184401989
1772094059213655000,0.597655029296875,-0.08648725599050522,-0.04470917582511902,-0.03328261151909828
1772094059223604000,0.60760400390625,-0.10179479420185089,0.013064557686448097,-0.09139852970838547
1772094059233553200,0.61755322265625,-0.11212572455406189,-0.0007628416642546654,-0.09704922139644623
1772094059243502000,0.627502197265625,-0.13125213980674744,0.028486019000411034,-0.07353940606117249
1772094059253452000,0.6374521484375,-0.12243548780679703,0.03778684511780739,-0.04403344914317131
1772094059263401000,0.64740087890625,-0.08158886432647705,0.04889194667339325,-0.006719448138028383
1772094059273350000,0.657349853515625,-0.03608262911438942,0.03468132019042969,0.04950147867202759
1772094059283299000,0.667299072265625,0.005299694370478392,0.023813968524336815,0.10881254822015762
1772094059293249000,0.6772490234375,0.047580040991306305,-0.04070723429322243,0.16635972261428833
1772094059303198200,0.6871982421875,0.04028782248497009,-0.07632272690534592,0.20395900309085846
1772094059313147100,0.697147216796875,0.03963668271899223,-0.09375551342964172,0.1827477216720581
1772094059323096000,0.707095947265625,0.0007885545492172241,-0.09046825021505356,0.1377551257610321
1772094059333045000,0.717044921875,-0.015525703318417072,-0.07032783329486847,0.07632078975439072
1772094059342995200,0.7269951171875,-0.038403403013944626,-0.0132607351988554,0.0319582037627697
1772094059352944000,0.736944091796875,-0.059038907289505005,0.010040059685707092,-0.002245039213448763
1772094059362893000,0.74689306640625,-0.055607013404369354,-0.016589827835559845,0.005223732907325029
1772094059372842000,0.756842041015625,-0.04745614528656006,-0.06635578721761703,0.03820245340466499
1772094059382791200,0.766791259765625,-0.029286684468388557,-0.07847528904676437,0.0686350017786026
1772094059392740900,0.776740966796875,-0.01683827117085457,-0.11374752968549728,0.07438503205776215
1772094059402690000,0.78668994140625,-0.01830003224313259,-0.12695789337158203,0.09160134941339493
1772094059412639200,0.79663916015625,-0.009965936653316021,-0.11126788705587387,0.09686801582574844
1772094059422588200,0.806588134765625,-0.02290269359946251,-0.09887878596782684,0.10445835441350937
1772094059432537000,0.816537109375,-0.03669413924217224,-0.11348648369312286,0.11586201190948486
1772094059442487000,0.826487060546875,-0.034131329506635666,-0.09343424439430237,0.12621909379959106
1772094059452436000,0.83643603515625,-0.043397266417741776,-0.06790705025196075,0.10919935256242752
1772094059462385200,0.84638525390625,-0.041741177439689636,-0.01622484065592289,0.06417226791381836
1772094059472334000,0.856333984375,-0.02631002478301525,0.014026005752384663,0.0159597285091877
1772094059482283000,0.866282958984375,-0.03228762000799179,0.034415919333696365,-0.0035778633318841457
1772094059492233000,0.87623291015625,-0.034182995557785034,0.032543715089559555,-0.0016332236118614674
1772094059502182000,0.886181884765625,-0.027654964476823807,0.03479614108800888,0.003118309658020735
1772094059512131000,0.896131103515625,-0.027054155245423317,0.03214975818991661,-0.0007752319797873497
1772094059522080000,0.906080078125,-0.026880530640482903,0.02700888365507126,-0.01480667944997549
1772094059532030200,0.9160302734375,-0.02421550452709198,0.03521008789539337,-0.03569731116294861
1772094059541979100,0.925979248046875,-0.02545342966914177,0.036006927490234375,-0.04779723286628723
1772094059551928000,0.935927978515625,-0.021715417504310608,0.041113801300525665,-0.06722179800271988
1772094059561877000,0.945876953125,-0.010297738946974277,0.0305790975689888,-0.07451623678207397
1772094059571826000,0.955825927734375,-0.007150681689381599,0.0004946980625391006,-0.0603005476295948
1772094059581776100,0.965776123046875,-0.0005201110616326332,-0.0013598287478089333,-0.06483034789562225
1772094059591725000,0.97572509765625,0.013804765418171883,0.016117164865136147,-0.09093944728374481
1772094059601674000,0.985674072265625,0.020167328417301178,0.029043199494481087,-0.10993991792201996
1772094059611623200,0.995623046875,0.02475142851471901,0.0261858943849802,-0.103855662047863
1772094059621572000,1.005572021484375,0.020063551142811775,0.03252733498811722,-0.09599355608224869
1772094059631522300,1.015522216796875,0.011716138571500778,0.04402713105082512,-0.08957533538341522
1772094059641471200,1.02547119140625,-0.0006328891031444073,0.05087649077177048,-0.07830719649791718
1772094059651420200,1.035420166015625,-0.0029578288085758686,0.038523152470588684,-0.05761522799730301
1772094059661369000,1.045369140625,0.004675227217376232,0.03761592134833336,-0.039518412202596664
1772094059671319000,1.055319091796875,0.020082145929336548,0.05742344632744789,-0.0366525836288929
1772094059681268000,1.06526806640625,0.03435841575264931,0.06456269323825836,-0.01695048250257969
1772094059691217000,1.075216796875,0.03695819526910782,0.06051814556121826,0.01764610968530178
1772094059701166000,1.085166015625,0.016349945217370987,0.029098419472575188,0.05204707384109497
1772094059711115000,1.095114990234375,0.004733501933515072,0.014197233133018017,0.05545565485954285
1772094059721061000,1.10506103515625,-0.014064372517168522,0.031455762684345245,0.024664834141731262
1772094059731010300,1.11501025390625,-0.02540544420480728,0.04082955792546272,-0.001685545314103365
1772094059740959200,1.124959228515625,-0.030243894085288048,0.04146987199783325,-0.023542163893580437
1772094059750908200,1.134908203125,-0.032632216811180115,0.04482864961028099,-0.035150881856679916
1772094059760857300,1.144857421875,-0.041406020522117615,0.04761895909905434,-0.041329625993967056
1772094059770807300,1.154807373046875,-0.03558142110705376,0.02368433028459549,-0.02942955307662487
1772094059780756200,1.164756103515625,-0.02346208319067955,0.015420046634972095,0.0004285168834030628
1772094059790705200,1.174705078125,-0.019589049741625786,0.01349378190934658,0.005650176666676998
1772094059800654000,1.184654052734375,-0.028333229944109917,0.018689732998609543,0.0010974262841045856
1772094059810604300,1.194604248046875,-0.026050634682178497,0.01783006452023983,0.0026947902515530586
1772094059820553200,1.20455322265625,-0.018422985449433327,0.012409979477524757,-0.0007661408744752407
1772094059830502100,1.214502197265625,-0.027907300740480423,0.019756576046347618,-0.018970711156725883
1772094059840451300,1.224451416015625,-0.01749340631067753,0.0650881677865982,-0.041534870862960815
1772094059850400300,1.234400146484375,-0.001957856584340334,0.05536443740129471,-0.04126695543527603
1772094059860350200,1.24435009765625,0.0023474544286727905,0.04748149216175079,-0.030262699350714684
1772094059870299400,1.25429931640625,0.0026598433032631874,0.05111857131123543,-0.02411505952477455
1772094059880248300,1.264248291015625,0.00942080095410347,0.04024391248822212,-0.017278240993618965
1772094059890197200,1.274197265625,0.005686250049620867,0.024382390081882477,-0.0043661706149578094
1772094059900146200,1.284146240234375,0.0011613210663199425,0.01931430958211422,0.002274805912747979
1772094059910096100,1.29409619140625,0.009796088561415672,0.006901849061250687,0.005246361251920462
1772094059920045000,1.304045166015625,0.006986415013670921,0.008635558187961578,0.004598344210535288
1772094059929994200,1.313994140625,0.0060836030170321465,-0.0014857850037515163,-0.0032763569615781307
1772094059939943400,1.323943359375,0.012338082306087017,-0.018231503665447235,-0.014431764371693134
1772094059949893000,1.33389306640625,0.013310934416949749,-0.018823526799678802,-0.04179654270410538
1772094059959842300,1.34384228515625,0.01277852337807417,0.014886796474456787,-0.07644857466220856
1772094059969791200,1.353791259765625,0.003057186957448721,0.02790965512394905,-0.10169800370931625
1772094059979740200,1.363740234375,-0.003349719801917672,0.03141755983233452,-0.10185761004686356
1772094059989689000,1.373689208984375,-0.012880107387900352,0.03485090658068657,-0.10307653993368149
1772094059999639300,1.383639404296875,-0.014267790131270885,0.02844870463013649,-0.10766379535198212
1772094060009588200,1.393588134765625,-0.0063344999216496944,0.022171102464199066,-0.10278594493865967
1772094060019537200,1.403537109375,0.002984748687595129,0.017024250701069832,-0.09519190341234207
1772094060029486000,1.413486083984375,0.00863491091877222,-0.00934477336704731,-0.06195058673620224
1772094060039435300,1.423435302734375,0.0030737873166799545,-0.04196520894765854,-0.02474147081375122
1772094060049385200,1.43338525390625,0.005926033016294241,-0.0633661076426506,0.01191081665456295
1772094060059334400,1.44333447265625,0.01782725565135479,-0.05929367244243622,0.023195883259177208
1772094060069283300,1.453283447265625,0.021228911355137825,-0.029950430616736412,0.015278838574886322
1772094060079232300,1.463232177734375,0.026212923228740692,-0.011119372211396694,0.0009540673345327377
1772094060089181200,1.47318115234375,0.0161600224673748,0.01884625107049942,-0.01612425222992897
1772094060099131400,1.48313134765625,0.0073011950589716434,0.03838668018579483,-0.039293598383665085
1772094060109080300,1.493080322265625,-0.000800673384219408,0.059232309460639954,-0.04659252241253853
1772094060119029200,1.503029296875,0.007632259279489517,0.07093797624111176,-0.05224235728383064
1772094060128978200,1.512978271484375,0.008307370357215405,0.06056256219744682,-0.04800739884376526
1772094060138928000,1.52292822265625,0.017601454630494118,0.06513555347919464,-0.042784854769706726
1772094060148877000,1.532876953125,0.02592782862484455,0.09271445125341415,-0.031345244497060776
1772094060158826200,1.542826171875,0.0154621172696352,0.09328658133745193,-0.015826528891921043
1772094060168775400,1.552775390625,0.0014435048215091228,0.08330398797988892,0.008954983204603195
1772094060178724400,1.562724365234375,-0.015471456572413445,0.06400182843208313,0.0270856861025095
1772094060188674300,1.57267431640625,-0.016311416402459145,0.05676655098795891,0.03963929042220116
1772094060198623200,1.582623291015625,-0.01286874059587717,0.0467289499938488,0.03755735605955124
1772094060208572200,1.592572265625,-0.017941530793905258,0.03482195362448692,0.020369315519928932
1772094060218521000,1.60252099609375,-0.020540660247206688,0.03112647868692875,0.0037402547895908356
1772094060228470300,1.61247021484375,-0.017562977969646454,0.031413834542036057,-0.020017271861433983
1772094060238420200,1.622420166015625,-0.015311216935515404,0.040082190185785294,-0.041219256818294525
1772094060248369200,1.632369140625,-0.007954234257340431,0.04681412875652313,-0.05262104794383049
1772094060258318000,1.642318115234375,0.0028829192742705345,0.03358709067106247,-0.05793922767043114
1772094060268267300,1.652267333984375,0.020848870277404785,0.02841177210211754,-0.06626933068037033
1772094060278217200,1.66221728515625,0.04339199140667915,0.018920740112662315,-0.08546692132949829
1772094060288166400,1.67216650390625,0.06303120404481888,0.03147328272461891,-0.09530144184827805
1772094060298115300,1.682115234375,0.07985693216323853,0.055482491850852966,-0.10204368829727173
1772094060308064300,1.692064208984375,0.07523608207702637,0.032796356827020645,-0.07839880883693695
1772094060318013200,1.70201318359375,0.08593066036701202,0.02370244637131691,-0.029238006100058556
1772094060327963100,1.711963134765625,0.11131804436445236,-0.013041454367339611,0.012077742256224155
1772094060337912300,1.721912353515625,0.12550146877765656,-0.02628769911825657,0.030174046754837036
1772094060347861200,1.731861328125,0.13971875607967377,-0.011751633137464523,0.022232767194509506
1772094060357810200,1.74181005859375,0.13964854180812836,0.004187898710370064,-0.00022502290084958076
1772094060367760100,1.751760009765625,0.12160243093967438,0.012687643989920616,-0.0178905688226223
1772094060377709000,1.761708984375,0.09714395552873611,0.02160683646798134,-0.037057869136333466
1772094060387658200,1.771658203125,0.06926784664392471,0.01584642007946968,-0.051139868795871735
1772094060397607400,1.781607421875,0.04114535078406334,0.006662534084171057,-0.05627528950572014
1772094060407556400,1.791556396484375,0.024236146360635757,0.006049208343029022,-0.061982978135347366
1772094060417506300,1.80150634765625,0.00599964102730155,-0.00439363531768322,-0.05829676240682602
1772094060427455200,1.811455322265625,-0.01182995643466711,-0.012568740174174309,-0.05572494491934776
1772094060437404200,1.821404052734375,-0.024341244250535965,-0.013983622193336487,-0.051686663180589676
1772094060447353000,1.83135302734375,-0.03325803950428963,-0.002761327661573887,-0.037592947483062744
1772094060457302300,1.84130224609375,-0.037072934210300446,0.002091938629746437,-0.023608237504959106
1772094060467252200,1.851252197265625,-0.03727586939930916,-0.007957765832543373,-0.0027836491353809834
1772094060477201200,1.861201171875,-0.03207985684275627,-0.008849047124385834,0.01622661016881466
1772094060487150000,1.871150146484375,-0.03381197899580002,-0.010924449190497398,0.015063873492181301
1772094060497099300,1.881099365234375,-0.03914785012602806,-0.004991394467651844,0.0076943691819906235
1772094060507049200,1.89104931640625,-0.040501002222299576,-0.006243612617254257,-0.0019068592227995396
1772094060516998400,1.900998291015625,-0.03813433647155762,-0.006309639662504196,-0.010278619825839996
1772094060526947300,1.910947265625,-0.031985096633434296,-0.004291496239602566,-0.01854320615530014
1772094060536896300,1.920896240234375,-0.0184209942817688,-0.0012719640508294106,-0.01987740956246853
1772094060546845200,1.93084521484375,-0.011503432877361774,-0.0005577043630182743,-0.017261385917663574
1772094060556795100,1.940795166015625,-0.00546084763482213,-0.00992754939943552,-0.02182828262448311
1772094060566744300,1.950744384765625,-0.0027079381980001926,-0.021309368312358856,-0.029518160969018936
1772094060576693200,1.960693359375,0.002754471730440855,-0.021435335278511047,-0.051524125039577484
1772094060586642200,1.97064208984375,0.008851779624819756,0.0015621259808540344,-0.07748036086559296
1772094060596591400,1.98059130859375,0.012805227190256119,0.026502186432480812,-0.11518038809299469
1772094060606541000,1.990541015625,0.005158491898328066,0.05476311966776848,-0.13932007551193237
1772094060616490200,2.000490234375,-0.002979230834171176,0.056734755635261536,-0.1285601407289505
1772094060626439400,2.010439453125,-0.001655107131227851,0.043123070150613785,-0.08313752710819244
1772094060636388400,2.020388427734375,0.004418176598846912,0.015571365132927895,-0.027669522911310196
1772094060646338300,2.03033837890625,0.006612621247768402,0.006358426064252853,0.01670673117041588
1772094060656287200,2.040287353515625,0.005589751061052084,0.007326401770114899,0.03902999684214592
1772094060666236200,2.050236083984375,0.004140192177146673,-0.001318219117820263,0.04190194979310036
1772094060676185000,2.06018505859375,0.01022761408239603,0.025613581761717796,0.03873930871486664
1772094060686134300,2.07013427734375,0.010352782905101776,0.021646536886692047,0.03152719885110855
1772094060696084200,2.080084228515625,0.008887238800525665,0.02330583706498146,0.03488612547516823
1772094060706033200,2.090033203125,0.008173245936632156,0.020316172391176224,0.03339661657810211
1772094060715982000,2.099982177734375,0.0036075282841920853,0.025349128991365433,0.017537083476781845
1772094060725932000,2.10993212890625,-0.003515628632158041,0.03262568265199661,0.003791709430515766
1772094060735882200,2.11988232421875,-0.014295713976025581,0.035315465182065964,-0.006939316168427467
1772094060745831200,2.1298310546875,-0.019306451082229614,0.02651344984769821,-0.0016774428077042103
1772094060755780000,2.139780029296875,-0.01850510574877262,0.013059694319963455,0.010157644748687744
1772094060765729300,2.149729248046875,-0.015087205916643143,0.006926167756319046,0.017448846250772476
1772094060775678200,2.15967822265625,-0.011382302269339561,0.0015812227502465248,0.008579342626035213
1772094060785628200,2.169628173828125,-0.014975439757108688,0.002031563315540552,-0.0030829058960080147
1772094060795577300,2.179577392578125,-0.013699781149625778,0.004194375593215227,-0.01589970663189888
1772094060805526300,2.1895263671875,-0.011833172291517258,-0.004183663055300713,-0.017550602555274963
1772094060815475200,2.19947509765625,-0.010012861341238022,-0.003923140931874514,-0.026249023154377937
1772094060825424100,2.209424072265625,-0.011066675186157227,0.003277513897046447,-0.026712412014603615
1772094060835374000,2.2193740234375,-0.0055356863886117935,0.009371787309646606,-0.022055910900235176
1772094060845323000,2.229322998046875,-0.00030550453811883926,0.009881783276796341,-0.006906518712639809
1772094060855272200,2.239272216796875,0.01637231558561325,0.005199743900448084,0.011279137805104256
1772094060865221400,2.249221435546875,0.025554362684488297,-0.005346107296645641,0.031439267098903656
1772094060875171000,2.259171142578125,0.028788283467292786,-0.005261769983917475,0.03450388461351395
1772094060885120300,2.269120361328125,0.023608971387147903,-0.005358974914997816,0.03192780911922455
1772094060895069200,2.279069091796875,0.028937943279743195,-0.011281963437795639,0.026377923786640167
1772094060905018000,2.28901806640625,0.03180963173508644,-0.006596664432436228,0.011425871402025223
1772094060914967300,2.29896728515625,0.03471861779689789,-0.004234529100358486,-0.004981545731425285
1772094060924917200,2.308917236328125,0.03363018482923508,-0.003952766768634319,-0.013241074047982693
1772094060934866200,2.3188662109375,0.032994385808706284,-0.004868785385042429,-0.011954398825764656
1772094060944815000,2.328815185546875,0.03217839077115059,-0.008904006332159042,-0.009189505130052567
1772094060954764000,2.338763916015625,0.03282009810209274,-0.01350055169314146,0.002431746805086732
1772094060964713200,2.348713134765625,0.03345898911356926,-0.02007269859313965,0.01165187731385231
1772094060974663200,2.3586630859375,0.030776776373386383,-0.01885165274143219,0.017287570983171463
1772094060984612400,2.3686123046875,0.027900561690330505,-0.01795097254216671,0.019010372459888458
1772094060994561300,2.378561279296875,0.021373551338911057,-0.02462182193994522,0.014452672563493252
1772094061004510200,2.38851025390625,0.02182069607079029,-0.023121129721403122,0.008715957403182983
1772094061014460200,2.398460205078125,0.02245848998427391,-0.019586320966482162,-0.0031351763755083084
1772094061024409300,2.408409423828125,0.019789202138781548,-0.008305969648063183,-0.011405090801417828
1772094061034358300,2.418358154296875,0.012613298371434212,0.0019020151812583208,-0.015332505106925964
1772094061044307200,2.42830712890625,0.0040975757874548435,0.010848105885088444,-0.010702867060899734
1772094061054256000,2.438256103515625,0.001793811097741127,0.013903980143368244,0.003126893425360322
1772094061064206000,2.4482060546875,-0.0023572579957544804,0.005161088891327381,0.02432565577328205
1772094061074155000,2.458155029296875,-0.005633552558720112,-0.004394937306642532,0.03777935355901718
1772094061084104200,2.468104248046875,-0.007272994611412287,-0.010766017250716686,0.03892024978995323
1772094061094053400,2.478053466796875,-0.007336694747209549,-0.01641109213232994,0.02964920923113823
1772094061104003000,2.488003173828125,-0.01053568348288536,-0.01639964058995247,0.022263463586568832
1772094061113952300,2.4979521484375,-0.012556713074445724,-0.018232839182019234,0.010493280366063118
1772094061123901200,2.507901123046875,-0.01717063970863819,-0.01188918948173523,0.0002419739030301571
1772094061133850000,2.51785009765625,-0.022841637954115868,-0.010369624942541122,-0.01231454312801361
1772094061143799300,2.52779931640625,-0.029259590432047844,-0.004093087278306484,-0.022319504991173744
1772094061153749200,2.537749267578125,-0.0358307808637619,-0.0015489878132939339,-0.01610655151307583
1772094061163698200,2.5476982421875,-0.035188425332307816,-0.006029756739735603,-0.0021345438435673714
1772094061173647000,2.557647216796875,-0.031237125396728516,-0.00482189143076539,0.006854127161204815
1772094061183596000,2.567595947265625,-0.028965981677174568,-0.005678896326571703,0.019035425037145615
1772094061193546200,2.577546142578125,-0.024802904576063156,-0.007012960035353899,0.02366086095571518
1772094061203495200,2.5874951171875,-0.01862330734729767,-0.001203007996082306,0.021216610446572304
1772094061213444400,2.5974443359375,-0.013918654061853886,-0.0005755475722253323,0.022875379770994186
1772094061223393300,2.607393310546875,-0.006672192364931107,0.006118840537965298,0.018974915146827698
1772094061233342200,2.61734228515625,0.0010041557252407074,0.010266745463013649,0.015639277175068855
1772094061243292200,2.627292236328125,0.010850128717720509,0.01784849725663662,0.023660985752940178
1772094061253241300,2.637241455078125,0.015227382071316242,0.005271851550787687,0.0305124931037426
1772094061263190300,2.647190185546875,0.014876377768814564,0.0011018738150596619,0.02088170312345028
1772094061273139200,2.65713916015625,0.018434040248394012,0.0012976410798728466,0.017179062590003014
1772094061283088100,2.667088134765625,0.017543211579322815,-0.018615612760186195,0.01758093386888504
1772094061293038000,2.6770380859375,0.02089509554207325,-0.02856917679309845,0.009005085565149784
1772094061302987000,2.686987060546875,0.021401628851890564,-0.01973014511168003,-0.01117608230561018
1772094061312936200,2.696936279296875,0.019038001075387,-0.009418243542313576,-0.03109171986579895
1772094061322885400,2.706885498046875,0.015925565734505653,0.003340961178764701,-0.03812539577484131
1772094061332835000,2.7168349609375,0.020688939839601517,0.020927002653479576,-0.032330967485904694
1772094061342784300,2.7267841796875,0.031927477568387985,0.03429793566465378,-0.0184087585657835
1772094061352733200,2.736733154296875,0.039928074926137924,0.03682094067335129,-0.007201173342764378
1772094061362682000,2.74668212890625,0.04734551161527634,0.039630308747291565,0.00990857183933258
1772094061372631000,2.756631103515625,0.051126878708601,0.04718253016471863,0.024696793407201767
1772094061382581200,2.766581298828125,0.05919972062110901,0.04041090980172157,0.02387068048119545
1772094061392530200,2.7765302734375,0.05756693705916405,0.0589853934943676,0.0203731507062912
1772094061402479000,2.78647900390625,0.057308077812194824,0.037118177860975266,0.027387384325265884
1772094061412428000,2.796427978515625,0.051747892051935196,0.037758395075798035,0.014432369731366634
1772094061422377200,2.806377197265625,0.04563993215560913,0.04633244127035141,0.018428709357976913
1772094061432327200,2.8163271484375,0.020535632967948914,0.04624971002340317,0.014209147542715073
1772094061442276400,2.8262763671875,0.00930002424865961,0.04798342287540436,0.01425495371222496
1772094061452225300,2.836225341796875,-0.00009405426681041718,0.04970690235495567,0.006824012380093336
1772094061462174200,2.84617431640625,-0.006274984683841467,0.056268129497766495,0.012724512256681919
1772094061472124200,2.856124267578125,-0.005466748028993607,0.038728926330804825,0.021951617673039436
1772094061482073000,2.866072998046875,-0.004279511049389839,0.038724131882190704,0.017682038247585297
1772094061492022300,2.876022216796875,-0.0016311819199472666,0.04520394653081894,0.014502556063234806
1772094061501971200,2.88597119140625,-0.008228897117078304,0.04574669897556305,0.016340136528015137
1772094061511920000,2.895920166015625,-0.012452893890440464,0.03255298733711243,0.02440997213125229
1772094061521870000,2.9058701171875,-0.012865950353443623,0.02276959829032421,0.025337550789117813
1772094061531819000,2.915819091796875,-0.008575590327382088,0.018266575410962105,0.024066276848316193
1772094061541768200,2.925768310546875,0.002905829343944788,0.010784424841403961,0.020287252962589264
1772094061551717400,2.93571728515625,0.01087532751262188,0.0024056790862232447,0.014991506934165955
1772094061561666300,2.945666259765625,0.012457512319087982,0.001397406216710806,0.010279043577611446
1772094061571616300,2.9556162109375,0.01564829610288143,0.0007694070227444172,-0.001990626100450754
1772094061581565200,2.965565185546875,0.01864861324429512,-0.0009302222169935703,-0.0210343599319458
1772094061591514000,2.97551416015625,0.023024581372737885,0.0023242055904120207,-0.03831230476498604
1772094061601463000,2.985463134765625,0.02353617362678051,0.0014104750007390976,-0.05094607546925545
1772094061611413200,2.995413330078125,0.02203824184834957,0.006045805290341377,-0.051420681178569794
1772094061621362200,3.005362060546875,0.012853000313043594,0.0023008682765066624,-0.027376864105463028
1772094061631311000,3.01531103515625,0.007182012312114239,-0.002776157110929489,0.0037285429425537586
1772094061641260000,3.025260009765625,0.01013119611889124,-0.005467814393341541,0.019174611195921898
1772094061651209200,3.035209228515625,0.010471155866980553,0.023613594472408295,0.03615082427859306
1772094061661159200,3.0451591796875,0.018535474315285683,0.005191709380596876,0.03603124991059303
1772094061671108400,3.0551083984375,0.022113438695669174,0.010779110714793205,0.03536120429635048
1772094061681057300,3.065057373046875,0.02412226051092148,0.016745656728744507,0.025660373270511627
1772094061691006200,3.075006103515625,0.0204058438539505,0.021336330100893974,0.023519251495599747
1772094061700956200,3.0849560546875,0.012340460903942585,0.030828900635242462,0.01608290523290634
1772094061710905000,3.094905029296875,0.01326312217861414,0.029777973890304565,0.010898956097662449
1772094061720854300,3.104854248046875,0.008203648962080479,0.024786410853266716,0.0030676648020744324
1772094061730803200,3.11480322265625,0.009645125828683376,0.017890648916363716,-0.005930664949119091
1772094061740752100,3.124752197265625,0.013294454663991928,0.009659083560109138,-0.016325782984495163
1772094061750702000,3.1347021484375,0.0096617816016078,-0.002970508299767971,-0.020664209499955177
1772094061760651000,3.144651123046875,0.011416538618505001,-0.02003391459584236,-0.028150087222456932
1772094061770600200,3.15460009765625,0.004287854302674532,-0.0272885262966156,-0.03404011204838753
1772094061780549400,3.16454931640625,-0.001913582207635045,-0.045493628829717636,-0.02641628123819828
1772094061790499300,3.174499267578125,-0.005973112769424915,-0.055852118879556656,-0.023210622370243073
1772094061800448300,3.1844482421875,-0.002850023563951254,-0.05317457765340805,-0.03349388390779495
1772094061810397200,3.194397216796875,0.007720093242824078,-0.04901444911956787,-0.039790332317352295
1772094061820346000,3.20434619140625,0.003379673697054386,-0.04847808554768562,-0.0497036837041378
1772094061830295000,3.214294921875,0.00395669462159276,-0.04431021958589554,-0.051028721034526825
1772094061840245200,3.224245361328125,-0.002182424534112215,-0.04096662253141403,-0.056073278188705444
1772094061850194200,3.234194091796875,-0.013499559834599495,-0.02959679439663887,-0.06398799270391464
1772094061860143000,3.24414306640625,-0.023730892688035965,-0.02249467559158802,-0.05126766860485077
1772094061870092000,3.254092041015625,-0.03333709388971329,-0.02543642371892929,-0.006667864043265581
1772094061880041200,3.264041259765625,-0.037597350776195526,-0.025883035734295845,0.031050752848386765
1772094061889991200,3.2739912109375,-0.037084419280290604,-0.007238393649458885,0.05798821523785591
1772094061899940400,3.2839404296875,-0.03134504333138466,0.007497941143810749,0.07247234880924225
1772094061909889300,3.29388916015625,-0.02434290573000908,0.015618976205587387,0.06910396367311478
1772094061919838200,3.303838134765625,-0.017809104174375534,0.029160616919398308,0.05589707940816879
1772094061929788200,3.3137880859375,-0.012408331036567688,0.06217983737587929,0.0451960563659668
1772094061939737000,3.323737060546875,-0.013946041464805603,0.07166042178869247,0.04634281247854233
1772094061949686300,3.333686279296875,-0.010372926481068134,0.06684897094964981,0.06142603978514671
1772094061959635200,3.34363525390625,-0.001971186138689518,0.056894611567258835,0.06744904071092606
1772094061969584000,3.353584228515625,0.013520920649170876,0.050505150109529495,0.06791529804468155
1772094061979534000,3.3635341796875,0.023584473878145218,0.038111329078674316,0.06551285833120346
1772094061989483000,3.37348291015625,0.034269724041223526,0.03692854568362236,0.05276908352971077
1772094061999432200,3.38343212890625,0.03813769668340683,0.036956507712602615,0.026225360110402107
1772094062009381400,3.39338134765625,0.03945357725024223,0.050909195095300674,0.005954300984740257
1772094062019330300,3.403330322265625,0.043319154530763626,0.046989552676677704,-0.0026442469097673893
1772094062029280300,3.4132802734375,0.04469804838299751,0.036497991532087326,-0.004535399377346039
1772094062039229200,3.423229248046875,0.045792609453201294,0.027188114821910858,0.0016793531831353903
1772094062049178000,3.43317822265625,0.03856895864009857,0.02155335806310177,0.012062443420290947
1772094062059127000,3.443126953125,0.038099706172943115,0.020557068288326263,0.016263313591480255
1772094062069077200,3.4530771484375,0.027908649295568466,0.02135312184691429,0.02964593842625618
1772094062079026200,3.463026123046875,0.026867885142564774,0.022638630121946335,0.03969245031476021
1772094062088975000,3.47297509765625,0.031429994851350784,0.02471955120563507,0.04649787396192551
1772094062098924300,3.48292431640625,0.03351178765296936,0.02783198654651642,0.05269131809473038
1772094062108873200,3.492873291015625,0.030273698270320892,0.03924168646335602,0.05169275403022766
1772094062118823200,3.5028232421875,0.021105768159031868,0.047038622200489044,0.04825328290462494
1772094062128772400,3.5127724609375,0.011651881039142609,0.047534093260765076,0.048202402889728546
1772094062138721300,3.52272119140625,0.013545121997594833,0.041203226894140244,0.05698976665735245
1772094062148670200,3.532670166015625,0.01956304907798767,0.014556493610143661,0.06807264685630798
1772094062158619100,3.542619140625,0.030701186507940292,-0.002829686738550663,0.07556624710559845
1772094062168569000,3.552569091796875,0.032249677926301956,-0.011585790663957596,0.04894905164837837
1772094062178518300,3.562518310546875,0.0276328232139349,-0.016093457117676735,0.007876718416810036
1772094062188467200,3.57246728515625,0.03154376149177551,-0.012887297198176384,-0.029693981632590294
1772094062198416100,3.582416015625,0.030339214950799942,-0.015437273308634758,-0.05014226213097572
1772094062208366000,3.592365966796875,0.035479653626680374,-0.024605944752693176,-0.05384492501616478
1772094062218315000,3.60231494140625,0.038432031869888306,-0.03246919438242912,-0.04006466642022133
1772094062228264200,3.61226416015625,0.033548854291439056,-0.03140292316675186,-0.021684257313609123
1772094062238213400,3.62221337890625,0.03500160947442055,-0.02609497867524624,-0.00968911312520504
1772094062248162300,3.632162353515625,0.03694164380431175,-0.020485689863562584,-0.011549055576324463
1772094062258112300,3.6421123046875,0.039055660367012024,-0.01288662664592266,-0.014099830761551857
1772094062268061200,3.652061279296875,0.038707174360752106,-0.00021691853180527687,-0.0223930012434721
1772094062278010000,3.662010009765625,0.02988332323729992,0.01734156906604767,-0.023678775876760483
1772094062287959000,3.671958984375,0.014834368601441383,0.019940342754125595,-0.014910059049725533
1772094062297909200,3.6819091796875,0.006632364820688963,0.014790588989853859,-0.0033045350573956966
1772094062307858200,3.691858154296875,-0.003999483771622181,0.009843472391366959,0.004116345196962357
1772094062317807000,3.70180712890625,-0.0037206506822258234,-0.0006986502557992935,0.006319311913102865
1772094062327756300,3.71175634765625,-0.00496725644916296,-0.015896892175078392,0.00023472821339964867
1772094062337705200,3.721705322265625,-0.0038207657635211945,-0.019146481528878212,-0.012218745425343513
1772094062347655400,3.731655517578125,-0.00822238065302372,-0.019463952630758286,-0.023835938423871994
1772094062357604400,3.741604248046875,-0.0072889430448412895,-0.023905573412775993,-0.03357192128896713
1772094062367553300,3.75155322265625,-0.009831853210926056,-0.017185397446155548,-0.039563607424497604
1772094062377502200,3.761502197265625,-0.013430850580334663,-0.00973973236978054,-0.04819517955183983
1772094062387451100,3.771451171875,-0.010758595541119576,-0.014604729600250721,-0.04239988327026367
1772094062397401000,3.781401123046875,-0.001591462641954422,-0.020906034857034683,-0.03087531588971615
1772094062407350300,3.791350341796875,0.010425833985209465,-0.035506099462509155,-0.015109818428754807
1772094062417299200,3.80129931640625,0.014055190607905388,-0.0388566255569458,-0.008961644023656845
1772094062427248000,3.811248046875,0.00432000495493412,-0.03317556902766228,-0.00965912640094757
1772094062437198000,3.821197998046875,-0.008282072842121124,-0.030999764800071716,-0.014871198683977127
1772094062447147000,3.83114697265625,-0.017168067395687103,-0.03321715444326401,-0.02083325944840908
1772094062457096200,3.84109619140625,-0.02353861555457115,-0.0285454373806715,-0.0396394357085228
1772094062467045000,3.851045166015625,-0.026689855381846428,-0.010357722640037537,-0.05197474732995033
1772094062476994300,3.860994384765625,-0.0288078673183918,-0.006974709685891867,-0.052361439913511276
1772094062486944300,3.8709443359375,-0.03312990441918373,-0.007575193420052528,-0.04357920214533806
1772094062496893200,3.88089306640625,-0.03611930087208748,-0.003890177235007286,-0.029164843261241913
1772094062506842000,3.890842041015625,-0.03460470587015152,-0.003669368103146553,-0.013324923813343048
1772094062516791000,3.900791015625,-0.030901314690709114,-0.007935485802590847,-0.0021170093677937984
1772094062526740000,3.910739990234375,-0.02489355392754078,-0.003990903962403536,0.0008397288620471954
1772094062536690200,3.920690185546875,-0.01894271932542324,-0.0038633388467133045,0.0024674527812749147
1772094062546639000,3.93063916015625,-0.02146214060485363,-0.006494877859950066,-0.005478947889059782
1772094062556588300,3.94058837890625,-0.025987917557358742,0.0017097888048738241,-0.015490036457777023
1772094062566537200,3.950537109375,-0.02954835444688797,0.009537318721413612,-0.033239979296922684
1772094062576487400,3.9604873046875,-0.030234917998313904,0.010350381955504417,-0.03530526161193848
1772094062586436400,3.970436279296875,-0.028780948370695114,-0.0011498178355395794,-0.01536916196346283
1772094062596385300,3.98038525390625,-0.022183764725923538,-0.011134276166558266,0.002089456655085087
1772094062606334200,3.990334228515625,-0.02419077605009079,-0.014100268483161926,0.0020255697891116142
1772094062616283100,4.000283203125,-0.0210098959505558,-0.010435758158564568,-0.00585365854203701
1772094062626233000,4.010233154296875,-0.02405637502670288,-0.007591749541461468,-0.01992112025618553
1772094062636182000,4.02018212890625,-0.03295719251036644,-0.007479896768927574,-0.03387981653213501
1772094062646131200,4.030131103515625,-0.03130354359745979,-0.01783422753214836,-0.04309830442070961
1772094062656080100,4.040080078125,-0.032640982419252396,-0.01860174909234047,-0.04178003966808319
1772094062666029300,4.050029296875,-0.038912683725357056,-0.023637130856513977,-0.03446574509143829
1772094062675979300,4.059979248046875,-0.038851164281368256,-0.022709820419549942,-0.029969796538352966
1772094062685928200,4.06992822265625,-0.039313528686761856,-0.01485702209174633,-0.02878042683005333
1772094062695877000,4.079877197265625,-0.03733586519956589,-0.012802660465240479,-0.0223451629281044
1772094062705826300,4.089826416015625,-0.03509362041950226,-0.02373749390244484,-0.005515012424439192
1772094062715776300,4.0997763671875,-0.030202724039554596,-0.02838311344385147,0.014581466093659401
1772094062725724400,4.109724365234375,-0.02712230756878853,-0.031346503645181656,0.022022435441613197
1772094062735673300,4.11967333984375,-0.027285028249025345,-0.025249198079109192,0.010264845564961433
1772094062745622300,4.129622314453125,-0.03341761231422424,-0.015090880915522575,-0.005707036703824997
1772094062755571500,4.139571533203125,-0.03976844996213913,-0.0047690002247691154,-0.008576592430472374
1772094062765521400,4.149521484375,-0.04076095670461655,-0.0011167088523507118,0.002425164682790637
1772094062775470600,4.159470703125,-0.03887464106082916,-0.00665714917704463,0.009348051622509956
1772094062785419500,4.16941943359375,-0.034622106701135635,-0.0073163388296961784,0.01899036578834057
1772094062795368400,4.179368408203125,-0.03156932815909386,-0.010116119869053364,0.02001515030860901
1772094062805317400,4.1893173828125,-0.03561333194375038,-0.013081759214401245,0.0117744579911232
1772094062815267600,4.199267578125,-0.03682826831936836,-0.014967277646064758,0.008422337472438812
1772094062825216500,4.209216552734375,-0.03484008461236954,-0.016483310610055923,-0.00031519075855612755
1772094062835165400,4.21916552734375,-0.034893881529569626,-0.02734661102294922,-0.007154721301048994
1772094062845114400,4.2291142578125,-0.0324084535241127,-0.03255724161863327,-0.0091408034786582
1772094062855064300,4.239064208984375,-0.03407692164182663,-0.03266456723213196,-0.0059231724590063095
1772094062865013200,4.24901318359375,-0.03661557286977768,-0.036335721611976624,-0.009899984113872051
1772094062874962700,4.258962646484375,-0.04027022793889046,-0.03160754591226578,-0.018993880599737167
1772094062884911600,4.26891162109375,-0.04187474027276039,-0.026421505957841873,-0.029751989990472794
1772094062894860500,4.278860595703125,-0.05082136392593384,-0.017994198948144913,-0.02317851036787033
1772094062904810500,4.288810546875,-0.051591068506240845,-0.003830892499536276,-0.007563714869320393
1772094062914759400,4.298759521484375,-0.05849584564566612,0.003714109305292368,0.00909382477402687
1772094062924708400,4.308708251953125,-0.05655794218182564,0.008280768059194088,0.02127433381974697
1772094062934657500,4.318657470703125,-0.049979932606220245,0.015235346741974354,0.031712595373392105
1772094062944607500,4.328607421875,-0.04205593466758728,0.013415290042757988,0.04250385984778404
1772094062954556400,4.338556396484375,-0.0358414500951767,0.004920605570077896,0.05133356899023056
1772094062964505300,4.34850537109375,-0.0318632498383522,-0.0032592415809631348,0.05424080416560173
1772094062974454500,4.35845458984375,-0.028460528701543808,-0.004632899537682533,0.0415300689637661
1772094062984403500,4.368403564453125,-0.03218197077512741,-0.008693205192685127,0.024077244102954865
1772094062994353400,4.378353515625,-0.03446483239531517,-0.01833944208920002,-0.0015647346153855324
1772094063004302600,4.388302490234375,-0.03821808844804764,-0.026702366769313812,-0.02350018359720707
1772094063014251500,4.39825146484375,-0.03396289050579071,-0.03139618784189224,-0.041815273463726044
1772094063024200400,4.408200439453125,-0.030231306329369545,-0.0360410138964653,-0.0418451689183712
1772094063034149400,4.4181494140625,-0.01888118125498295,-0.03980139642953873,-0.02457909658551216
1772094063044099600,4.428099609375,-0.011208617128431797,-0.040664587169885635,-0.005850344896316528
1772094063054048500,4.438048583984375,-0.007073260843753815,-0.031580276787281036,-0.0016627907752990723
1772094063063997400,4.44799755859375,-0.0031286890152841806,-0.026120955124497414,-0.010995738208293915
1772094063073946400,4.4579462890625,0.0033244164660573006,-0.023128893226385117,-0.0202837772667408
1772094063083895600,4.4678955078125,0.0031593553721904755,-0.01652134768664837,-0.021300524473190308
1772094063093845200,4.47784521484375,0.0008487971499562263,-0.028692258521914482,-0.008399107493460178
1772094063103794700,4.487794677734375,0.00008593685925006866,-0.03851436823606491,0.016477709636092186
1772094063113743600,4.49774365234375,-0.0028264960274100304,-0.03906590864062309,0.032056670635938644
1772094063123692500,4.507692626953125,-0.004150172229856253,-0.027388937771320343,0.029629811644554138
1772094063133642500,4.517642578125,-0.0071185315027832985,-0.014443310908973217,0.00472898967564106
1772094063143591400,4.52759130859375,-0.005424541421234608,-0.004066484048962593,-0.013193137012422085
1772094063153540400,4.537540283203125,-0.007959337905049324,-0.006100339815020561,-0.018746361136436462
1772094063163489500,4.547489501953125,-0.008577370084822178,-0.0031216139905154705,-0.020335355773568153
1772094063173438500,4.5574384765625,-0.012802207842469215,0.0014201407320797443,-0.018168874084949493
1772094063183388400,4.567388427734375,-0.015186844393610954,0.008006605319678783,-0.006958026438951492
1772094063193337300,4.57733740234375,-0.010588363744318485,0.007630034349858761,0.0023388024419546127
1772094063203286500,4.58728662109375,-0.015440471470355988,0.009369248524308205,0.013526241295039654
1772094063213235500,4.5972353515625,-0.00841372087597847,0.005905007943511009,0.025108862668275833
1772094063223184600,4.6071845703125,-0.005814873147755861,0.007189612835645676,0.025281131267547607
1772094063233134600,4.617134521484375,-0.00200841692276299,0.0103441271930933,0.012677455320954323
1772094063243083500,4.62708349609375,0.0012018447741866112,0.014778004959225655,-0.002318158745765686
1772094063253032400,4.637032470703125,0.0003032940439879894,0.011149980127811432,-0.005545376800000668
1772094063262981400,4.6469814453125,0.003584439866244793,0.004127328749746084,-0.003722407389432192
1772094063272931600,4.656931640625,0.002286681439727545,0.010323438793420792,0.0014222869649529457
1772094063282880500,4.666880615234375,0.0033834190107882023,0.010642667300999165,0.010294992476701736
1772094063292829400,4.676829345703125,0.009679663926362991,0.009870883077383041,0.012032171711325645
1772094063302778400,4.6867783203125,0.02124147117137909,0.00530589371919632,0.006024617236107588
1772094063312727600,4.6967275390625,0.03404275327920914,-0.00029340246692299843,-0.00043248292058706284
1772094063322677200,4.70667724609375,0.04077580198645592,-0.0024208780378103256,-0.00588564807549119
1772094063332626700,4.716626708984375,0.035578109323978424,0.000317650381475687,-0.009984519332647324
1772094063342575600,4.72657568359375,0.028563013300299644,-0.0048060971312224865,-0.017688415944576263
1772094063352524500,4.736524658203125,0.02162494696676731,-0.004095832351595163,-0.027193503454327583
1772094063362473500,4.746473388671875,0.01883423700928688,-0.0018617957830429077,-0.027896791696548462
1772094063372423400,4.75642333984375,0.014360126107931137,-0.008831288665533066,-0.019920356571674347
1772094063382372400,4.766372314453125,0.010778753086924553,-0.015102319419384003,-0.011815443634986877
1772094063392321500,4.776321533203125,0.009033318608999252,-0.0070177605375647545,-0.006068873684853315
1772094063402270500,4.7862705078125,0.004306645132601261,0.01091134175658226,-0.011945373378694057
1772094063412219600,4.7962197265625,0.000011499039828777313,0.020434273406863213,-0.01388601865619421
1772094063422169300,4.80616943359375,-0.00030485307797789574,0.024627424776554108,-0.011079516261816025
1772094063432118500,4.816118408203125,-0.0028489709366112947,0.03430987894535065,0.0004719463177025318
1772094063442067500,4.8260673828125,-0.00007771281525492668,0.03622128441929817,0.00855663325637579
1772094063452016600,4.8360166015625,-0.00017837993800640106,0.03538105636835098,0.020606637001037598
1772094063461966600,4.845966552734375,-0.0006374164950102568,0.028306199237704277,0.03346594423055649
1772094063471915500,4.85591552734375,0.002748792991042137,0.02743108570575714,0.034410834312438965
1772094063481864400,4.865864501953125,-0.00035282131284475327,0.026714006438851357,0.03248254582285881
1772094063491813400,4.8758134765625,0.005038748495280743,0.027613889425992966,0.022803019732236862
1772094063501762300,4.88576220703125,0.0013949680142104626,0.02588910236954689,0.010218062438070774
1772094063511712500,4.89571240234375,0.003774769138544798,0.020917247980833054,-0.0028079915791749954
1772094063521661400,4.905661376953125,0.00855468399822712,0.032313041388988495,-0.012147443369030952
1772094063531610400,4.9156103515625,0.008147753775119781,0.037314191460609436,-0.01905834674835205
1772094063541559600,4.9255595703125,0.013972419314086437,0.03428792580962181,-0.016179371625185013
1772094063551508500,4.935508544921875,0.02182847633957863,0.030236192047595978,-0.007940083742141724
1772094063561458700,4.945458740234375,0.02848183549940586,0.018912198022007942,0.007030898705124855
1772094063571407600,4.95540771484375,0.030254704877734184,0.004343108739703894,0.018750671297311783
1772094063581356500,4.9653564453125,0.020116951316595078,-0.0035479478538036346,0.02540341205894947
1772094063591305500,4.975305419921875,0.011088302358984947,-0.002819040324538946,0.015734273940324783
1772094063601255400,4.98525537109375,0.0009371773339807987,-0.003201498184353113,-0.009030686691403389
1772094063611204400,4.995204345703125,-0.006457089446485043,0.002310179639607668,-0.025387821719050407
1772094063621153500,5.005153564453125,-0.003586248494684696,-0.000729790423065424,-0.03400585427880287
1772094063631102500,5.0151025390625,-0.0017699727322906256,-0.001293315552175045,-0.029350645840168
1772094063641051600,5.0250517578125,0.0056792013347148895,0.0034275855869054794,-0.01644298806786537
1772094063651001300,5.03500146484375,0.004850159399211407,0.00914565846323967,0.0012814137153327465
1772094063660950500,5.044950439453125,0.001322135329246521,0.009268801659345627,0.023658394813537598
1772094063670899500,5.0548994140625,-0.0021165385842323303,0.012426510453224182,0.03467722609639168
1772094063680848400,5.064848388671875,-0.00429891049861908,0.019313957542181015,0.03450130298733711
1772094063690797600,5.074797607421875,-0.008207898586988449,0.019506506621837616,0.024965055286884308
1772094063700747500,5.08474755859375,-0.008867782540619373,0.021590666845440865,0.016205428168177605
1772094063710696400,5.094696533203125,-0.0071630934253335,0.017086995765566826,0.007945368066430092
1772094063720646100,5.104646240234375,-0.009470957331359386,0.005683497525751591,0.008553581312298775
1772094063730595000,5.114594970703125,-0.011079773306846619,0.0006629065610468388,0.008701919578015804
1772094063740544000,5.1245439453125,-0.018026886507868767,-0.004702180624008179,0.00696193240582943
1772094063750494000,5.134493896484375,-0.015265986323356628,-0.012357437051832676,0.014314387924969196
1772094063760443100,5.144443115234375,-0.015122083947062492,-0.01441904716193676,0.005087150726467371
1772094063770392000,5.15439208984375,-0.01011747121810913,-0.012400371953845024,-0.006325825583189726
1772094063780341200,5.16434130859375,-0.01156565360724926,-0.015456491149961948,-0.019563142210245132
1772094063790291000,5.174291015625,-0.008448157459497452,-0.017621908336877823,-0.02484685555100441
1772094063800240000,5.184240234375,-0.012394033372402191,-0.01595190539956093,-0.03611549735069275
1772094063810189000,5.19418896484375,-0.01046617142856121,-0.008631141856312752,-0.034214530140161514
1772094063820138200,5.20413818359375,-0.01220001932233572,-0.005950983613729477,-0.024853363633155823
1772094063830087200,5.214087158203125,-0.009078795090317726,-0.00789269432425499,0.0027873178478330374
1772094063840037000,5.224037109375,-0.005364576820284128,-0.005550806410610676,0.022344008088111877
1772094063849986000,5.233986083984375,0.0032123997807502747,0.003773186355829239,0.029902324080467224
1772094063859935000,5.24393505859375,0.007114733103662729,0.011592285707592964,0.028938189148902893
1772094063869884000,5.2538837890625,0.009618103504180908,0.00849742628633976,0.026412181556224823
1772094063879833300,5.263833251953125,0.008740494027733803,0.020696677267551422,0.017416391521692276
1772094063889783000,5.273782958984375,0.005118328146636486,0.021441563963890076,0.008036205545067787
1772094063899732200,5.283732177734375,0.0066093560308218,0.021366771310567856,0.00457601435482502
1772094063909681200,5.29368115234375,0.007712170481681824,0.011059004813432693,0.003743776585906744
1772094063919630000,5.303630126953125,0.010960102081298828,-0.0003493810072541237,0.00039217062294483185
1772094063929580300,5.313580322265625,0.011516967788338661,-0.004809377249330282,-0.0022510169073939323
1772094063939529200,5.323529296875,0.010584032163023949,-0.010196899995207787,0.0021473211236298084
1772094063949478100,5.33347802734375,0.008883604779839516,-0.01960664615035057,0.006494665518403053
1772094063959427000,5.343427001953125,0.008482090197503567,-0.018428370356559753,-0.008325595408678055
1772094063969376000,5.3533759765625,0.01022246666252613,-0.009820233099162579,-0.02110344171524048
1772094063979326000,5.363325927734375,0.013162057846784592,-0.018079668283462524,-0.025114474818110466
1772094063989275100,5.373275146484375,0.016661982983350754,-0.01143161952495575,-0.020153537392616272
1772094063999224000,5.38322412109375,0.013876855373382568,-0.001971688587218523,-0.011665125377476215
1772094064009173200,5.39317333984375,0.015171684324741364,-0.004158942960202694,0.0025233987253159285
1772094064019122200,5.4031220703125,0.011953520588576794,-0.006616983562707901,0.01216902770102024
1772094064029072100,5.413072021484375,0.012079489417374134,-0.0058422693982720375,0.012951997108757496
1772094064039021000,5.42302099609375,0.015744706615805626,-0.011246983893215656,0.012360011227428913
1772094064048970200,5.43297021484375,0.016700515523552895,-0.016787957400083542,0.007546613924205303
1772094064058919200,5.442919189453125,0.009892498143017292,-0.01724550500512123,-0.001581790391355753
1772094064068868000,5.4528681640625,0.00133576150983572,-0.01499034184962511,-0.009347300976514816
1772094064078818000,5.462818115234375,-0.007798084989190102,-0.010851582512259483,-0.014961440116167068
1772094064088767000,5.47276708984375,-0.0119717912748456,-0.012125106528401375,-0.010880677029490471
1772094064098716000,5.4827158203125,-0.015563063323497772,-0.009997505694627762,0.00138424476608634
1772094064108665000,5.4926650390625,-0.0070270998403429985,-0.012643091380596161,0.011854195967316628
1772094064118615000,5.502614990234375,-0.003818702418357134,-0.008449429646134377,0.01756439171731472
1772094064128564200,5.512564208984375,-0.0035353421699255705,-0.007125572767108679,0.022064868360757828
1772094064138513200,5.52251318359375,-0.007169663906097412,-0.0035949237644672394,0.017401374876499176
1772094064148462000,5.532462158203125,-0.008995261043310165,0.002203577198088169,0.008231312036514282
1772094064158411000,5.542410888671875,-0.015926670283079147,0.011651407927274704,0.004020322114229202
1772094064168361200,5.552361328125,-0.019121931865811348,0.016535643488168716,-0.0003619091585278511
1772094064178310100,5.56231005859375,-0.018415220081806183,0.008390594273805618,0.004769961815327406
1772094064188259000,5.572259033203125,-0.012717652134597301,0.008372485637664795,0.008218755014240742
1772094064198208000,5.5822080078125,-0.005753573030233383,-0.0028433981351554394,0.019062768667936325
1772094064208157200,5.5921572265625,0.0065009621903300285,-0.009645377285778522,0.020519783720374107
1772094064218107000,5.60210693359375,0.008400135673582554,-0.014500517398118973,0.021479913964867592
1772094064228056300,5.612056396484375,0.009745830669999123,-0.01756288670003414,0.015712305903434753
1772094064238005200,5.622005126953125,0.010096894577145576,-0.010430639609694481,0.00001720758154988289
1772094064247954200,5.6319541015625,-0.0014295331202447414,-0.0002507064491510391,-0.015444307588040829
1772094064257903000,5.641903076171875,-0.011920575983822346,0.00286734732799232,-0.011662131175398827
1772094064267853000,5.65185302734375,-0.01763385534286499,-0.0015463093295693398,0.0023687330540269613
1772094064277802000,5.661802001953125,-0.012895287945866585,-0.004417404066771269,0.01221516728401184
1772094064287751200,5.671751220703125,-0.005934317596256733,-0.011220714077353477,0.01943179965019226
1772094064297700000,5.6817001953125,-0.002112897578626871,-0.00671733682975173,0.019070986658334732
1772094064307649000,5.69164892578125,-0.004037830512970686,-0.0063050794415175915,0.013142524287104607
1772094064317599000,5.701598876953125,-0.004729508422315121,-0.0024616378359496593,0.006365871522575617
1772094064327548000,5.7115478515625,-0.011380753479897976,0.0019994231406599283,0.002817742060869932
1772094064337497000,5.7214970703125,-0.013001453131437302,0.004630097188055515,0.0074442001059651375
1772094064347446300,5.7314462890625,-0.014164188876748085,0.0035800128243863583,0.01770962029695511
1772094064357396200,5.741396240234375,-0.009879568591713905,0.007307305466383696,0.016588687896728516
1772094064367345200,5.75134521484375,-0.009061445482075214,0.015131140127778053,0.013026708737015724
1772094064377294000,5.761294189453125,-0.002930487971752882,0.017426349222660065,0.014701537787914276
1772094064387243000,5.771242919921875,-0.005207224283367395,0.016336316242814064,0.020422274246811867
1772094064397192000,5.78119189453125,-0.0049028280191123486,0.013903995044529438,0.025568906217813492
1772094064407142100,5.79114208984375,-0.0016415207646787167,0.010726576671004295,0.01978851482272148
1772094064417091000,5.801091064453125,0.0008463566191494465,0.012102450244128704,0.017592888325452805
1772094064427040000,5.8110400390625,0.0017278632149100304,0.011572747491300106,0.011724346317350864
1772094064436989200,5.8209892578125,0.0016042105853557587,0.003911823965609074,0.00990321021527052
1772094064446938000,5.830938232421875,-0.0001438879407942295,-0.003698159009218216,0.014955226331949234
1772094064456888300,5.840888427734375,-0.0033148254733532667,-0.010597629472613335,0.009864442050457
1772094064466837200,5.850837158203125,-0.0033510446082800627,-0.010255413129925728,0.0011372631415724754
1772094064476786200,5.8607861328125,-0.007265760563313961,-0.010482799261808395,-0.009050283581018448
1772094064486735000,5.870735107421875,-0.008442345075309277,-0.009830591268837452,-0.01822034642100334
1772094064496684000,5.88068408203125,-0.007482231128960848,-0.00866879615932703,-0.02020500972867012
1772094064506634000,5.890634033203125,-0.004076580982655287,-0.002121148630976677,-0.01979142054915428
1772094064516583200,5.900583251953125,-0.0007663578726351261,0.003623688593506813,-0.013908492401242256
1772094064526532000,5.910531982421875,0.002384161576628685,0.007810976821929216,0.0003503379411995411
1772094064536481000,5.92048095703125,0.002039637416601181,0.008830149658024311,0.01654912903904915
1772094064546431000,5.930430908203125,0.0025011636316776276,0.009111380204558372,0.024033144116401672
1772094064556380200,5.940380126953125,0.01034572534263134,0.011501499451696873,0.025725582614541054
1772094064566329000,5.9503291015625,0.013605700805783272,0.01049429178237915,0.026333583518862724
1772094064576278300,5.9602783203125,0.016139023005962372,0.013818532228469849,0.028351597487926483
1772094064586227200,5.970227294921875,0.018429871648550034,0.01604360342025757,0.014331652782857418
1772094064596177200,5.98017724609375,0.015584297478199005,0.013193454593420029,0.0045793987810611725
1772094064606126000,5.9901259765625,0.015992026776075363,0.0008608875796198845,-0.004421819467097521
1772094064616075000,6.000074951171875,0.009980162605643272,0.001938867848366499,-0.00529826432466507
1772094064626024000,6.01002392578125,0.005332414526492357,0.0007138135842978954,0.0002120821736752987
1772094064635973000,6.01997314453125,0.004107707180082798,0.002170580206438899,0.0008551105856895447
1772094064645923000,6.029923095703125,0.005402802489697933,0.0021042677108198404,-0.0000050906091928482056
1772094064655872000,6.0398720703125,0.008539082482457161,-0.002396882511675358,-0.0007590963505208492
1772094064665821200,6.0498212890625,0.012851006351411343,-0.007938654161989689,0.0007594381459057331
1772094064675770000,6.05977001953125,0.010817103087902069,-0.0054472945630550385,-0.003248852211982012
1772094064685719000,6.069718994140625,0.005025793332606554,0.00028436072170734406,0.00017357571050524712
1772094064695669200,6.079669189453125,-0.0020123645663261414,0.005049678962677717,0.015934353694319725
1772094064705618200,6.0896181640625,-0.007622846402227879,0.0019207308068871498,0.024942761287093163
1772094064715567000,6.099567138671875,-0.00228697806596756,0.00362887280061841,0.021165262907743454
1772094064725515500,6.109515625,0.003597542643547058,-0.004819206427782774,0.019000910222530365
1772094064735464400,6.11946435546875,0.011809133924543858,-0.014713970944285393,0.01260140910744667
1772094064745414700,6.12941455078125,0.008552087470889091,-0.020100215449929237,0.0021098866127431393
1772094064755363600,6.139363525390625,0.004161287564784288,-0.02019999921321869,-0.007584935054183006
1772094064765312800,6.149312744140625,-0.009433351457118988,-0.013573787175118923,-0.012979167513549328
1772094064775261700,6.15926171875,-0.02390860766172409,-0.0021477234549820423,-0.019505735486745834
1772094064785212000,6.1692119140625,-0.029158229008316994,0.010715078562498093,-0.012080044485628605
1772094064795160800,6.179160888671875,-0.029268620535731316,0.016918692737817764,0.00838033203035593
1772094064805109800,6.18910986328125,-0.02176489867269993,0.011003546416759491,0.02592843398451805
1772094064815058700,6.19905859375,-0.011653408408164978,0.010762795805931091,0.03631129860877991
1772094064825007600,6.209007568359375,-0.007569983601570129,0.01020779274404049,0.04022028669714928
1772094064834957600,6.21895751953125,-0.007047339342534542,0.01740170083940029,0.02899545058608055
1772094064844906500,6.228906494140625,-0.012742775492370129,0.03193297237157822,0.022346602752804756
1772094064854855700,6.238855712890625,-0.022999361157417297,0.03553660586476326,0.014714015647768974
1772094064864804900,6.248804931640625,-0.019090373069047928,0.03491528704762459,0.010287575423717499
1772094064874753800,6.25875390625,-0.014896869659423828,0.029145758599042892,0.009993910789489746
1772094064884703700,6.268703857421875,-0.0051289270631968975,0.016710925847291946,0.011266635730862617
1772094064894652700,6.278652587890625,0.000708144623786211,0.0001556258648633957,0.01344060804694891
1772094064904601600,6.2886015625,0.005917553789913654,-0.004516623914241791,0.01293061301112175
1772094064914550800,6.29855078125,0.0013929284177720547,-0.007907970808446407,0.0017836058977991343
1772094064924499700,6.308499755859375,-0.0038026326801627874,-0.0038248123601078987,-0.0024822456762194633
1772094064934449700,6.31844970703125,-0.007548280991613865,-0.002545981202274561,-0.0012008855119347572
1772094064944398600,6.328398681640625,-0.006711781956255436,-0.00021251942962408066,0.002303834306076169
1772094064954347500,6.338347412109375,-0.00102638965472579,-0.00318394647911191,0.005083896219730377
1772094064964296700,6.348296630859375,0.00213318457826972,-0.005442573223263025,0.006536118220537901
1772094064974246000,6.358245849609375,0.008538189344108105,-0.01346465665847063,0.006569040007889271
1772094064984195600,6.368195556640625,0.010380564257502556,-0.019307363778352737,0.002693341812118888
1772094064994144800,6.378144775390625,0.01097676157951355,-0.019181586802005768,-0.006596483290195465
1772094065004093700,6.38809375,0.00857565551996231,-0.018695559352636337,-0.01351377833634615
1772094065014042600,6.398042724609375,0.0027707191184163094,-0.006754069589078426,-0.01834653876721859
1772094065023991600,6.407991455078125,-0.005692007951438427,0.01010986603796482,-0.023968737572431564
1772094065033941800,6.417941650390625,-0.008328495547175407,0.019324202090501785,-0.014124101027846336
1772094065043890700,6.427890625,0.00099656218662858,0.015010148286819458,0.0021941522136330605
1772094065053839600,6.437839599609375,0.013223260641098022,0.015226708725094795,0.01687440276145935
1772094065063788500,6.44778857421875,0.021844713017344475,0.007304070517420769,0.02721412666141987
1772094065073737700,6.45773779296875,0.022210242226719856,0.003494753735139966,0.023447629064321518
1772094065083687700,6.467687744140625,0.012954158708453178,0.012244036421179771,0.015889044851064682
1772094065093636900,6.477636962890625,-0.002018754370510578,0.01443418301641941,0.008021228015422821
1772094065103585800,6.487585693359375,-0.011182691901922226,0.018028918653726578,-0.002266029827296734
1772094065113534700,6.49753466796875,-0.010326972231268883,0.013583216816186905,-0.008560029789805412
1772094065123484700,6.507484619140625,-0.0030054100789129734,0.003478385042399168,-0.0025801672600209713
1772094065133433600,6.51743359375,0.003658127970993519,-0.009438509121537209,0.004306540824472904
1772094065143382800,6.5273828125,0.009551970288157463,-0.014972024597227573,0.007243474945425987
1772094065153331700,6.537331787109375,0.003144755493849516,-0.009852344170212746,0.004721072502434254
1772094065163280600,6.54728076171875,-0.00782693549990654,-0.010014531202614307,0.0058731562457978725
1772094065173230600,6.557230712890625,-0.01499553956091404,-0.008810952305793762,0.0019212579354643822
1772094065183179500,6.567179443359375,-0.016850166022777557,-0.00828764121979475,0.0005638445727527142
1772094065193128700,6.577128662109375,-0.01719300076365471,-0.006303987465798855,-0.01050584763288498
1772094065203078000,6.587077880859375,-0.011775333434343338,0.00020637642592191696,-0.02019469439983368
1772094065213026800,6.59702685546875,-0.009025443345308304,0.002137550385668874,-0.019409749656915665
1772094065222976800,6.606976806640625,-0.006239243783056736,0.0010049082338809967,-0.015417405404150486
1772094065232925700,6.61692578125,-0.010214676149189472,0.0019901730120182037,-0.007680159527808428
1772094065242874600,6.62687451171875,-0.007985077798366547,-0.006813970860093832,0.005069457460194826
1772094065252823600,6.636823486328125,-0.0006138917524367571,-0.005640755407512188,0.004639054648578167
1772094065262772700,6.646772705078125,0.0023241075687110424,-0.002997834235429764,0.0023332899436354637
1772094065272722700,6.65672265625,0.006310947239398956,-0.0028899386525154114,-0.008008791133761406
1772094065282671600,6.666671630859375,0.006043832749128342,-0.0021493136882781982,-0.013061873614788055
1772094065292620500,6.67662060546875,0.008716004900634289,0.0005623470060527325,-0.01691124588251114
1772094065302569700,6.68656982421875,0.003841088153421879,0.0028766340110450983,-0.014139426872134209
1772094065312518700,6.6965185546875,0.0006419653072953224,-0.010136950761079788,-0.009464360773563385
1772094065322468900,6.70646875,-0.0007524655666202307,-0.011744702234864235,-0.009669957682490349
1772094065332417800,6.716417724609375,-0.0031599632930010557,-0.009580349549651146,-0.015404010191559792
1772094065342366700,6.72636669921875,0.000017720740288496017,-0.011700225993990898,-0.02352665178477764
1772094065352315600,6.736315673828125,0.0010919482447206974,-0.014437349513173103,-0.03266254812479019
1772094065362264600,6.7462646484375,-0.005773680750280619,-0.04195738956332207,-0.02592368610203266
1772094065372214800,6.75621484375,0.00047263363376259804,-0.03828031197190285,-0.008488388732075691
1772094065382163700,6.766163818359375,-0.0047239926643669605,-0.03349088504910469,-0.014508464373648167
1772094065392112600,6.776112548828125,-0.0058723920956254005,-0.029463833197951317,-0.016493700444698334
1772094065402061800,6.786061767578125,0.000946365762501955,-0.03252992779016495,-0.015112052671611309
1772094065412011500,6.796011474609375,0.0019368836656212807,-0.01961633935570717,-0.019405944272875786
1772094065421960700,6.805960693359375,0.003994175232946873,-0.00960072223097086,-0.029380546882748604
1772094065431910000,6.815909912109375,0.002927846275269985,0.0011100920382887125,-0.03755740076303482
1772094065441858800,6.82585888671875,0.006375840399414301,-0.002676124218851328,-0.016948264092206955
1772094065451807700,6.835807861328125,0.00987243838608265,0.0020979635883122683,-0.0024702162481844425
1772094065461757700,6.8457578125,0.0038699391297996044,0.009295955300331116,0.008560596965253353
1772094065471706600,6.85570654296875,0.0013414891436696053,0.017354613170027733,0.015119430609047413
1772094065481655600,6.865655517578125,-0.003836495103314519,0.029872534796595573,0.022437265142798424
1772094065491604700,6.875604736328125,-0.007663067430257797,0.04228667914867401,0.02594638429582119
1772094065501553700,6.8855537109375,-0.006349063944071531,0.043143950402736664,0.028938179835677147
1772094065511503600,6.895503662109375,-0.0008447030559182167,0.04453354328870773,0.03518078848719597
1772094065521452500,6.90545263671875,0.010387977585196495,0.033476896584033966,0.036851122975349426
1772094065531401700,6.915401611328125,0.009880691766738892,0.028255950659513474,0.036657627671957016
1772094065541350700,6.9253505859375,0.00489179277792573,0.019617721438407898,0.04311872273683548
1772094065551299600,6.935299560546875,-0.000690368702635169,0.0017589805647730827,0.0436704196035862
1772094065561249800,6.945249755859375,-0.003550071269273758,-0.0008525149896740913,0.03251150995492935
1772094065571198700,6.95519873046875,-0.0014408028218895197,-0.0021523362956941128,0.014175644144415855
1772094065581147600,6.965147705078125,0.0026676557026803493,-0.017927836626768112,0.0017780959606170654
1772094065591096600,6.9750966796875,0.004931786097586155,-0.024782851338386536,-0.0020073605701327324
1772094065601045500,6.98504541015625,0.003787158988416195,-0.034520700573921204,-0.006398380268365145
1772094065610995700,6.99499560546875,0.0023347157984972,-0.032220348715782166,-0.020664818584918976
1772094065620944600,7.004944580078125,0.0008380194194614887,-0.014981706626713276,-0.028594914823770523
1772094065630893800,7.014893798828125,-0.0031491322442889214,-0.006459163501858711,-0.021159138530492783
1772094065640842800,7.0248427734375,0.0025534946471452713,-0.011553524062037468,-0.005639833863824606
1772094065650791700,7.034791748046875,0.012349756434559822,-0.017498783767223358,0.011080136522650719
1772094065660741600,7.04474169921875,0.017614824697375298,-0.019174443557858467,0.028332360088825226
1772094065670690800,7.05469091796875,0.01694081723690033,-0.023295201361179352,0.023557456210255623
1772094065680639700,7.0646396484375,0.012041132897138596,-0.018489794805645943,0.011391605250537395
1772094065690588700,7.074588623046875,0.00731309549883008,-0.008192138746380806,-0.004475159104913473
1772094065700537600,7.08453759765625,0.001710337121039629,-0.0013483469374477863,-0.006216866429895163
1772094065710487600,7.094487548828125,0.0006710807792842388,0.0001740865409374237,0.0015582661144435406
1772094065720436500,7.1044365234375,0.0033885701559484005,0.0035981126129627228,0.013217052444815636
1772094065730386000,7.114385986328125,0.004798801150172949,0.0015181652270257473,0.02852022275328636
1772094065740335000,7.124335205078125,0.015344120562076569,-0.0003817337565124035,0.02519872784614563
1772094065750284000,7.134283935546875,0.016834866255521774,0.004199662711471319,0.023862047120928764
1772094065760234000,7.14423388671875,0.014395411126315594,-0.010126279667019844,0.02305111475288868
1772094065770183200,7.15418310546875,0.008854400366544724,-0.01211481261998415,0.019698582589626312
1772094065780132000,7.164132080078125,0.003172013908624649,-0.010028759017586708,0.012849465012550354
1772094065790081000,7.1740810546875,-0.0012248652055859566,-0.008856168948113918,0.0035039004869759083
1772094065800031000,7.184031005859375,-0.0022693569771945477,-0.014116178266704082,-0.005719424691051245
1772094065809980000,7.19397998046875,-0.0036047548055648804,-0.019115502014756203,-0.008889958262443542
1772094065819928800,7.2039287109375,0.0030470225028693676,-0.025982730090618134,-0.010393578559160233
1772094065829878000,7.2138779296875,-0.0007948542479425669,-0.03002769500017166,-0.011450737714767456
1772094065839827000,7.223826904296875,-0.0031839758157730103,-0.03019973263144493,-0.002650854177772999
1772094065849776000,7.233776123046875,-0.009091758169233799,-0.028343982994556427,-0.00537801394239068
1772094065859726000,7.24372607421875,-0.009103209711611271,-0.01572326384484768,-0.010246803984045982
1772094065869675000,7.253675048828125,-0.014052469283342361,-0.008381680585443974,-0.008787537924945354
1772094065879624000,7.2636240234375,-0.015498831868171692,0.004845175426453352,0.0008586975745856762
1772094065889573000,7.273572998046875,-0.016580119729042053,0.012561238370835781,0.009677641093730927
1772094065899523000,7.283523193359375,-0.009511024691164494,0.01156548224389553,0.020199524238705635
1772094065909472000,7.293471923828125,-0.00399939576163888,0.007307130843400955,0.022826047614216805
1772094065919421000,7.3034208984375,-0.0002627144567668438,0.012678992934525013,0.02178182266652584
1772094065929369900,7.313369873046875,-0.0035831411369144917,0.011746339499950409,0.01476237177848816
1772094065939318800,7.32331884765625,-0.0034547769464552402,0.017725402489304543,0.0095289945602417
1772094065949269000,7.33326904296875,-0.0092846117913723,0.01842164807021618,0.0049405996687710285
1772094065959218000,7.343218017578125,-0.013766178861260414,0.012845255434513092,0.0011879391968250275
1772094065969167000,7.3531669921875,-0.015157991088926792,0.008900723420083523,-0.007996693253517151
1772094065979116000,7.363115966796875,-0.009663890115916729,0.004357104655355215,-0.017520690336823463
1772094065989065000,7.37306494140625,-0.010418764315545559,0.0007733362726867199,-0.02132490649819374
1772094065999015200,7.38301513671875,-0.008640837855637074,-0.0005547818727791309,-0.02377820946276188
1772094066008964000,7.392964111328125,-0.015282361768186092,0.0015519398730248213,-0.028769541531801224
1772094066018913000,7.4029130859375,-0.009998650290071964,0.003109889104962349,-0.03141885623335838
1772094066028862000,7.412862060546875,-0.007933013141155243,-0.002293037250638008,-0.016270563006401062
1772094066038811000,7.422810791015625,0.00034276023507118225,-0.001296748872846365,0.012074258178472519
1772094066048760800,7.4327607421875,-0.0030996864661574364,0.003057661699131131,0.03596262261271477
1772094066058709800,7.442709716796875,0.00185778783634305,0.012019731104373932,0.037258248776197433
1772094066068659000,7.452658935546875,-0.0001890743151307106,0.020059559494256973,0.02214222028851509
1772094066078608100,7.462608154296875,0.009324535727500916,0.02382154017686844,0.005774432793259621
1772094066088557000,7.47255712890625,0.013633884489536285,0.017796117812395096,-0.0076994504779577255
1772094066098507000,7.482507080078125,0.013559583574533463,0.0024635016452521086,-0.0037768809124827385
1772094066108456000,7.4924560546875,0.012513709254562855,-0.009197123348712921,-0.004563356749713421
1772094066118404900,7.50240478515625,0.005521046929061413,-0.005580549594014883,-0.008942126296460629
1772094066128354000,7.51235400390625,-0.000043709296733140945,-0.0015374692156910896,-0.00877700187265873
1772094066138303000,7.522302978515625,-0.004428870510309935,-0.010555465705692768,-0.00047326600179076195
1772094066148253000,7.5322529296875,-0.0036104887258261442,-0.0004990911111235619,0.0008440869860351086
1772094066158201900,7.542201904296875,-0.0011191016528755426,0.007210760377347469,0.0029352009296417236
1772094066168150800,7.55215087890625,-0.00022560358047485352,0.008193188346922398,0.013432163745164871
1772094066178100000,7.562099853515625,-0.0002711433917284012,0.008532209321856499,0.019009888172149658
1772094066188049200,7.572049072265625,-0.002781127579510212,0.010386006906628609,0.0214533768594265
1772094066197999000,7.5819990234375,-0.008676567114889622,0.02001732774078846,0.0211724154651165
1772094066207948000,7.591947998046875,-0.019395435228943825,0.026299649849534035,0.01495465449988842
1772094066217897000,7.60189697265625,-0.027334583923220634,0.0308547206223011,0.014634011313319206
1772094066227846000,7.611845947265625,-0.0297292098402977,0.032473694533109665,0.017177367582917213
1772094066237794800,7.621794921875,-0.033132199198007584,0.03170164301991463,0.018931325525045395
1772094066247745000,7.6317451171875,-0.03058484196662903,0.03731023147702217,0.01346336305141449
1772094066257694000,7.64169384765625,-0.03175237029790878,0.04161522909998894,0.00943373329937458
1772094066267643000,7.651642822265625,-0.03354752063751221,0.03753368929028511,0.009988615289330482
1772094066277592000,7.661592041015625,-0.030337879434227943,0.03163372352719307,0.010795818641781807
1772094066287541000,7.671541015625,-0.025733713060617447,0.02658659592270851,0.007408511824905872
1772094066297491200,7.6814912109375,-0.022457759827375412,0.023776961490511894,0.0143460463732481
1772094066307440000,7.691440185546875,-0.02234533801674843,0.017959685996174812,0.015959199517965317
1772094066317389000,7.70138916015625,-0.019698956981301308,0.010220540687441826,0.014244390651583672
1772094066327338000,7.711337890625,-0.01530841737985611,0.014728488400578499,0.008576462045311928
1772094066337287000,7.721286865234375,-0.008803379721939564,0.020170658826828003,-0.0017440859228372574
1772094066347236900,7.73123681640625,-0.007716543041169643,0.02604915201663971,-0.006332220043987036
1772094066357186000,7.74118603515625,-0.006992695853114128,0.024113565683364868,-0.00323070352897048
1772094066367135000,7.751135009765625,0.0008156932890415192,0.024245182052254677,0.005480688530951738
1772094066377084000,7.761083984375,0.008333264850080013,0.021033409982919693,0.019700370728969574
1772094066387033000,7.771033203125,0.013214483857154846,0.013822121545672417,0.024099532514810562
1772094066396982800,7.780982666015625,0.016685914248228073,0.015486864373087883,0.020801741629838943
1772094066406932000,7.790931884765625,0.01793697476387024,0.01234711054712534,0.011575326323509216
1772094066416881200,7.800881103515625,0.024244405329227448,-0.003224126063287258,0.00553714158013463
1772094066426830000,7.810830078125,0.024344276636838913,-0.005412540398538113,0.0024780137464404106
1772094066436779000,7.820779052734375,0.023879023268818855,-0.007195260375738144,-0.011359238997101784
1772094066446729000,7.83072900390625,0.016235394403338432,-0.00038474006578326225,-0.021114513278007507
1772094066456678000,7.840677978515625,0.009231815114617348,0.0011883890256285667,-0.025487422943115234
1772094066466626800,7.850626708984375,-0.0028248033486306667,-0.0004160413518548012,-0.021550815552473068
1772094066476576000,7.860575927734375,-0.006671207025647163,-0.005019048694521189,-0.015229801647365093
1772094066486525200,7.870525146484375,-0.006167472805827856,-0.010980278253555298,-0.017636580392718315
1772094066496475000,7.880474853515625,-0.0036718244664371014,-0.01351587288081646,-0.014429070055484772
1772094066506424000,7.890424072265625,-0.0005787408445030451,-0.01718732714653015,-0.020048225298523903
1772094066516373000,7.900373046875,-0.004094912204891443,-0.017507705837488174,-0.01683645322918892
1772094066526322000,7.910322021484375,-0.0038216260727494955,-0.00974184274673462,-0.011403979733586311
1772094066536271000,7.92027099609375,-0.014199165627360344,0.0003275689668953419,-0.013071916997432709
1772094066546221000,7.930220947265625,-0.020934700965881348,0.008584327064454556,-0.007499823346734047
1772094066556170000,7.940169921875,-0.01890324056148529,0.011077046394348145,0.003993581049144268
1772094066566119000,7.950118896484375,-0.013895342126488686,0.00921568926423788,0.01486159861087799
1772094066576067800,7.96006787109375,0.003295362461358309,-0.0002896655350923538,0.018372178077697754
1772094066586016800,7.970016845703125,0.008666202425956726,-0.002082858234643936,0.009196104481816292
1772094066595967000,7.979967041015625,0.007936762645840645,-0.0002625877968966961,-0.009229774586856365
1772094066605916000,7.989916015625,-0.001648840494453907,0.009503130801022053,-0.023983383551239967
1772094066615865000,7.999864990234375,-0.0070942058227956295,0.007830132730305195,-0.024394841864705086
1772094066625814000,8.00981396484375,-0.007812149822711945,0.00043577980250120163,-0.014206805266439915
1772094066635763000,8.019762939453125,-0.006451806984841824,0.004732257220894098,-0.004350711591541767
1772094066645713200,8.029713134765625,0.000924393068999052,0.001439704792574048,0.016435375437140465
1772094066655662000,8.039662109375,0.014741404913365841,-0.009553025476634502,0.020705487579107285
1772094066665611000,8.049611083984376,0.023650389164686203,-0.007211134769022465,0.015198906883597374
1772094066675560000,8.059559814453126,0.02352149412035942,-0.017769768834114075,-0.00022638915106654167
1772094066685508900,8.0695087890625,0.022328441962599754,-0.023809371516108513,-0.021713990718126297
1772094066695458800,8.079458740234376,0.014149341732263565,-0.017680373042821884,-0.042224589735269547
1772094066705408000,8.089407958984374,0.002880261279642582,-0.01615775190293789,-0.05107085406780243
1772094066715357200,8.099357177734374,-0.009793989360332489,-0.015891434624791145,-0.039481036365032196
1772094066725306000,8.10930615234375,-0.018587123602628708,-0.025269830599427223,-0.02056441642343998
1772094066735255000,8.119255126953124,-0.02105853706598282,-0.032080866396427155,-0.004652828443795443
1772094066745205200,8.129205322265625,-0.014063701033592224,-0.03368280082941055,0.0027162854094058275
1772094066755154200,8.139154296875,-0.012824532575905323,-0.03313472494482994,0.0019311856012791395
1772094066765103000,8.14910302734375,-0.011359969154000282,-0.02491297572851181,-0.005141065455973148
1772094066775052000,8.159052001953125,-0.017886843532323837,-0.021735824644565582,-0.004738661460578442
1772094066785002000,8.169001953125,-0.02258763462305069,-0.01823176071047783,-0.012364545837044716
1772094066794951200,8.178951171875,-0.030631178990006447,-0.008898179978132248,-0.019765470176935196
1772094066804900000,8.188900146484375,-0.03554511070251465,-0.005651149898767471,-0.023593727499246597
1772094066814849000,8.19884912109375,-0.027386784553527832,-0.01205072645097971,-0.013188225217163563
1772094066824798200,8.208798095703125,-0.01772652193903923,-0.017689628526568413,-0.006144884508103132
1772094066834747100,8.2187470703125,-0.011264361441135406,-0.021191418170928955,-0.005549401510506868
1772094066844697000,8.228697021484376,-0.0037161761429160833,-0.016114890575408936,-0.008459820412099361
1772094066854646300,8.238646240234376,-0.00909363105893135,-0.012102305889129639,-0.011842833831906319
1772094066864595200,8.24859521484375,-0.010766172781586647,-0.00950092077255249,-0.008628929033875465
1772094066874544000,8.258544189453126,-0.013628271408379078,-0.006587156094610691,-0.012481190264225006
1772094066884493000,8.2684931640625,-0.009987642988562584,-0.006697583943605423,-0.012398669496178627
1772094066894443000,8.278443115234374,-0.0042562540620565414,-0.00015339814126491547,-0.020569248124957085
1772094066904392000,8.288391845703124,0.007224812172353268,0.007540114689618349,-0.02298096939921379
1772094066914341000,8.298341064453124,0.010167072527110577,0.005744078662246466,-0.012352826073765755
1772094066924290300,8.308290283203124,0.010767209343612194,0.004408563952893019,0.006279180757701397
1772094066934239200,8.3182392578125,0.009682503528892994,0.006779310293495655,0.018691908568143845
1772094066944189200,8.328189208984375,0.0003672088496387005,0.0037262802943587303,0.025222130119800568
1772094066954138000,8.33813818359375,-0.003889854298904538,0.019782744348049164,0.02728874422609806
1772094066964087000,8.348087158203125,-0.004791459534317255,0.023086335510015488,0.024139823392033577
1772094066974036200,8.3580361328125,0.0012091752141714096,0.025052282959222794,0.02319679781794548
1772094066983985200,8.367985107421875,0.0033996147103607655,0.014819305390119553,0.021700061857700348
1772094066993935000,8.37793505859375,0.007956815883517265,0.0041892980225384235,0.021066229790449142
1772094067003884000,8.387884033203125,0.004191116895526648,-0.008175503462553024,0.017632996663451195
1772094067013833000,8.3978330078125,0.004904577042907476,-0.010063150897622108,0.006204839330166578
1772094067023782000,8.407781982421875,0.007144296076148748,-0.015800874680280685,-0.00833236612379551
1772094067033731300,8.4177314453125,0.000814228318631649,-0.02071360871195793,-0.025571806356310844
1772094067043681000,8.427680908203126,-0.004074809141457081,-0.018320858478546143,-0.03478816896677017
1772094067053630200,8.437630126953126,-0.004833543673157692,-0.020740874111652374,-0.03127758949995041
1772094067063579100,8.4475791015625,-0.007616984657943249,-0.025332026183605194,-0.017655521631240845
1772094067073528000,8.457528076171876,-0.004810279235243797,-0.02259962260723114,-0.013879957608878613
1772094067083477000,8.46747705078125,-0.0005031505133956671,-0.01633101888000965,-0.014890169724822044
1772094067093427200,8.47742724609375,-0.0009609479457139969,-0.011878479272127151,-0.016165291890501976
1772094067103376100,8.487376220703124,-0.0008036866784095764,-0.01320979930460453,-0.009315187111496925
1772094067113325000,8.497324951171874,0.009619658812880516,-0.02590429037809372,-0.004859187174588442
1772094067123274000,8.50727392578125,0.00902426615357399,-0.014997808262705803,-0.013172470964491367
1772094067133224000,8.517223876953125,0.001467013731598854,0.0010661128908395767,-0.019453536719083786
1772094067143173000,8.527173095703125,-0.004334594123065472,0.011086293496191502,-0.028203848749399185
1772094067153122300,8.537122314453125,-0.00953468307852745,0.017589999362826347,-0.036814913153648376
1772094067163071200,8.5470712890625,-0.007622489705681801,0.016560867428779602,-0.0316338837146759
1772094067173020200,8.557020263671875,-0.006127391010522842,0.009221994318068027,-0.024918189272284508
1772094067182970000,8.56697021484375,-0.007471398916095495,-0.005529539659619331,-0.030317900702357292
1772094067192919000,8.5769189453125,-0.0164856668561697,-0.008876867592334747,-0.03640482574701309
1772094067202868000,8.586867919921875,-0.026146505028009415,-0.004550816956907511,-0.04577801376581192
1772094067212817200,8.596817138671875,-0.05789937451481819,-0.045297447592020035,-0.05063508450984955
1772094067222766000,8.60676611328125,-0.0602942630648613,-0.030936522409319878,-0.060934897512197495
1772094067232716000,8.616716064453126,-0.06394066661596298,-0.030303223058581352,-0.08005239069461823
1772094067242665000,8.6266650390625,-0.07187662273645401,-0.04726995527744293,-0.06964263319969177
1772094067252614100,8.6366142578125,-0.04974015802145004,-0.06463563442230225,-0.04252925515174866
1772094067262563000,8.64656298828125,-0.021355217322707176,-0.06370712071657181,0.000518611166626215
1772094067272512300,8.65651220703125,0.0009793839417397976,-0.10385454446077347,0.07290172576904297
1772094067282462200,8.666462158203124,0.008721372112631798,-0.1173592060804367,0.11912032216787338
1772094067292411100,8.6764111328125,0.013985643163323402,-0.10922618210315704,0.15901713073253632
1772094067302360000,8.686360107421875,0.028136789798736572,-0.1544889211654663,0.22152985632419586
1772094067312309000,8.69630908203125,0.022121239453554153,-0.10695868730545044,0.20949849486351013
1772094067322258000,8.7062578125,0.02977645769715309,-0.03606823831796646,0.1830897480249405
1772094067332208000,8.7162080078125,0.03583967685699463,-0.011655306443572044,0.1577519029378891
1772094067342157000,8.726156982421875,0.034932248294353485,0.023770920932292938,0.1341695338487625
1772094067352106000,8.73610595703125,0.022099541500210762,0.05104009062051773,0.10015431046485901
1772094067362055200,8.74605517578125,0.007402089890092611,0.06366326659917831,0.05725737288594246
1772094067372004000,8.756004150390625,-0.00380608974955976,0.0817975327372551,0.00836120080202818
1772094067381954300,8.765954345703125,-0.012334153987467289,0.08917541801929474,-0.038923218846321106
1772094067391903200,8.7759033203125,-0.019459974020719528,0.08193881064653397,-0.07574115693569183
1772094067401852200,8.78585205078125,-0.022461047396063805,0.04997257515788078,-0.08936601132154465
1772094067411801000,8.795801025390626,0.004235811997205019,0.050463929772377014,-0.09474985301494598
