time,seconds_elapsed,z,y,x
1772045521065233700,0.073233642578125,0.09639584291577338,-0.26960370735526085,1.452894769398123
1772045521075219000,0.083218994140625,0.2847188589006662,-0.3375742507755756,1.4490660048902033
1772045521085204700,0.093204833984375,0.4659487017542123,-0.2543371646404266,1.4725629080727696
1772045521095190800,0.103190673828125,0.6324234585464,-0.2244885543435812,1.5229096781276166
1772045521105176800,0.1131767578125,0.7595610612064599,-0.40395606369972226,1.6241317721560597
1772045521115163000,0.123162841796875,0.7110363920122384,-0.5798214569106698,1.7632183174155651
1772045521125148700,0.133148681640625,0.6395990492641925,-0.6960641560688614,1.9388101543821394
1772045521135134700,0.143134765625,0.6431213781714439,-0.6617948067203163,2.1217937090352175
1772045521145120800,0.153120849609375,0.6669622724860906,-0.5029918997302651,2.2603816571228204
1772045521155105800,0.163105712890625,0.8158101871728897,-0.3261152836501598,2.2872630881771445
1772045521165091800,0.173091796875,1.037101991301775,-0.27503070084005593,2.263285415740311
1772045521175078000,0.183077880859375,1.2706897979021072,-0.36511546091288327,2.205171957206726
1772045521185064000,0.19306396484375,1.5683412036120892,-0.6495753766164183,2.0544336987286806
1772045521195049700,0.2030498046875,1.8732395117104053,-0.9384522319793701,1.9116206802919506
1772045521205036000,0.2130361328125,2.208881333118677,-1.0370543527677654,1.8236355228468775
1772045521215021800,0.223021728515625,2.516351537531614,-0.6841323107346892,1.704428274794668
1772045521225006800,0.2330068359375,2.412187398701906,-0.5522212100625038,1.9580163746334611
1772045521234992600,0.24299267578125,2.559847564908862,-0.6013660569816828,2.128474063581973
1772045521244979000,0.25297900390625,2.8756068742394447,-0.5188192911982537,2.256883878134936
1772045521254964700,0.26296484375,3.2874089752644298,-0.18277239612042903,2.4345037137977776
1772045521264950800,0.27295068359375,3.3274832114994526,-0.6713803811892867,2.4167796949282287
1772045521274936800,0.282936767578125,3.0804929024904966,-1.2983496659830212,2.612690681824088
1772045521284923000,0.2929228515625,2.7001982848852872,-1.6336773068755863,2.8789713822364806
1772045521294908000,0.302907958984375,2.3851269578188656,-2.021424286313355,3.4449650970637795
1772045521304893700,0.312893798828125,2.096721519359946,-2.4412372598364946,4.139489914736151
1772045521314880000,0.3228798828125,1.627775389355421,-2.8697525952532885,4.797074410285055
1772045521324865800,0.33286572265625,1.7183441335529088,-2.1015718820005653,4.376614955551922
1772045521334851800,0.342851806640625,2.242678973302245,-0.5745549146845936,3.1395354585677384
1772045521344838000,0.352837890625,2.451374915230274,-0.1317982879474759,2.4374352372050283
1772045521354824000,0.362823974609375,2.2014836240828037,-0.37047231177091594,1.9510528192311525
1772045521364808700,0.37280859375,2.0200375081300734,-0.5672083513140678,1.7718781553417444
1772045521374794800,0.382794677734375,2.065525586107373,-0.5354401711314917,1.767593025368452
1772045521384780800,0.39278076171875,2.3361294104158876,-0.384456121198833,2.0674387262523175
1772045521394766800,0.402766845703125,2.809565837576985,-0.1302333767183125,2.595638716997206
1772045521404752600,0.412752685546875,3.342392611339688,0.02049406810477376,3.119842916104197
1772045521414739000,0.422739013671875,3.73571914447546,0.10710501458719372,3.505116491165757
1772045521424724700,0.432724853515625,3.8292408932596445,0.19997399855107068,3.5963998133733868
1772045521434709800,0.442709716796875,3.5857547929793596,0.45991468228697774,3.1187653500005603
1772045521444695800,0.45269580078125,3.1308810274690386,0.5566308431982994,2.532563252142072
1772045521454681900,0.462681884765625,2.364303365498781,0.5953276536002755,1.706062744128704
1772045521464668000,0.47266796875,1.421893335804343,0.6941472165316342,0.6538683976352214
1772045521474653700,0.48265380859375,0.535430234259367,0.6826411953940987,-0.22791852879226207
1772045521484640000,0.492639892578125,-0.12348901702463626,0.8187697676308453,-0.923081059846282
1772045521494625800,0.502625732421875,-0.7807745296269655,1.6796102060109377,-1.79747378436923
1772045521504610800,0.51261083984375,-1.7310504703909158,2.3765881159238518,-2.534779174625873
1772045521514596600,0.5225966796875,-3.140751848620176,2.7653403268814087,-3.2727970970660447
1772045521524583000,0.5325830078125,-4.5011967362493275,3.1356460499137637,-4.275885175085068
1772045521534568700,0.542568603515625,-5.340439236935973,3.4813585989594458,-5.5672612026631825
1772045521544554800,0.5525546875,-5.233947531941533,3.6814720059812065,-6.728117583927512
1772045521554540800,0.562540771484375,-4.487463394451141,3.792612705825269,-7.774414689075947
1772045521564526800,0.57252685546875,-3.548980767333507,3.9022792414635417,-8.430193304246664
1772045521574511900,0.582511962890625,-2.687736862719059,3.92108214161098,-8.455716452559829
1772045521584498000,0.592497802734375,-2.187926223373413,4.343285225141048,-8.628246856129168
1772045521594484000,0.60248388671875,-2.1380051313847304,4.67617540975362,-8.54541951983869
1772045521604469800,0.6124697265625,-2.6185323935896156,4.873365622805059,-8.193756537955998
1772045521614455800,0.622455810546875,-2.890783692844212,4.987012752512097,-7.64732618625462
1772045521624441900,0.63244189453125,-2.459163669410348,5.110419351950288,-7.0457000170320265
1772045521634428000,0.642427978515625,-1.7197250665172934,5.156924498015642,-6.421353481957316
1772045521644412700,0.65241259765625,-1.21083650996387,4.893128015634417,-5.7397477670907975
1772045521654399000,0.66239892578125,-1.1328411238744853,4.473751095440983,-5.275669535383582
1772045521664384800,0.672384765625,-1.3610451916098594,3.8663001655876634,-4.889133977562189
1772045521674370800,0.682370849609375,-1.7483568483702838,3.2149542721673843,-4.433036807736754
1772045521684356900,0.69235693359375,-2.2860006670258937,2.5776906801134345,-3.464921843421459
1772045521694343000,0.702343017578125,-2.742925665977597,1.919176794759929,-2.090910787254572
1772045521704328700,0.71232861328125,-2.91836114333868,1.2485548307225107,-0.781778738233447
1772045521714313700,0.722313720703125,-2.902068180185556,0.5644328221861272,0.3325415173053741
1772045521724300000,0.732300048828125,-2.8184190061181784,-0.1649937244541943,1.2764800717413425
1772045521734285800,0.742285888671875,-2.6593115632236004,-0.976417367105931,2.1393740816503763
1772045521744272000,0.75227197265625,-2.366903318864107,-1.7687902723290025,2.9084482366114854
1772045521754258000,0.7622578125,-2.0308874034464357,-2.5404788475722073,3.7170489307969805
1772045521764244000,0.772243896484375,-1.8704910897850988,-3.226374368587136,4.360142251917719
1772045521774228700,0.782228759765625,-1.9243010059058665,-3.904473536637425,4.9493748035132885
1772045521784214800,0.79221484375,-2.15577868848443,-4.546948141337931,5.585578365120291
1772045521794200800,0.802200927734375,-2.4497499443769453,-5.022112707465887,6.165888774591684
1772045521804187000,0.812186767578125,-2.6351088498592374,-5.269065607073903,6.725701754957437
1772045521814172700,0.822172607421875,-2.5650644227743147,-5.285310639432073,7.015156410208344
1772045521824159000,0.832158935546875,-2.3175907141625878,-5.109000132802128,6.9393690555572505
1772045521834144800,0.842144775390625,-2.0124211879074574,-4.936351071289182,6.633330929774045
1772045521844129800,0.8521298828125,-2.2823124800324437,-5.32240965924859,6.913501039329171
1772045521854115800,0.86211572265625,-2.6395138068199158,-5.713948139923811,6.917391617026925
1772045521864102000,0.872101806640625,-2.900091327154636,-5.832811835235357,6.702952163010835
1772045521874088000,0.882087890625,-3.1695301993370055,-6.086191553020477,6.2900979225844145
1772045521884073700,0.89207373046875,-3.5646284183204173,-6.42610155326724,5.600404178330302
1772045521894059800,0.902059814453125,-3.895714476120472,-6.677537151247263,4.887858550798892
1772045521904044800,0.912044921875,-3.966881185233593,-6.625553281509876,4.168173572906851
1772045521914030800,0.92203076171875,-3.766647366702556,-6.218838274490833,3.4930934604167936
1772045521924016600,0.9320166015625,-3.0177357098042963,-5.648104087138176,2.6560025848060844
1772045521934003000,0.9420029296875,-2.035750917829573,-4.916496616262197,1.8764689951509237
1772045521943988700,0.95198876953125,-1.4670494053483008,-4.214258739994466,1.039879054799676
1772045521953974800,0.961974853515625,-1.4226177045561372,-3.4161990213066336,-0.10661094745993614
1772045521963960800,0.9719609375,-1.6174563860453663,-2.0933938362419604,-1.4261732050806284
1772045521973945900,0.98194580078125,-1.9152773031033574,-0.8788958811610936,-2.6181565460145473
1772045521983932000,0.991931884765625,-2.0516170338727533,-0.1913134299725294,-3.8959120445191857
1772045521993917700,1.001917724609375,-1.8777998053632676,0.29397563980668784,-5.617440068805218
1772045522003903700,1.01190380859375,-1.6348142019510268,0.8156801310524344,-7.92834560611546
1772045522013889800,1.021889892578125,-1.1515148446843027,1.0854282153144479,-10.440887814491987
1772045522023875800,1.031875732421875,-0.09314926220998167,1.1237512239679694,-12.720080116677284
1772045522033860900,1.04186083984375,1.072699374383688,0.7545952554926276,-14.543869076520204
1772045522043847000,1.051846923828125,2.09049913771376,0.4308607294991612,-16.12669122542739
1772045522053833700,1.061833740234375,2.220652581063658,0.5152765040248632,-17.0690574159801
1772045522063819500,1.071819580078125,1.8017703125193714,-0.2492231826275587,-16.274189479070902
1772045522073805600,1.0818056640625,1.9845219581127165,-0.9038812693357468,-14.949112257421016
1772045522083791600,1.09179150390625,2.8980758956789967,-0.7665411293521524,-13.528479735332727
1772045522093777700,1.101777587890625,3.917839798688888,-0.2680880420953035,-12.092039403259754
1772045522103762700,1.1117626953125,3.757528825223446,0.18673340870589017,-10.595897174417972
1772045522113748500,1.12174853515625,2.556710435926914,0.16465309432297945,-8.941774460884929
1772045522123734800,1.13173486328125,1.3507915086209774,0.10531827730089426,-7.457026901760697
1772045522133720600,1.141720458984375,0.9158617761172354,0.7517650005027652,-6.233219851064682
1772045522143706600,1.15170654296875,0.6915607071697711,2.417213702431321,-5.730290787437558
1772045522153692700,1.161692626953125,0.3270271377980709,3.9536382573008533,-5.475672467768192
1772045522163677700,1.171677734375,-0.5712124723888933,6.316918124970793,-6.400784156659245
1772045522173663700,1.181663818359375,-2.2241655576206742,8.401530688863993,-7.8554808609128
1772045522183649500,1.1916494140625,-4.746233573102951,8.759281466227769,-8.6964488702178
1772045522193635600,1.201635498046875,-7.0626073126912114,7.79581754258871,-8.809249904489517
1772045522203621600,1.21162158203125,-8.261202180719375,6.793410432571172,-8.4023180398494
1772045522213607400,1.221607421875,-8.249850181099772,5.872392150473594,-7.3015183601409195
1772045522223593700,1.23159375,-7.432045020717382,4.961186237338185,-5.4602475196212525
1772045522233578800,1.241578857421875,-6.348931804347038,4.1845378477305175,-3.188833450222015
1772045522243564500,1.251564453125,-5.340237576884031,3.396770974998176,-0.9080933340728282
1772045522253550800,1.26155078125,-4.4707180113554,2.4911589363470674,1.0380068311870096
1772045522263536600,1.27153662109375,-3.6613282126188276,1.55826872240901,2.5413942088514565
1772045522273522700,1.281522705078125,-3.022706483954191,0.6295449805006385,3.577322480198741
1772045522283508500,1.291508544921875,-2.653966695064306,-0.3975014807328582,4.3259161571890115
1772045522293494800,1.301494873046875,-2.5609037959635255,-1.6189584611713885,5.009128138208389
1772045522303479600,1.3114794921875,-2.456333998942375,-2.629724234211445,5.5914358589768405
1772045522313465600,1.321465576171875,-2.1881775677859783,-3.2110733390808104,5.97827770626843
1772045522323451600,1.33145166015625,-1.8791819073714315,-3.470716501174867,6.32005700751841
1772045522333437700,1.341437744140625,-1.5928034446954726,-3.5847488308072086,6.787551185148954
1772045522343423500,1.351423583984375,-1.3856347123347221,-3.629560616958141,7.289277302727103
1772045522353409800,1.361409912109375,-1.4808523052513598,-3.7556250374287363,7.7484128173351285
1772045522363394800,1.371394775390625,-1.709388819811493,-3.922366336202621,8.113325156891346
1772045522373380600,1.381380615234375,-1.740075926759094,-3.923812443357706,8.233971643966436
1772045522383366700,1.39136669921875,-1.5409410093806684,-3.8793610149517654,8.304436926811933
1772045522393352700,1.401352783203125,-1.2406453727722166,-3.8120258468255397,8.553740773460268
1772045522403338800,1.4113388671875,-0.92135029053092,-3.4722666532263156,9.023978696841
1772045522413324500,1.421324462890625,-0.7360640118934214,-2.8730887539386747,9.771783269280194
1772045522423310800,1.431310791015625,-0.8971407090343534,-2.370740997330844,10.776498071718215
1772045522433295600,1.441295654296875,-1.2191526490189135,-2.085964270763099,11.61741931927204
1772045522443281700,1.45128173828125,-1.6285728233434258,-1.8395652056455611,12.051558924311399
1772045522453267500,1.461267333984375,-2.0880631427384913,-1.6973869779810309,11.982450901293754
1772045522463253800,1.471253662109375,-2.4687539200544357,-1.7456313689291476,11.56518410512209
1772045522473239600,1.481239501953125,-2.675321617782116,-1.8430927952498197,10.835887833797932
1772045522483225600,1.4912255859375,-2.7432664422392845,-1.9167353929571807,9.9715880487442
1772045522493211600,1.501211669921875,-2.6405776366591454,-1.8557507629014551,9.244297856545447
1772045522503196700,1.51119677734375,-2.3597006940089167,-1.4580962835639715,8.769692385604976
1772045522513182700,1.5211826171875,-2.0456993342615664,-0.8365928629606961,8.100332988849281
1772045522523168500,1.53116845703125,-1.725499558265507,-0.01500350786447525,6.934697556614875
1772045522533154800,1.54115478515625,-1.4657878609798847,1.3510663800396023,5.352671526521444
1772045522543140600,1.551140625,-1.8487750786699353,2.8897213243097064,3.6453929768621918
1772045522553126700,1.561126708984375,-2.813301516973972,4.1641912252724165,2.655632582449913
1772045522563112700,1.57111279296875,-3.650443245989084,5.593626647019386,1.5258862097203731
1772045522573097700,1.58109765625,-4.185261193569004,6.708167851832509,-1.1111509778529405
1772045522583083500,1.59108349609375,-4.323372902446985,6.4082859105914824,-4.673597375959158
1772045522593069600,1.601069580078125,-3.7703251784324645,5.248298128855228,-8.931894287383555
1772045522603055600,1.6110556640625,-2.512446931308508,3.9026229403346773,-13.335640118706225
1772045522613041700,1.621041748046875,-1.2268566475249827,2.3605045577377077,-16.2585979421854
1772045522623027500,1.63102734375,-0.350419703823328,1.4129305694088339,-17.2601060575366
1772045522633013800,1.641013671875,0.012820756997913121,0.8308370759129524,-16.424256121897695
1772045522642998800,1.650998779296875,0.2713422215856612,-0.5824386536717414,-14.170247360807656
1772045522652984600,1.660984619140625,0.9183749279819429,-1.7309654224559663,-12.278771935182808
1772045522662970600,1.670970703125,1.726073412630707,-1.9375977098524568,-10.9421398848176
1772045522672956700,1.680956787109375,1.9044237545251845,-1.6410706319972872,-9.346165408870577
1772045522682942700,1.690942626953125,1.4319932895362377,-1.145598314116895,-7.368705059707164
1772045522692928500,1.700928466796875,0.8539607618689536,-0.194300044567883,-5.822617773479223
1772045522702914800,1.710914794921875,0.4535901554405689,0.8103726722940802,-4.691024311578274
1772045522712899600,1.720899658203125,0.03198138454183936,1.4448057170972228,-3.519926522284746
1772045522722885600,1.7308857421875,-0.3190894766665995,1.2574752192810177,-2.7451953644752503
1772045522732871400,1.740871337890625,-0.29602190481200813,0.7112941661655903,-3.4275381614446636
1772045522742857700,1.750857666015625,0.021815525966882705,0.5121496041759849,-5.4403159077048295
1772045522752843500,1.760843505859375,0.2537688632331788,0.7666063035428523,-8.23484024349451
1772045522762829600,1.77082958984375,0.37444954483881593,1.234600247389078,-11.00174241286516
1772045522772815600,1.780815673828125,0.6060099372647703,1.664844014033675,-13.045088315868377
1772045522782800600,1.790800537109375,0.9513934004865586,1.8576871377915143,-13.761080868983267
1772045522792786700,1.80078662109375,1.3125873040415346,1.9371675017416476,-13.055073118788004
1772045522802772700,1.810772705078125,1.2960042719006537,2.0422458328068256,-11.422374886077641
1772045522812758800,1.8207587890625,0.8315396712243557,2.2791557695671916,-9.245485020503402
1772045522822744600,1.83074462890625,0.09600698972865938,2.6709806659683584,-6.870005011951923
1772045522832730600,1.840730712890625,-0.7370107912242412,2.8443887291550634,-4.550163888514041
1772045522842716700,1.850716552734375,-1.4494063427604733,2.436236675070226,-2.4092940153479576
1772045522852702700,1.86070263671875,-1.6678360354565083,1.784655803850293,-0.5650421131908894
1772045522862687500,1.8706875,-1.367788236129284,1.1882093753531575,1.1978554478377104
1772045522872673800,1.880673828125,-1.1790179147683084,0.7135691253602504,3.0145149941921234
1772045522882659600,1.89065966796875,-1.2890167511008679,0.11230799005776643,4.681711124309897
1772045522892645600,1.900645751953125,-1.3547287019394338,-0.5700523425683379,6.003071371263265
1772045522902631700,1.910631591796875,-1.2470599159896374,-1.1569131965965032,6.937213923349976
1772045522912617700,1.92061767578125,-1.153825167453289,-1.5349123967409133,7.769213613301515
1772045522922603500,1.930603515625,-1.2575265110768377,-1.8430197300136089,8.660462780079245
1772045522932588500,1.940588623046875,-1.5408701361015438,-2.184848715624213,9.650193948397039
1772045522942574800,1.950574951171875,-1.7379678485639392,-2.2917460788100956,10.891396370530128
1772045522952560600,1.960560546875,-1.9172785599231719,-2.2208590634211895,12.14435645047426
1772045522962546700,1.970546630859375,-2.1398177337646485,-2.1710732882499695,13.145614390456675
1772045522972532700,1.98053271484375,-2.5094635315835476,-2.195389691121876,13.719918837511539
1772045522982518800,1.990518798828125,-2.993516629827022,-2.3240903053149577,13.864089992558956
1772045522992504600,2.000504638671875,-3.4305566324830052,-2.54917448746413,13.614418481642007
1772045523002491000,2.010490966796875,-3.6869536522626873,-2.803746922165155,13.009614851427077
1772045523012475600,2.0204755859375,-3.7834231449365614,-3.0776112095743415,12.095443658745289
1772045523022461700,2.030461669921875,-3.782228382194042,-3.360906757673621,11.007346808743476
1772045523032447500,2.040447509765625,-3.702168757051229,-3.5178301345273852,9.885848039877414
1772045523042433800,2.050433837890625,-3.6236364876061677,-3.4637288342446086,9.009538668078184
1772045523052419000,2.060419189453125,-3.5280770955145355,-3.1375428234457967,8.513337451401352
1772045523062405000,2.070405029296875,-3.4062755931854247,-2.67883810147047,8.199640919819474
1772045523072391000,2.080390869140625,-3.298328428685665,-2.207335272720456,7.754361496606469
1772045523082377200,2.090377197265625,-3.028420769947767,-1.6535802772194146,6.9311834110140795
1772045523092362200,2.1003623046875,-2.6952666737020015,-1.1054968976140023,5.693968597212433
1772045523102348000,2.11034814453125,-2.2541620519556105,-0.6133344349339604,3.987693671637773
1772045523112334300,2.120334228515625,-1.7106244990862904,-0.09579963058829306,2.0503999131679533
1772045523122320100,2.130320068359375,-1.3282253104172645,0.47414369864761824,0.5356313097894192
1772045523132306200,2.14030615234375,-1.3761853314660488,1.013524424098432,-0.8223521561622619
1772045523142292200,2.150292236328125,-1.6637572417102753,1.4456728553205727,-2.526297762006521
1772045523152278300,2.1602783203125,-1.6504070540107785,1.4652745046302675,-4.7248891717791555
1772045523162264000,2.17026416015625,-1.0143278494358061,1.347356565736234,-7.41957132359147
1772045523172249000,2.1802490234375,0.12549670358523726,1.168648350314796,-10.180244827705621
1772045523182235100,2.190235107421875,1.461370190668106,0.9745973120719194,-12.264812383413314
1772045523192221200,2.20022119140625,2.3123298710249363,1.0185910598382353,-13.081800966715813
1772045523202207000,2.21020703125,2.534474054199457,1.0462778159260748,-12.286369550704956
1772045523212193300,2.220193359375,2.405214052557945,1.2461001310467719,-10.672537346506118
1772045523222179000,2.230178955078125,2.1923417017281053,1.8307807184264062,-9.314570247167348
1772045523232165000,2.2401650390625,1.9685563272178173,1.8187267080172895,-8.077257233688234
1772045523242151200,2.250151123046875,1.6689046876013278,1.4843874936401844,-7.4657392005264755
1772045523252137200,2.26013720703125,1.1507273475684225,1.2719143712610006,-7.393715582323074
1772045523262122200,2.270122314453125,0.4426901373721659,1.096963170285523,-7.608320456033945
1772045523272108000,2.28010791015625,-0.25121252981387077,0.9432648929581046,-7.947447781470418
1772045523282094300,2.29009423828125,-0.722789519778639,0.7332812493070959,-8.138893313390016
1772045523292080000,2.300080078125,-0.7990612969458103,1.0123422285765409,-8.149334043383599
1772045523302066200,2.310066162109375,-0.5042869079768657,2.050629338009655,-8.03013541702926
1772045523312052200,2.32005224609375,0.09692074357271194,3.344996948619187,-7.803716771405935
1772045523322038300,2.330038330078125,1.0744002600174396,4.570260043342412,-7.60355368002355
1772045523332024000,2.340024169921875,2.0173381860435007,5.633335557073354,-7.476394450053572
1772045523342010400,2.35001025390625,2.6442308984696865,6.506129614228009,-7.365221893766522
1772045523351995100,2.3599951171875,2.6571055776119232,7.1554679672181605,-7.186523615217208
1772045523361981200,2.369981201171875,2.034848123770952,7.412506792032718,-6.677267686656117
1772045523371967000,2.379967041015625,0.954462067342177,7.117768643420934,-5.664574160423874
1772045523381953300,2.389953369140625,-0.460000022482872,6.636065323173999,-4.270619801902771
1772045523391939000,2.39993896484375,-1.9146552256822584,6.170985805469751,-2.8938994867771863
1772045523401925000,2.409925048828125,-2.9330291356384754,5.468071345114708,-1.5885153921127317
1772045523411911200,2.4199111328125,-3.3185447027623654,4.6098777679815885,-0.42652153125107284
1772045523421897200,2.429897216796875,-3.101307142460346,3.6204736396610735,0.46913200796544546
1772045523431882200,2.43988232421875,-2.5244565180540084,2.5807328242883085,1.2338017904877663
1772045523441868000,2.449867919921875,-1.9072154310703275,1.5776093826949595,1.9102473461121319
1772045523451854300,2.459854248046875,-1.3145803775548934,0.6352446534469723,2.526631524005532
1772045523461840100,2.469840087890625,-0.7575893958073109,-0.1279246613845229,3.3867297657161948
1772045523471826200,2.479826171875,-0.3659926090735942,-0.5504369569942354,4.603543596524
1772045523481812200,2.489812255859375,-0.13764328764863312,-0.7658978630125522,5.899756542739272
1772045523491798300,2.49979833984375,-0.020182444872334598,-1.0494248817801475,6.997971466651559
1772045523501784000,2.5097841796875,0.09044066083841025,-1.3588742773115634,7.823291240447759
1772045523511770400,2.519770263671875,0.2585515674650669,-1.6067331858485936,8.487236210939288
1772045523521756200,2.529756103515625,0.5829775828540325,-1.901065676268935,9.18509923312366
1772045523531741200,2.5397412109375,0.8835247830707579,-2.1097350224509834,9.981208110004664
1772045523541727000,2.54972705078125,1.0463888750851154,-2.041629454474151,10.768635083258152
1772045523551713300,2.55971337890625,1.043179849910736,-1.822694442604482,11.580077722871303
1772045523561699000,2.569698974609375,0.8422737581413239,-1.7014605110302568,12.404558707755804
1772045523571685000,2.57968505859375,0.4736801727890968,-1.7058417948544025,12.983991749870777
1772045523581671200,2.589671142578125,0.18824067146368323,-1.7713579308599232,13.150714928466082
1772045523591657200,2.5996572265625,-0.014264672195911406,-1.91304837500751,12.822535113501548
1772045523601643000,2.60964306640625,-0.09889065540619194,-2.0767788015276194,12.199756266134976
1772045523611629300,2.61962939453125,-0.0006617518443614244,-2.2606354857534168,11.477753658950329
1772045523621614300,2.6296142578125,0.15515191020183264,-2.449845805966854,10.814417175745964
1772045523631600000,2.63960009765625,0.22765724750757216,-2.489962127777934,10.360893655800819
1772045523641586200,2.649586181640625,0.18498013529777527,-2.4692536862701178,9.957063848829268
1772045523651572200,2.659572265625,0.08264671902656555,-2.4359566890850664,9.52572235007584
1772045523661558300,2.669558349609375,-0.03723404437303543,-2.271196919517219,9.033888096436858
1772045523671544000,2.6795439453125,-0.12325586585588752,-2.0122849943071603,8.32540606508255
1772045523681530000,2.689530029296875,-0.04947159465551376,-1.5040531480967998,7.102060202157497
1772045523691516200,2.69951611328125,0.0036859950363636014,-0.6904428090557455,5.326728106969594
1772045523701502200,2.709502197265625,-0.18520568768195808,0.18114654848426578,3.3341023373782632
1772045523711488300,2.71948828125,-0.4934381817042827,1.1325628914549946,1.147789978942275
1772045523721473300,2.729473388671875,-0.7671942594986408,2.4808368642970917,-1.4847241782486438
1772045523731459000,2.739458984375,-0.8646046862844378,4.239577597907186,-4.262598992532491
1772045523741445000,2.749445068359375,-0.6587549275677651,5.790552071654797,-6.861005712938308
1772045523751431200,2.75943115234375,0.11205986051559448,6.169898594754934,-9.514155246400833
1772045523761417200,2.769417236328125,1.5534312192499637,5.455188482666015,-12.698601275318861
1772045523771403000,2.779403076171875,3.258718887352943,3.73433908829391,-15.697946757429838
1772045523781389300,2.789389404296875,4.652852694094181,2.060164351335168,-18.00547668082714
1772045523791375000,2.799375,5.144086059230566,1.442501824069023,-19.085544538152217
1772045523801361200,2.809361083984375,4.524837724077702,1.7327666266590356,-18.33636283214092
1772045523811347200,2.81934716796875,3.4600118595480915,2.497006201070547,-16.18953317378759
1772045523821332200,2.829332275390625,2.437760231375694,3.5235029194667935,-13.92137664487958
1772045523831318000,2.839318115234375,1.7562451174020766,4.324977999556064,-12.128427059936524
1772045523841304000,2.849303955078125,1.1024176362991331,4.5534281510069965,-10.930021577000618
1772045523851290000,2.8592900390625,0.22227730803489684,4.355210932995378,-10.259942049276829
1772045523861276200,2.869276123046875,-0.7062368827760219,3.819496913358569,-9.770139009204506
1772045523871262000,2.879261962890625,-1.363089849179983,3.3287080771192907,-9.153257987704873
1772045523881248300,2.889248291015625,-1.5593395665109158,3.3988027730867265,-8.783950628060103
1772045523891234000,2.899234130859375,-1.322483113503456,3.755524791924655,-8.450782503288984
1772045523901220000,2.90922021484375,-0.8606137900173664,3.9474931786745784,-7.861030311733484
1772045523911205000,2.919205078125,-0.3866951322972774,3.839989374028146,-6.890970058569311
1772045523921191200,2.929191162109375,0.2379903889408335,3.666974401812255,-5.641242969197035
1772045523931177200,2.93917724609375,0.9782873987615108,3.7295372409701346,-4.31605293482244
1772045523941163000,2.9491630859375,1.5788181739628313,3.639519993175566,-2.8136083909660576
1772045523951149300,2.9591494140625,1.9477718978643417,3.0977628939822313,-1.225579321065545
1772045523961135000,2.969135009765625,2.128914062434435,2.417916590003669,0.16966799987554548
1772045523971121200,2.97912109375,2.070218712359667,1.686168541613221,1.4556068048357962
1772045523981107200,2.989107177734375,1.804352437967062,0.9107701520666479,2.7690795134097335
1772045523991093200,2.99909326171875,1.541356166052818,0.2482815178632736,4.134716124463081
1772045524001079000,3.0090791015625,1.3228899407386778,-0.31853958769887686,5.608056738910078
1772045524011064000,3.01906396484375,1.189002863818407,-0.8434139411523938,7.2244392121136185
1772045524021050000,3.029050048828125,1.1291805555403231,-1.3072586563646793,9.014995764440297
1772045524031036200,3.0390361328125,1.127457385009527,-1.7374340339481829,10.775884323734044
1772045524041022000,3.04902197265625,0.9855705415070056,-2.0463461077325045,12.242378433287143
1772045524051008000,3.059008056640625,0.48522097297906874,-2.317608688210696,13.257753745949268
1772045524060993800,3.068993896484375,-0.41916181613802905,-2.6697774276584387,13.714194030123949
1772045524070980000,3.07897998046875,-1.4622235926270484,-3.102928021660447,13.708081100201605
1772045524080966000,3.0889658203125,-2.3440169487953186,-3.460651326495409,13.226958794713019
1772045524090952000,3.098951904296875,-3.027524113368988,-3.7699391017243262,12.520489272224902
1772045524100938000,3.10893798828125,-3.5325405046641825,-4.081904571729898,11.880788516151904
1772045524110923000,3.118923095703125,-3.70474065336585,-4.29313090891838,11.289091035747527
1772045524120909000,3.128908935546875,-3.5512989811480042,-4.338129742074012,10.700465802395343
1772045524130895000,3.13889501953125,-3.288492094326019,-4.385679428756236,10.337736067575216
1772045524140881200,3.148881103515625,-2.9745009637117383,-4.270279902423918,10.050284568840265
1772045524150867000,3.158866943359375,-2.623403214496374,-3.9740024154156446,9.788806884795427
1772045524160853000,3.16885302734375,-2.276360878151655,-3.6468951981186866,9.489370933756232
1772045524170839000,3.178839111328125,-1.9003975677490232,-3.249762842959165,8.994934973186254
1772045524180825000,3.1888251953125,-1.382386231932789,-2.743043739399314,8.158183704793453
1772045524190811000,3.198810791015625,-0.7967465902626514,-2.0331943652145563,7.06645171315968
1772045524200797200,3.208797119140625,-0.23821948498897252,-1.0345184045493603,5.752093453922868
1772045524210782000,3.218781982421875,0.1816975334305316,0.14199439553022383,4.705903900802135
1772045524220768000,3.22876806640625,0.460757635917142,1.2017803661964832,4.140149839949608
1772045524230754000,3.238754150390625,0.7064508177876472,2.212032929017395,3.8523119722455736
1772045524240740000,3.248739990234375,0.8590952021479606,3.0350536320909858,3.4023704024404284
1772045524250726000,3.258725830078125,0.9180266990661621,3.606060498905182,2.1583622752368448
1772045524260712000,3.2687119140625,0.9281786752462386,3.8201185523882506,0.09137889153659343
1772045524270698000,3.278697998046875,0.9018599926412105,3.7109655192300677,-2.417968904712796
1772045524280684000,3.28868408203125,0.8619231921155005,3.287833922678232,-5.298757565504312
1772045524290669800,3.298669921875,1.047027172988653,3.1303897368207574,-8.55146113809049
1772045524300656000,3.30865625,1.5668576870560644,3.345482394048571,-10.992404091155528
1772045524310641200,3.31864111328125,2.0739806952416897,3.315889512078464,-11.895731233739852
1772045524320627000,3.328626953125,2.3224457529783247,2.524116034053266,-11.395062516260147
1772045524330613200,3.33861328125,2.55211141769886,1.5940008377864956,-10.800928748619556
1772045524340599000,3.34859912109375,2.8276410079717635,1.3454346577629446,-10.703556754148005
1772045524350585000,3.358585205078125,2.6850071454942226,0.20545915196388959,-9.814503636109828
1772045524360571000,3.36857080078125,2.4122633865475653,-0.9975681455537676,-8.82069425856769
1772045524370557200,3.37855712890625,2.33549111251235,-1.4397145314380526,-8.063999108186364
1772045524380543000,3.38854296875,2.3586440245628357,-1.6022914040088652,-7.363190680199861
1772045524390529000,3.398529052734375,2.4671277801573277,-1.4513064772933721,-6.957538333976268
1772045524400515000,3.40851513671875,2.6103110932111737,-1.0709808800280094,-6.7361506682574745
1772045524410500000,3.4185,2.643649883711338,-0.3671732702255249,-6.479937772873043
1772045524420486000,3.42848583984375,2.819263640248775,0.7541568640753626,-6.292761588835716
1772045524430472200,3.43847216796875,3.1885978879004715,2.575144210501015,-6.50549599249959
1772045524440458000,3.4484580078125,3.448561660251021,4.439224556460976,-6.648368339908123
1772045524450444000,3.458444091796875,3.198860338717699,5.652558143937587,-6.311666780313849
1772045524460429800,3.468429931640625,2.6220950545072554,6.341833955040574,-6.033135670137405
1772045524470416100,3.478416015625,1.928804162544012,6.8315072312533855,-6.113381173241138
1772045524480402000,3.48840185546875,1.0421101748526096,7.234913844376802,-6.372406203436851
1772045524490388000,3.498387939453125,0.18557634762525557,7.446043735453486,-6.2718269373565905
1772045524500374000,3.5083740234375,-0.612156988652423,7.5243410270988935,-5.7392064998209475
1772045524510359000,3.518359130859375,-1.3097814528405665,7.42710697979331,-4.667625900334119
1772045524520345000,3.528344970703125,-1.8305284972310065,7.40823218345344,-3.399083635854721
1772045524530331100,3.5383310546875,-2.1052701519966126,7.2687798736214635,-1.9933587600409983
1772045524540317200,3.548317138671875,-2.1443512855410574,6.842770968067645,-0.6136737498909235
1772045524550303000,3.558302978515625,-1.9898153883457184,6.242313258102536,0.4964531456112861
1772045524560289000,3.5682890625,-1.8714789317786693,5.538702047654986,1.32340841165483
1772045524570275000,3.578275146484375,-1.8316788363099097,4.721379117831588,1.9953303523749113
1772045524580261000,3.58826123046875,-1.7619582343518734,3.9077605954840777,2.5961259159922596
1772045524590247000,3.598246826171875,-1.7574293587505816,3.058854486656189,3.1721073563486337
1772045524600232200,3.608232177734375,-1.7234300585150717,2.2165637043148276,3.7605443736523387
1772045524610218000,3.618218017578125,-1.5778993055522441,1.696047546070814,4.235000206989049
1772045524620204000,3.6282041015625,-1.3778151246249675,1.5325573580473661,4.601820425993204
1772045524630190000,3.638190185546875,-1.2860288213312625,1.3650082500219345,5.053452433103323
1772045524640176000,3.648176025390625,-1.323441729402542,1.0085781998679042,5.614972217386961
1772045524650162000,3.658161865234375,-1.2903835094094276,0.560920941607654,6.220254571029543
1772045524660148000,3.66814794921875,-1.0669522820990531,-0.022419044817984103,6.872050838565826
1772045524670134000,3.678134033203125,-0.7637468224585056,-0.6468669944405555,7.5576143511474125
1772045524680120000,3.6881201171875,-0.5322504351794719,-1.1340431931406258,8.213228131145238
1772045524690105000,3.69810498046875,-0.5247123312922194,-1.4572721076995134,8.897699756836891
1772045524700091100,3.708091064453125,-0.7228150195460766,-1.6239976243823766,9.739633980825543
1772045524710077000,3.718076904296875,-0.9402057976484298,-1.6911042444497346,10.627480061161517
1772045524720063000,3.72806298828125,-1.1074434285718946,-1.8303291752666233,11.397080285823344
1772045524730049000,3.738049072265625,-1.0924246500730515,-2.0857465363591907,12.007026539623737
1772045524740035000,3.74803515625,-0.8310906853478401,-2.3415865067780017,12.378469157731532
1772045524750020900,3.758020751953125,-0.455347301306203,-2.751504986013472,12.528674916768074
1772045524760007200,3.768007080078125,-0.08012399561591446,-3.132777216479182,12.537089693892002
1772045524769993000,3.777992919921875,0.12599369332194327,-3.3697716166526077,12.369605467796324
1772045524779979000,3.78797900390625,0.0473999760132283,-3.4608941953405736,12.043936758869886
1772045524789964000,3.797964111328125,-0.34680830839313564,-3.473756015001237,11.730412076723574
1772045524799950000,3.8079501953125,-0.8176794151108712,-3.506860412223637,11.484420715624093
1772045524809936100,3.81793603515625,-1.1634112533789127,-3.4470056629806756,10.959974816715716
1772045524819922000,3.827921875,-1.14758934180364,-3.5395562286451456,10.126340219038724
1772045524829908200,3.837908203125,-0.736810738607496,-3.4622929562225937,9.081066027197242
1772045524839894000,3.84789404296875,-0.14648586173057554,-3.0509982201978563,7.608841265037656
1772045524849880000,3.857880126953125,0.2599707866132259,-2.381552606463432,5.648316268584132
1772045524859866000,3.8678662109375,0.7308312258064746,-1.562003817284107,3.5713299617856737
1772045524869852200,3.87785205078125,1.466545547479391,-0.21832944719195366,1.3322656718492507
1772045524879837000,3.8878369140625,2.240544883882999,2.0282009408414363,-1.0272615652889012
1772045524889823000,3.897822998046875,2.741364408010244,5.34799885853529,-3.244677502518892
1772045524899809000,3.90780908203125,2.5589175905823707,8.793612774896621,-4.840967035764455
1772045524909795000,3.917795166015625,2.1677496967852115,11.601825444298981,-6.979682945767045
1772045524919780900,3.92778076171875,1.7012147195756435,13.00291623057127,-9.807531459009647
1772045524929767200,3.93776708984375,1.290011753487587,12.491085483086108,-12.977464978450536
1772045524939753000,3.9477529296875,1.5863842253029345,11.24037347432971,-16.821982351297137
1772045524949739000,3.957739013671875,2.4128910169266162,9.640750412747263,-20.25868230884075
1772045524959725000,3.96772509765625,3.122176912009716,7.8755287926852695,-21.71521499634981
1772045524969710000,3.9777099609375,3.3121173000633717,6.819549082434177,-21.19691008441448
1772045524979696000,3.987696044921875,2.8919407539248465,6.990957788497209,-19.281719436681268
1772045524989682000,3.997681884765625,2.408064181292057,8.37132376664877,-17.09708991676569
1772045524999668200,4.007668212890625,1.7879764727056024,9.841538942551612,-15.086921476221084
1772045525009654000,4.017654052734375,0.7071768670398741,10.502383024418354,-13.16341892721653
1772045525019640000,4.02764013671875,-0.6004301643710583,10.4752892657876,-11.355340746724606
1772045525029626000,4.037626220703125,-1.6509296165801584,10.11832876201868,-9.615259413138032
1772045525039612200,4.047612060546875,-2.213078054156154,9.60793476933837,-7.913186615428328
1772045525049598000,4.057597900390625,-2.3149333315216003,8.785312564063071,-6.061013272622227
1772045525059583000,4.0675830078125,-2.0848623008705673,7.630190927058458,-4.074836533039808
1772045525069568800,4.07756884765625,-1.7562756586708128,6.284800400698185,-2.1750305014431475
1772045525079554800,4.087554931640625,-1.5317406348370015,4.9093128422379495,-0.5249707995653152
1772045525089540900,4.097540771484375,-1.471269653391838,3.565972818666696,0.8205278633445501
1772045525099527000,4.10752685546875,-1.4739571389101445,2.2722949438869953,2.0474065765708684
1772045525109512700,4.1175126953125,-1.4222878880798815,1.1706757644891739,3.1812697369694707
1772045525119499000,4.1274990234375,-1.332183692654222,0.32629911578446624,4.1849505201846355
1772045525129484800,4.13748486328125,-1.3559633583009243,-0.3352259340837598,4.867999419596791
1772045525139470800,4.147470947265625,-1.532698373953253,-0.9264148804441094,5.411441695398092
1772045525149456000,4.157455810546875,-1.8734195444524286,-1.415481715196371,5.814392381447553
1772045525159442000,4.16744189453125,-2.3449337713792917,-1.731885459910333,6.089854751703143
1772045525169428000,4.177427978515625,-2.865236286872625,-2.009929955613613,6.309872298112511
1772045525179413800,4.187413818359375,-3.4726994916856286,-2.3591937674000856,6.4771437582403415
1772045525189400000,4.197400146484375,-4.0868344293475145,-2.7923122126981617,6.665023122110963
1772045525199385900,4.2073857421875,-4.533762204289436,-3.145636990313232,6.8770233662813895
1772045525209372000,4.217371826171875,-4.698140281063318,-3.406111050273478,7.0773752582341425
1772045525219358000,4.22735791015625,-4.618842872464657,-3.5968235917434095,7.330949037286639
1772045525229344000,4.237343994140625,-4.331950176656246,-3.7034310320720074,7.659004349088669
1772045525239329800,4.247329833984375,-3.9623347739756105,-3.795100430987775,8.038724381676316
1772045525249314800,4.257314697265625,-3.682942663055658,-3.8893215602129696,8.322977961152791
1772045525259300900,4.26730078125,-3.5901708558559418,-3.997186891648173,8.573464295583962
1772045525269287000,4.277286865234375,-3.573006955087185,-4.1056747388958925,8.68749574843347
1772045525279272700,4.287272705078125,-3.6319735233187673,-4.234378275698423,8.760670290237664
1772045525289259000,4.297259033203125,-3.6400410944402215,-4.271607351635396,8.948769434338807
1772045525299244800,4.307244873046875,-3.466503851915896,-4.137911997894943,9.241638866469264
1772045525309230800,4.31723095703125,-3.2572342017531395,-3.9104116945147513,9.586479893377422
1772045525319217000,4.327216796875,-2.959919480651617,-3.6923189786881205,9.871398658764361
1772045525329203000,4.337202880859375,-2.467636314201355,-3.4105297434985635,10.090292754101753
1772045525339188700,4.347188720703125,-1.8744190768837927,-3.1144603462830185,10.152123479592799
1772045525349173800,4.357173828125,-1.336856506770849,-2.73959067633599,10.092022938895225
1772045525359160000,4.36716015625,-0.9804651811920105,-2.229527230784297,9.886635975384712
1772045525369145900,4.377145751953125,-0.9293255071938037,-1.657512648232281,9.501510284361244
1772045525379132000,4.3871318359375,-1.1667582987844944,-1.1911360764548182,8.939182106304168
1772045525389118000,4.397117919921875,-1.6369582282423971,-0.7285171036452055,8.06437612480521
1772045525399104000,4.40710400390625,-2.075173412157595,-0.42936230763494965,7.080552719226479
1772045525409089800,4.41708984375,-2.2767758886933325,-0.22776450727432965,6.170858964219689
1772045525419075800,4.427075927734375,-2.0856687949478623,0.09362140976637601,4.859792732265591
1772045525429062000,4.437061767578125,-1.4118003963351249,0.43674715718924995,2.8806366851001974
1772045525439047000,4.447046875,-0.3644705140728503,1.1363190291181207,0.2779442501991987
1772045525449032700,4.45703271484375,0.5240612104397266,2.409630407695472,-2.8583739998877045
1772045525459019000,4.46701904296875,0.8564496560752392,3.9350335100740192,-5.733011736834049
1772045525469004800,4.4770048828125,0.6935095031499863,4.867218790613115,-7.544668360334635
1772045525478990800,4.486990966796875,0.18673742729388176,4.80043161175847,-9.008583559310436
1772045525488977000,4.496976806640625,0.05353285274505615,4.52591295209378,-11.190472840607166
1772045525498963000,4.506962890625,0.5793523780941963,4.618413248875737,-14.245415706777571
1772045525508948700,4.51694873046875,1.378230135166645,5.02859622426629,-17.559119399249553
1772045525518935000,4.52693505859375,1.8893464507721363,5.64358222579956,-20.164085624301432
1772045525528920800,4.5369208984375,1.7318050881505012,6.076806469559669,-21.43559609093666
1772045525538905900,4.54690576171875,1.0370986303009093,6.423413921618462,-21.626094112873076
1772045525548892000,4.556891845703125,0.2868750140212476,6.483508617097139,-21.173381909310816
1772045525558878000,4.5668779296875,-0.3319289383649826,5.962966739889979,-20.256159512364864
1772045525568863700,4.57686376953125,-0.6549729978762566,5.112039062106609,-18.713933577740193
1772045525578849800,4.586849853515625,-0.8550923962473869,4.2735497178748245,-16.41972023203373
1772045525588835800,4.5968359375,-1.080672252959013,3.8825215248093006,-13.615284743082523
1772045525598822000,4.60682177734375,-1.3434370542049408,3.8189787347033617,-10.621595094776152
1772045525608807700,4.6168076171875,-1.5308955623149871,3.756125972688198,-7.619106053942441
1772045525618794000,4.6267939453125,-1.5990192504703997,3.488340420670807,-4.893889647656679
1772045525628779800,4.63677978515625,-1.5763374630630016,2.98332870555073,-2.5923563343256713
1772045525638764800,4.646764892578125,-1.4879378795981406,2.25541658206135,-0.5688637173056602
1772045525648750800,4.656750732421875,-1.4395967502772806,1.5187021434351802,1.1888935582250355
1772045525658737000,4.66673681640625,-1.5110405227661132,0.8058285991236567,2.645699217456579
1772045525668723000,4.676722900390625,-1.7098457697987555,0.0058937342137098305,3.8217853165566917
1772045525678708700,4.686708740234375,-2.0770845064759254,-0.8592050922632217,4.651712876409292
1772045525688695000,4.696695068359375,-2.507904027181864,-1.7402213265791535,5.102528890961408
1772045525698680800,4.706680908203125,-2.800769367659092,-2.5412416486382483,5.137850964233279
1772045525708667000,4.7166669921875,-2.899626047730446,-3.232071995706856,4.916363929793238
1772045525718653000,4.72665283203125,-2.8668203411936757,-3.8925139265134927,4.71572386854887
1772045525728639000,4.736638916015625,-2.529430799335241,-4.4200431783899665,4.70011421148479
1772045525738624800,4.746624755859375,-1.9256991822659968,-4.723717789912223,4.987670339637995
1772045525748609800,4.75660986328125,-1.441142226153612,-4.8081736041873695,5.576321876475214
1772045525758595800,4.766595947265625,-1.2604945671021937,-4.777204465427994,6.357380483740568
1772045525768582000,4.776581787109375,-1.2549743423759936,-4.6464518871411675,7.166297988790273
1772045525778567700,4.786567626953125,-1.3458522986531256,-4.471067847706378,7.90822227101922
1772045525788554000,4.796553955078125,-1.4141396529376506,-4.372338593406975,8.51977654453814
1772045525798539800,4.806539794921875,-1.366689334976673,-4.387596076032519,8.960661532184481
1772045525808525800,4.81652587890625,-1.1726947030961512,-4.4357574648723,9.148517515179515
1772045525818512000,4.826511962890625,-0.9285200360298156,-4.559933587378263,9.061105773708224
1772045525828498000,4.836497802734375,-0.7235176879227161,-4.742434473080933,8.820144223469494
1772045525838483700,4.846483642578125,-0.5697533961543813,-4.860746964250505,8.510760878911613
1772045525848468700,4.85646875,-0.44612460533287374,-4.99053098976612,8.166324925673008
1772045525858455000,4.866455078125,-0.3485679384768009,-5.088727744624018,7.932214556503295
1772045525868440800,4.87644091796875,-0.295603204475902,-5.040446821057796,7.828013008272648
1772045525878427000,4.886427001953125,-0.30172672885749485,-5.017641115009784,7.828484132915735
1772045525888413000,4.896412841796875,-0.21429390806555745,-5.024855284172296,7.774229395636915
1772045525898399000,4.90639892578125,-0.03907996450066566,-4.964606859436631,7.568387089574337
1772045525908384800,4.916384765625,0.15112930362224578,-4.916517659050226,7.231179918545484
1772045525918371000,4.92637109375,0.41268060089256614,-4.776261339358985,6.712962100371718
1772045525928356900,4.93635693359375,0.7126923425257206,-4.57076623929888,6.014795711326599
1772045525938343000,4.946343017578125,1.048396123254299,-4.340919957314432,5.261146504512429
1772045525948329000,4.956328857421875,1.4337889407813549,-3.899588102683425,4.580469010406732
1772045525958314000,4.96631396484375,1.8527812455713748,-3.115399672959745,4.038629493626952
1772045525968299800,4.9762998046875,1.9963924286484718,-1.9657009377866983,3.4924516553819176
1772045525978285800,4.986285888671875,1.9134592938959598,-0.6186418936923146,2.741890477710962
1772045525988271900,4.99627197265625,1.7060802797853947,1.0175035568624735,1.3171575345665216
1772045525998258000,5.0062578125,1.3723860853135585,2.8882188107922673,-1.119554064539075
1772045526008243700,5.01624365234375,1.0748176817119122,4.5160640505135055,-3.7056858252614733
1772045526018230000,5.02622998046875,0.7373439687013625,5.639596955555677,-5.9379743374526495
1772045526028215800,5.0362158203125,0.4506440189860761,6.00224251922369,-7.74253369616866
1772045526038201900,5.046201904296875,0.6248994927823543,6.072853932541609,-9.479165181562305
1772045526048188000,5.05618798828125,1.2228186241805552,6.224098971498012,-11.408476124584674
1772045526058174200,5.06617431640625,1.9149708675026893,6.222173556393384,-12.95826577246189
1772045526068160000,5.076159912109375,2.4434838697195054,5.966314881274104,-13.727089752054214
1772045526078145000,5.08614501953125,2.6284640050172805,5.7499161098837845,-13.624637093317508
1772045526088131000,5.096131103515625,2.536001994419098,5.797186395102739,-13.018999934887885
1772045526098117000,5.1061171875,2.1753319686077535,5.976309621065854,-12.481695723450184
1772045526108103000,5.11610302734375,1.6885924077592789,6.174663617199659,-12.157024208867549
1772045526118089000,5.1260888671875,1.3012696450829506,6.555394288134575,-11.974321370851992
1772045526128075000,5.136074951171875,1.1491608289040625,7.0499570899546145,-11.88260521018505
1772045526138061000,5.14606103515625,1.174278757417202,7.431626503044367,-11.69571485735178
1772045526148046800,5.156046875,1.4154270623996854,7.568871073698997,-11.108919177514315
1772045526158033200,5.166033203125,1.6671512680627405,7.242205754950642,-9.966694431483745
1772045526168019000,5.17601904296875,1.7809025887966154,6.410867159256338,-8.267028694915771
1772045526178005000,5.1860048828125,1.7168763990879057,5.395768325448036,-6.324375455239415
1772045526187990000,5.195989990234375,1.5303390974760054,4.404037507745623,-4.2906893609851595
1772045526197976000,5.20597607421875,1.300731884944439,3.5490400963053106,-2.2466987303376196
1772045526207962000,5.215962158203125,1.0642062713265419,2.929077475403249,-0.34727556057870385
1772045526217948000,5.225947998046875,0.8304313446562737,2.4641399965181945,1.255492228770256
1772045526227934200,5.235934326171875,0.628745646816492,1.9618577063620088,2.5385318051576613
1772045526237920000,5.245919921875,0.5530372026205063,1.364876732596755,3.4976942322105167
1772045526247906000,5.255906005859375,0.49360298034455624,0.7618179002225398,4.255671239095926
1772045526257892000,5.26589208984375,0.3298421586861834,0.1497232362166047,4.881147654983401
1772045526267878100,5.275878173828125,-0.028465083516575396,-0.42444092558473345,5.4663727245032785
1772045526277864000,5.285864013671875,-0.330786782592535,-0.8912985588774085,6.063104691943526
1772045526287850200,5.295850341796875,-0.45277767001390457,-1.2418985877037048,6.609212387561798
1772045526297836000,5.3058359375,-0.4159493568975478,-1.5079758744984864,7.141472175091504
1772045526307822000,5.315822021484375,-0.2759305722892284,-1.6729598082110284,7.5717989438444375
1772045526317806800,5.325806884765625,-0.09871873290538788,-1.7773258993536234,7.968209414470195
1772045526327793200,5.335793212890625,0.06288410700149834,-1.8654954734548925,8.40345610396862
1772045526337779000,5.345779052734375,0.1872797174770385,-1.9617367103308438,8.775520068845152
1772045526347765000,5.355764892578125,0.22805698741488156,-2.0327640109732745,8.961392769068478
1772045526357751000,5.3657509765625,0.127120651525259,-2.121811536952853,8.942858164468408
1772045526367736000,5.375736083984375,-0.09187982679605483,-2.231972285848856,8.734070452603698
1772045526377722000,5.38572216796875,-0.25833302934356034,-2.3944725860521197,8.418780514350534
1772045526387708000,5.3957080078125,-0.3492343664962798,-2.5335402804806826,8.054805163383483
1772045526397694200,5.405694091796875,-0.4400736712634563,-2.6583783740267157,7.697698529142141
1772045526407680000,5.415679931640625,-0.5303015661340207,-2.7352798273995518,7.374277306881546
1772045526417666000,5.425666015625,-0.6457646592218429,-2.8561291435703633,7.122352464079857
1772045526427652000,5.435652099609375,-0.7668856319408863,-2.9819305291905995,6.925675461247563
1772045526437638100,5.44563818359375,-0.7913655548114329,-3.0705688898473977,6.717219173294305
1772045526447624000,5.4556240234375,-0.7857528294961899,-3.184845257368684,6.510147617697715
1772045526457610200,5.4656103515625,-0.786489327077195,-3.355805927403271,6.308080738520622
1772045526467596000,5.475595947265625,-0.7354991445522755,-3.574035713613033,6.090071609324217
1772045526477582000,5.48558203125,-0.6810321527622639,-3.7858398506894706,5.889727900677919
1772045526487568100,5.495568115234375,-0.6518097115397453,-3.899173384402692,5.759255016115308
1772045526497553200,5.50555322265625,-0.6190763395868242,-3.9254131565526125,5.681503083392977
1772045526507539000,5.5155390625,-0.5111633696176111,-3.9224236193478106,5.425436318480968
1772045526517525000,5.52552490234375,-0.3203822929561138,-3.7648812338128685,5.018982008224725
1772045526527511000,5.535510986328125,-0.02554711371064186,-3.252872791673243,4.29300114505887
1772045526537497000,5.5454970703125,0.28577983919568356,-2.131797216655314,3.060235711881518
1772045526547483000,5.55548291015625,0.5331634583711624,-0.0683899378761649,1.265682783395052
1772045526557469200,5.56546923828125,0.5197581794835627,2.956065727832913,-1.249037353542447
1772045526567455000,5.575455078125,-0.04793181786760688,5.77081393648386,-4.004035150107741
1772045526577441000,5.58544091796875,-1.0712636424921453,7.479621010884642,-6.712397452226281
1772045526587427000,5.595427001953125,-2.0932465367257596,8.032569366177915,-9.456334341073036
1772045526597413000,5.6054130859375,-2.455009472340345,7.215033085864782,-11.802553768348693
1772045526607399000,5.61539892578125,-1.9368682265341282,5.82730446999073,-13.816706310093402
1772045526617385000,5.625385009765625,-0.792372028440237,4.032706533318758,-15.28036548848152
1772045526627370200,5.635370361328125,0.815502874789387,2.0250895308226347,-16.128001723504067
1772045526637356000,5.64535595703125,2.1692063253343106,0.9514736261159181,-16.385482446867226
1772045526647342000,5.655342041015625,2.468313190549612,1.5512807632178067,-15.834358968913554
1772045526657328000,5.665328125,1.781359538783878,3.2364182082176205,-14.531567228829859
1772045526667314200,5.675314208984375,0.7683635224737226,5.184019425690174,-13.032526940459013
1772045526677300000,5.685300048828125,-0.20153496425747872,6.9918965306520455,-11.542628574442864
1772045526687286000,5.6952861328125,-1.154442422568798,8.055698312830925,-9.987807362139224
1772045526697272000,5.70527197265625,-2.1057906687393784,8.194486021274328,-8.342328558310866
1772045526707258000,5.715258056640625,-2.9082153046384454,7.453367210209369,-6.582262421315908
1772045526717244000,5.725243896484375,-3.364911317139864,6.278278305453061,-4.705803947558999
1772045526727230000,5.73522998046875,-3.414447501464188,4.964615627264976,-2.7451024254947898
1772045526737216000,5.745216064453125,-3.115110042363405,3.800952956408262,-0.9530249472111463
1772045526747201800,5.755201904296875,-2.6581097862184047,2.748966115185618,0.6112415543079376
1772045526757188000,5.76518798828125,-2.3202524807177483,1.5903487450197338,1.9966151314884424
1772045526767174000,5.775173828125,-2.065208190721273,0.44489422328770156,3.085930709630251
1772045526777160000,5.785159912109375,-1.8369044620037078,-0.48743894128948445,3.8537002117335795
1772045526787146000,5.79514599609375,-1.644053154939413,-1.2002131168797612,4.505971111044287
1772045526797132000,5.805132080078125,-1.518549290961027,-1.710510663448274,5.020666015788913
1772045526807117800,5.815117919921875,-1.52343004873991,-2.118333047187328,5.316897617828846
1772045526817104100,5.825104248046875,-1.673949111509323,-2.566624803958833,5.481192692494392
1772045526827090000,5.83508984375,-1.7573966255247593,-2.9063331441536544,5.631978297245502
1772045526837076000,5.845075927734375,-1.6555647290349005,-3.111527507701516,5.794988592797518
1772045526847062000,5.85506201171875,-1.449161866480112,-3.3047315737262366,6.120709324172139
1772045526857048000,5.865048095703125,-1.2781062116384505,-3.4587846558406947,6.602237287852168
1772045526867033000,5.875033203125,-1.172881750100851,-3.557664716787636,7.1175441870152945
1772045526877019000,5.885018798828125,-1.1527835494458674,-3.685198040767014,7.638870492598414
1772045526887005200,5.895005126953125,-1.127826802843809,-3.8634430225908756,8.048382436859606
1772045526896991000,5.904990966796875,-0.9944634575366973,-4.047465711033344,8.303380111235379
1772045526906977000,5.91497705078125,-0.7501730551362037,-4.25401382727772,8.378934241652487
1772045526916963000,5.924963134765625,-0.4651508293747902,-4.505497940574586,8.346694936826825
1772045526926949000,5.93494921875,-0.1798082673515193,-4.696135370981693,8.18452226114273
1772045526936935000,5.944934814453125,0.15426467903852462,-4.905271457892656,7.937672821909189
1772045526946921200,5.954921142578125,0.3729834178090095,-5.0510196529984475,7.90049956781268
1772045526956907000,5.964906982421875,0.4388122730255127,-5.115411168888211,8.14291540851295
1772045526966893000,5.97489306640625,0.4876128365516662,-5.14335073069334,8.501485101044178
1772045526976879000,5.984879150390625,0.5125976402044295,-5.04099802519977,8.884118975251912
1772045526986865200,5.994865234375,0.581682282346487,-4.801652677986025,9.310893604481219
1772045526996851000,6.004850830078125,0.7945546331763267,-4.348867993709445,9.615844519549608
1772045527006836000,6.0148359375,1.0968009654611348,-3.6889956794843077,9.554077506944537
1772045527016822000,6.024822021484375,1.3265063776701689,-2.9087720617383717,8.919075137820839
1772045527026808000,6.03480810546875,1.5650117669284342,-2.0220801198735834,7.406314367133379
1772045527036793900,6.0447939453125,1.8897890799731014,-0.613872195072472,5.005687642365694
1772045527046780200,6.0547802734375,1.9596528897941112,1.3189198680639267,2.3371540772885084
1772045527056766700,6.0647666015625,1.6800012511551379,3.0733786865711212,-0.17554595199823378
1772045527066752800,6.074752685546875,1.369800160473585,4.143172402641177,-2.595452546775341
1772045527076738600,6.084738525390625,1.129057805943489,4.88896271264851,-5.520185563233494
1772045527086724900,6.094724853515625,1.0845534783065318,5.63052692939341,-9.201543587446212
1772045527096710700,6.104710693359375,1.0778992811143397,5.973535480177402,-12.759114488470553
1772045527106696700,6.11469677734375,1.0292308195352553,5.466010905453563,-15.87992595734596
1772045527116682800,6.124682861328125,1.047158105891943,4.695178508648276,-18.201932149863243
1772045527126668800,6.134668701171875,1.1747685867607593,4.32157315954864,-18.935439316880704
1772045527136653600,6.144653564453125,1.0435820009708403,4.206474954250455,-17.64023467092514
1772045527146639600,6.1546396484375,0.7313409288942814,4.640354447048902,-15.408631802910566
1772045527156625700,6.164625732421875,0.5294307015836238,5.6869490738391875,-13.447394858795404
1772045527166611700,6.17461181640625,0.3238273919086903,6.629018327271938,-11.872504671931265
1772045527176597500,6.184597412109375,-0.13024671112392097,6.996292719784378,-10.689401972067355
1772045527186583800,6.194583740234375,-0.5078910699486732,6.656847998961806,-9.771566996181011
1772045527196569600,6.204569580078125,-0.4171920139024034,6.14769377720952,-9.066376992109417
1772045527206555600,6.2145556640625,-0.034277532655000685,5.564378340703248,-8.193638464534283
1772045527216541700,6.224541748046875,0.34094577303528784,4.8420638910904525,-7.072146709930896
1772045527226527700,6.23452783203125,0.5249357647845522,4.227253246124088,-5.856866664561629
1772045527236513500,6.244513427734375,0.5514567284960299,3.596538929583132,-4.600815632864832
1772045527246499800,6.254499755859375,0.5264168336551636,2.931627159886062,-3.2356594988048073
1772045527256485600,6.264485595703125,0.4721346969127655,2.1389719305902717,-1.7472914110958575
1772045527266470700,6.274470703125,0.3914823665738106,1.174752220147848,-0.43815234781205653
1772045527276456700,6.284456787109375,0.34620416848752644,0.35148119557499885,0.47517713334858414
1772045527286442800,6.29444287109375,0.2521440019777044,-0.3364832406684756,1.1757196038752793
1772045527296428800,6.3044287109375,0.03055065761897713,-0.9959919822782277,1.8417659305602312
1772045527306414600,6.31441455078125,-0.142846664978005,-1.5308829950943588,2.453491468992829
1772045527316400600,6.324400634765625,-0.26728198640942574,-1.9802599167540669,3.078086425870657
1772045527326386700,6.33438671875,-0.45846510453317313,-2.3613950768366454,3.68957874006927
1772045527336372700,6.344372802734375,-0.7019324635803699,-2.7011735596582294,4.251492492106556
1772045527346358800,6.35435888671875,-0.9959142408668994,-2.927290884247422,4.732510168176889
1772045527356344600,6.364344482421875,-1.2781997351408003,-3.1303859374284744,5.216352838540077
1772045527366330600,6.37433056640625,-1.4508546418726442,-3.3991730677038428,5.720674817830324
1772045527376316700,6.384316650390625,-1.6314473558664322,-3.7317584241509434,6.180018422231078
1772045527386302700,6.394302734375,-1.6908207513332365,-4.065941863444447,6.561863191887736
1772045527396288500,6.40428857421875,-1.576392408120632,-4.41537343301326,6.906853856399655
1772045527406273500,6.4142734375,-1.2779086432397364,-4.799642799468338,7.25632721928358
1772045527416259800,6.424259765625,-0.9033446782410144,-5.134222252342105,7.539142874911427
1772045527426245600,6.43424560546875,-0.5967535947501659,-5.386366290852427,7.74033414029777
1772045527436231700,6.444231689453125,-0.34752748951315876,-5.621692465552687,7.895379740580916
1772045527446217700,6.4542177734375,-0.0691769966006279,-5.780647932755946,7.960995245307683
1772045527456203800,6.464203857421875,0.24931027638912198,-5.859537345075607,8.032925924530625
1772045527466189600,6.474189453125,0.6011293256163597,-5.872770336136221,8.040739813151955
1772045527476176000,6.48417578125,1.0124421818196774,-5.82666967921853,7.92866183245778
1772045527486161700,6.49416162109375,1.4522621705830097,-5.7588148711323734,7.8804568967372175
1772045527496147700,6.504147705078125,1.8383751190781592,-5.57991200992167,7.807633068066835
1772045527506133800,6.5141337890625,2.144241395425796,-5.345079171696305,7.399906253656744
1772045527516119800,6.524119873046875,2.2694541675031186,-5.19081390813589,6.614445027518272
1772045527526104600,6.5341044921875,2.118943288040161,-5.181377386748791,5.375974076175689
1772045527536090600,6.544090576171875,1.8671815268456935,-5.009548993968964,3.8223441194832324
1772045527546076700,6.55407666015625,1.6710872923374176,-4.562402900101244,1.9845242962002754
1772045527556062700,6.564062744140625,1.5323475146889685,-3.7490827761784193,0.13995090700387955
1772045527566048500,6.574048583984375,1.3124316750884055,-2.5692966535165906,-1.5386714570134876
1772045527576034800,6.584034912109375,0.9746575178265571,-1.339596453128755,-3.3489205518037077
1772045527586020600,6.5940205078125,0.7067793190896511,-0.3879614989712834,-5.53311694099903
1772045527596006700,6.604006591796875,0.7769336362898349,0.12701163819283245,-8.096655177119374
1772045527605992700,6.61399267578125,1.1202478920221328,0.026661796954274175,-10.7949525968194
1772045527615978800,6.623978759765625,1.4799077178776263,-0.5269812626048922,-13.601288950955867
1772045527625964500,6.633964599609375,1.7206021416127681,-1.12677144857198,-16.280767688417434
1772045527635950800,6.643950927734375,1.9274211837530135,-1.5705053959086537,-18.341328930115697
1772045527645935900,6.653935791015625,2.361759526234865,-1.8283648894563316,-19.53340287194252
1772045527655921700,6.663921630859375,2.7990181400775906,-1.2260925312846898,-20.051812997817994
1772045527665907700,6.67390771484375,2.5936218242168425,-0.3035845951512456,-19.349229376852513
1772045527675893800,6.683893798828125,1.7641256415188311,0.6320470264494419,-17.556310187047718
1772045527685879800,6.6938798828125,0.6996434758603572,1.5769605633974075,-15.79665496894121
1772045527695865600,6.703865478515625,-0.42616563048548994,2.1363006655544043,-14.42565303146243
1772045527705852000,6.713851806640625,-1.519548823392391,2.3177125869765876,-13.325158472180366
1772045527715837700,6.723837646484375,-2.363492049115896,2.3113985815241933,-12.425904278123378
1772045527725823700,6.73382373046875,-2.9474247407376764,2.2221946959391237,-11.575823572558164
1772045527735809800,6.743809814453125,-3.5973844404965636,2.095808934559673,-10.493266821026802
1772045527745795800,6.7537958984375,-4.374563575980067,1.9470676951177417,-9.077496936538815
1772045527755781600,6.76378173828125,-5.194122886553407,1.6643842875674366,-7.704039422601461
1772045527765766700,6.7737666015625,-4.911968325182795,2.3599708892524243,-7.605014400225877
1772045527775752700,6.783752685546875,-5.135490080320835,2.4868390273213383,-6.587168313536048
1772045527785738800,6.79373876953125,-5.512307377204299,2.406850567718595,-5.203213370981812
1772045527795724500,6.803724609375,-5.246297894948721,2.6593688463687895,-3.6540766340553756
1772045527805710800,6.8137109375,-4.416859579917788,2.845627623300254,-2.1945196302890775
1772045527815696600,6.823696533203125,-3.3480291559219357,2.933111260963976,-0.9594652093917131
1772045527825682700,6.8336826171875,-2.046075035706162,3.029243192246556,0.054845688909292215
1772045527835668700,6.843668701171875,-0.7768161473900079,3.181647338110208,0.8672118731081485
1772045527845654800,6.85365478515625,0.26172961297929287,3.333321416133642,1.489395677191019
1772045527855640600,6.863640625,1.1148287895828486,3.4621085395663975,1.980205263957381
1772045527865626600,6.873626708984375,1.8118278884142636,3.643496787852049,2.381597030127048
1772045527875612000,6.88361181640625,2.4466870496749875,3.64901467449069,2.655203543382883
1772045527885597700,6.89359765625,3.2679110785901546,3.628472237199545,2.741215354928374
1772045527895583700,6.903583740234375,4.010687593734264,3.809203482881188,2.959053219211101
1772045527905569800,6.91356982421875,4.482412540802359,3.9472637538328765,3.2053976315319535
1772045527915555800,6.923555908203125,4.734695111000538,3.9741342251017686,3.3645816467940803
1772045527925541600,6.933541748046875,4.981428814899921,4.011873588648438,3.365069722571969
1772045527935527700,6.943527587890625,5.337867340621352,3.9374943472296,3.4489643958330154
1772045527945513700,6.953513671875,5.577314979165792,3.797422444194555,3.404926516664028
1772045527955499800,6.963499755859375,5.484488226908445,3.776146431931853,3.188513132226467
1772045527965485600,6.973485595703125,4.831936172568798,3.974305197754502,3.139118109938502
1772045527975471600,6.9834716796875,4.428920020067691,3.975465181444585,2.4637258627593517
1772045527985456600,6.99345654296875,4.175130552437901,3.677140406517684,2.0795631715491414
1772045527995442700,7.003442626953125,4.047216120186448,3.4942353239282964,2.1205928088128565
1772045528005428700,7.0134287109375,4.056484883791208,3.4247593443810938,2.21476922211349
1772045528015414800,7.023414794921875,4.073067185279727,3.5205320869624614,2.024542418333888
1772045528025400600,7.033400634765625,3.5828432894468305,3.3593542675346133,2.0670406668454406
1772045528035387000,7.043386962890625,3.0274148077756164,2.649392226755619,2.246427512180805
1772045528045372700,7.05337255859375,2.712487273094058,2.038904413424432,2.482906364047527
1772045528055357400,7.063357421875,2.4854396819174287,1.8186945593133568,2.4494275805547834
1772045528065343700,7.07334375,2.30031692327857,1.9109370819419622,2.329657291792333
1772045528075329500,7.08332958984375,2.3905080663353204,2.0692834773361684,2.291987778611481
1772045528085315600,7.093315673828125,2.1669500708401204,2.127123087364435,2.167267758487165
1772045528095300400,7.10330029296875,1.78859665043056,2.0881132654905317,1.9420836230948566
1772045528105286700,7.11328662109375,1.40487147385478,2.007126880891621,1.561550520558655
1772045528115272400,7.1232724609375,1.0566858126938343,2.035717600081861,1.0636419154420493
1772045528125258500,7.133258544921875,0.7660667898386716,2.059427269232273,0.7156129061475396
1772045528135244500,7.14324462890625,0.6151034904330969,2.0692530821979043,0.6242836989715695
1772045528145230600,7.153230712890625,0.7016957322150469,2.0352634265735743,0.7524857159927487
1772045528155216400,7.16321630859375,0.8489882341533899,1.8783175456270575,0.9572878653526306
1772045528165202700,7.17320263671875,0.8878092554569244,1.6633698498278855,1.155466504919529
1772045528175188500,7.1831884765625,0.8099760741919279,1.4225637824118136,1.273382251856476
1772045528185174500,7.193174560546875,0.5632938082188368,1.1325064850926398,1.354622757346928
1772045528195160600,7.20316064453125,0.36571371906697747,0.924729703836143,1.2996899746760726
1772045528205145600,7.2131455078125,0.4070587058901787,0.9477873388186097,1.3166431553035973
1772045528215131600,7.223131591796875,0.5935141744375229,1.1646142724931239,1.3449882291696964
1772045528225117400,7.233117431640625,0.7306020932257175,1.3332567287132142,1.428015471946448
1772045528235103500,7.243103515625,0.7455144156754017,1.4384928806886077,1.6312964030884205
1772045528245089500,7.253089599609375,0.692780604353547,1.4004004659205673,1.7239657728269695
1772045528255075300,7.263075439453125,0.6700093850970268,1.2888406638816,1.6040937772557138
1772045528265061600,7.2730615234375,0.7000304293513298,1.0099699464872478,1.3816238692581653
1772045528275047400,7.28304736328125,0.5979740764558314,0.5855109007239342,1.2193489022433757
1772045528285033500,7.293033447265625,0.39755204187631604,0.25341362005472184,0.971501245752722
1772045528295019500,7.30301953125,0.15448212118148802,0.051119654123485084,0.6095864075120538
1772045528305005600,7.313005615234375,-0.0989484500080347,-0.03585106558203697,0.18748291189894079
1772045528314990600,7.322990478515625,-0.34278058724701405,0.013027239355444907,-0.21641206926330922
1772045528324976400,7.332976318359375,-0.5057090497344732,0.15403613097965715,-0.4553562152650207
1772045528334962700,7.342962646484375,-0.5783470004439354,0.35849867312163114,-0.5759290525820105
1772045528344948500,7.352948486328125,-0.549009262278676,0.5806932713091373,-0.6238912655878812
1772045528354934500,7.3629345703125,-0.33307810840010643,0.7612009373679757,-0.4880396836616099
1772045528364920600,7.372920654296875,-0.10879004506468773,0.7947787973210215,-0.20275705339834094
1772045528374906600,7.38290673828125,0.0672989277690649,0.7475149418428539,0.04207863485999405
1772045528384892400,7.392892333984375,0.18201368670761583,0.718417149913311,0.12784852740839123
1772045528394878700,7.402878662109375,0.23425825320780275,0.738726947492361,0.012188450443744659
1772045528404864500,7.412864501953125,0.23563480225801467,0.7687883237570524,-0.23836459254808723
1772045528414850600,7.4228505859375,0.23433248748779295,0.8136807739287615,-0.4237196255728602
1772045528424836600,7.432836669921875,0.19586919358074664,0.8429170975461602,-0.5514348089251667
1772045528434821600,7.442821533203125,0.16006313618421553,0.8910051288887858,-0.6626712972939014
1772045528444807400,7.452807373046875,0.04000292456448078,0.8945765576347708,-0.7009054586201906
1772045528454793500,7.46279345703125,-0.13127718668282032,0.8797814318239688,-0.6814281663425267
1772045528464779500,7.472779541015625,-0.18220482536554336,0.912390739005804,-0.631948315315321
1772045528474765600,7.482765625,-0.15206512316763401,1.067408282238245,-0.5671811710461974
1772045528484751400,7.49275146484375,-0.08324351587593555,1.2645552406698464,-0.45494135085381565
1772045528494737700,7.502737548828125,-0.0025759879678487778,1.347362410955131,-0.31181305592283604
1772045528504723500,7.512723388671875,0.16203648208379745,1.3804597939148544,-0.16756072539798914
1772045528514709500,7.52270947265625,0.40379181304872036,1.2643290306985377,-0.06188545135296881
1772045528524695600,7.532695556640625,0.6634019496560096,1.0397443225041032,-0.04391023420132696
1772045528534681600,7.542681640625,0.8393968144655227,0.8332105270460247,-0.16914382987096904
1772045528544666600,7.55266650390625,0.9873802212774753,0.7355582543283701,-0.3522450195543468
1772045528554652400,7.56265234375,1.0362012430697678,0.6657900138363242,-0.46318632436878976
1772045528564638700,7.572638671875,0.9518670093476772,0.6331897667437791,-0.4391916277319193
1772045528574624500,7.58262451171875,0.7546493237674236,0.7110203176602721,-0.36416400540694593
1772045528584610600,7.592610595703125,0.5121487273931503,0.8008326905325055,-0.3005198007531464
1772045528594596600,7.6025966796875,0.23376491673290728,0.7373790400147437,-0.2144400385379791
1772045528604582700,7.612582763671875,0.09436112221777439,0.8814178008541464,-0.2801626569010317
1772045528614568400,7.622568359375,0.033959552747011186,1.1299030245959758,-0.4056508849188685
1772045528624554800,7.6325546875,-0.0023123685956001282,1.143505725751817,-0.39395650160238144
1772045528634540500,7.64254052734375,0.0439537080168724,1.1890987254083156,-0.3172312085140496
1772045528644526600,7.652526611328125,0.11608020207285881,1.2096882167115808,-0.22613851350769398
1772045528654512400,7.662512451171875,0.17798165471255778,1.1513397803783416,-0.17516922764033077
1772045528664497700,7.67249755859375,0.3086228815793991,1.078560959893465,-0.1926042004354298
1772045528674483500,7.6824833984375,0.44745676725208755,0.9980907081231474,-0.28353907453157007
1772045528684469500,7.692469482421875,0.596650718897581,0.8628308815449476,-0.3177551593229174
1772045528694455600,7.70245556640625,0.731654817149043,0.7177654080063104,-0.30032237848490473
1772045528704441600,7.712441650390625,0.8584943136453628,0.6692138508051634,-0.27985417547374963
1772045528714427400,7.722427490234375,0.8874562042355537,0.6827569307282567,-0.27602131931260226
1772045528724413700,7.73241357421875,0.7703121723234653,0.6210398947447539,-0.29291736292541026
1772045528734399500,7.7423994140625,0.6575514700621367,0.6222004629567265,-0.3406986664064228
1772045528744385500,7.752385498046875,0.6064823770821094,0.5939136951491236,-0.4108022763326764
1772045528754371600,7.76237158203125,0.5808236196905374,0.6344967576891184,-0.489039581419155
1772045528764357600,7.772357666015625,0.5405857173264026,0.6584656622976064,-0.5293751720041037
1772045528774343400,7.782343505859375,0.41553661137819287,0.5590305978164076,-0.5410967355884612
1772045528784328400,7.792328369140625,0.31635026096105573,0.48709582694023845,-0.5759924001418054
1772045528794314500,7.802314453125,0.28738427871763705,0.4375228177368641,-0.6408611781544983
1772045528804300500,7.812300537109375,0.28674364272654057,0.3054156099706888,-0.7395384830709546
1772045528814286600,7.82228662109375,0.39764030468165873,0.2173319605872035,-0.8946834520753473
1772045528824272600,7.832272705078125,0.4832049569815397,0.13940671712458133,-1.063077924883738
1772045528834258400,7.842258544921875,0.5264718517780304,0.051907297369837756,-1.2143131730984895
1772045528844244500,7.852244384765625,0.49935295870602125,-0.03499620231837034,-1.2291986806064843
1772045528854230500,7.86223046875,0.41526714678704735,-0.0797165107935667,-1.1454311408564448
1772045528864216600,7.872216552734375,0.28833471131026744,-0.07143968083560466,-1.019318351199478
1772045528874202400,7.882202392578125,0.18251169935762881,0.03761895203739404,-0.8976778846509754
1772045528884188400,7.8921884765625,0.12261807940900325,0.1737307192698121,-0.7687873739089817
1772045528894174500,7.902174560546875,0.07480301978886127,0.25273878953307866,-0.634768341172114
1772045528904160500,7.912160400390625,0.033149989929795266,0.28441812238842246,-0.5620430775053799
1772045528914145500,7.9221455078125,-0.07987959240078926,0.17161650359481573,-0.6245769097644835
1772045528924131600,7.932131591796875,-0.1217617548406124,0.08564005562365054,-0.701516576255858
1772045528934117600,7.94211767578125,-0.09155366358160973,0.07263911975324154,-0.7531720908217132
1772045528944103400,7.952103515625,-0.06477496224939823,0.060897828555107114,-0.7663155039027333
1772045528954089700,7.96208984375,0.04352525347173214,0.09364946681708097,-0.717577776479721
1772045528964075500,7.972075439453125,0.20578268482983111,0.10990472830832004,-0.6628718613673001
1772045528974061600,7.9820615234375,0.2942617632716894,0.001978314335644245,-0.611187303370051
1772045528984047400,7.99204736328125,0.27012977705597874,-0.06985065807849168,-0.5990893807539716
1772045528994033700,8.00203369140625,0.21624153500199317,-0.10763473754972219,-0.6097490507278591
1772045529004019500,8.01201953125,0.14203355849683283,-0.08967296440154314,-0.6760472039565444
1772045529014005500,8.022005615234375,0.01919920598864555,-0.07716156561374664,-0.7921262369856238
1772045529023991600,8.031991455078124,-0.09375088136494159,-0.14476853641867637,-0.7656159773312509
1772045529033977600,8.0419775390625,-0.10536883844435214,-0.202291627843678,-0.7668537024326622
1772045529043962400,8.05196240234375,-0.06962824749946595,-0.26043635829836126,-0.7998138688787817
1772045529053949700,8.06194970703125,0.06666530604064465,-0.2525885674074292,-0.8353300034180283
1772045529063935700,8.071935791015624,0.15200959358811378,-0.23441782768368719,-0.7416590554215013
1772045529073921800,8.081921875,0.2079232039898634,-0.25688831042796373,-0.6346924994569272
1772045529083907600,8.091907470703125,0.20298574758768081,-0.24410364765673875,-0.6735179777398705
