time,seconds_elapsed,z,y,x
1772045521065233700,0.073233642578125,-0.15036392211914062,-0.38882696628570557,-0.15319952368736267
1772045521075219000,0.083218994140625,-0.21750780940055847,-0.5380380153656006,-0.1044362410902977
1772045521085204700,0.093204833984375,-0.2842881381511688,-0.6829434037208557,-0.08462321758270264
1772045521095190800,0.103190673828125,-0.3476404547691345,-0.8142894506454468,-0.06743624061346054
1772045521105176800,0.1131767578125,-0.3963797092437744,-0.8777208924293518,-0.05254282057285309
1772045521115163000,0.123162841796875,-0.419750839471817,-0.8742806315422058,-0.029125645756721497
1772045521125148700,0.133148681640625,-0.40453824400901794,-0.8330104947090149,-0.015698827803134918
1772045521135134700,0.143134765625,-0.3504824638366699,-0.7619669437408447,-0.004660558886826038
1772045521145120800,0.153120849609375,-0.2642318606376648,-0.6977002024650574,-0.0007313515525311232
1772045521155105800,0.163105712890625,-0.173848956823349,-0.6214779019355774,-0.01332277711480856
1772045521165091800,0.173091796875,-0.10483776032924652,-0.5415084362030029,-0.04295717552304268
1772045521175078000,0.183077880859375,-0.08158756047487259,-0.4855916500091553,-0.09220008552074432
1772045521185064000,0.19306396484375,-0.09815956652164459,-0.4893497824668884,-0.16432471573352814
1772045521195049700,0.2030498046875,-0.1358526200056076,-0.5203495025634766,-0.25323542952537537
1772045521205036000,0.2130361328125,-0.17178750038146973,-0.5235869884490967,-0.3454272747039795
1772045521215021800,0.223021728515625,-0.17554441094398499,-0.409995973110199,-0.4162258207798004
1772045521225006800,0.2330068359375,-0.1770697385072708,-0.2764450013637543,-0.48091962933540344
1772045521234992600,0.24299267578125,-0.13572975993156433,-0.30579492449760437,-0.5125987529754639
1772045521244979000,0.25297900390625,-0.008613234385848045,-0.541037380695343,-0.5287597179412842
1772045521254964700,0.26296484375,0.059928540140390396,-0.7665013670921326,-0.5838698744773865
1772045521264950800,0.27295068359375,0.060556843876838684,-0.9552855491638184,-0.6225234270095825
1772045521274936800,0.282936767578125,0.026992756873369217,-1.0670210123062134,-0.6114580035209656
1772045521284923000,0.2929228515625,0.01792888157069683,-1.0502455234527588,-0.5521233081817627
1772045521294908000,0.302907958984375,0.08658118546009064,-1.0883476734161377,-0.4722217619419098
1772045521304893700,0.312893798828125,0.24927884340286255,-1.218538761138916,-0.3295579254627228
1772045521314880000,0.3228798828125,0.39993971586227417,-1.4736946821212769,-0.15483617782592773
1772045521324865800,0.33286572265625,0.49590054154396057,-1.7021492719650269,0.01584392786026001
1772045521334851800,0.342851806640625,0.5713052153587341,-1.6639928817749023,0.10262595862150192
1772045521344838000,0.352837890625,0.6064039468765259,-1.3436843156814575,0.03429693356156349
1772045521354824000,0.362823974609375,0.5739178657531738,-1.1318578720092773,-0.02203691378235817
1772045521364808700,0.37280859375,0.5443539023399353,-0.9323862195014954,-0.0324365496635437
1772045521374794800,0.382794677734375,0.5780564546585083,-0.7760735750198364,-0.011982674710452557
1772045521384780800,0.39278076171875,0.6828702688217163,-0.6378118395805359,0.005020126234740019
1772045521394766800,0.402766845703125,0.8386310935020447,-0.6733165979385376,-0.017303822562098503
1772045521404752600,0.412752685546875,1.055694341659546,-0.9512601494789124,-0.10140874981880188
1772045521414739000,0.422739013671875,1.2921696901321411,-1.2530567646026611,-0.21309798955917358
1772045521424724700,0.432724853515625,1.5147045850753784,-1.470950722694397,-0.3171108663082123
1772045521434709800,0.442709716796875,1.7151167392730713,-1.701249122619629,-0.39550793170928955
1772045521444695800,0.45269580078125,1.857195496559143,-1.9380521774291992,-0.39989951252937317
1772045521454681900,0.462681884765625,1.925937533378601,-2.268636703491211,-0.2956109344959259
1772045521464668000,0.47266796875,1.9419701099395752,-2.752418041229248,-0.1169588640332222
1772045521474653700,0.48265380859375,2.0078787803649902,-3.3675270080566406,0.05741294100880623
1772045521484640000,0.492639892578125,2.0772390365600586,-3.9805476665496826,0.2148987203836441
1772045521494625800,0.502625732421875,2.1805667877197266,-4.488440990447998,0.37847432494163513
1772045521504610800,0.51261083984375,2.312021017074585,-4.827889919281006,0.6428622007369995
1772045521514596600,0.5225966796875,2.4027249813079834,-5.0761847496032715,1.0411038398742676
1772045521524583000,0.5325830078125,2.429903268814087,-5.165224552154541,1.482433557510376
1772045521534568700,0.542568603515625,2.4386484622955322,-4.972007751464844,1.7971144914627075
1772045521544554800,0.5525546875,2.378330945968628,-4.561474800109863,1.9010180234909058
1772045521554540800,0.562540771484375,2.2744948863983154,-4.06954288482666,1.818213701248169
1772045521564526800,0.57252685546875,2.1803739070892334,-3.7461016178131104,1.658117413520813
1772045521574511900,0.582511962890625,2.064894437789917,-3.6961758136749268,1.5347238779067993
1772045521584498000,0.592497802734375,1.956906795501709,-3.9804677963256836,1.5192855596542358
1772045521594484000,0.60248388671875,1.858510136604309,-4.406300067901611,1.698891520500183
1772045521604469800,0.6124697265625,1.8377162218093872,-4.722371578216553,1.8984624147415161
1772045521614455800,0.622455810546875,1.8516054153442383,-4.7872419357299805,1.9856759309768677
1772045521624441900,0.63244189453125,1.9123185873031616,-4.635654449462891,1.8769829273223877
1772045521634428000,0.642427978515625,1.9945341348648071,-4.350633144378662,1.6567424535751343
1772045521644412700,0.65241259765625,2.044909954071045,-4.044731140136719,1.4288910627365112
1772045521654399000,0.66239892578125,2.031167984008789,-3.758040428161621,1.2449771165847778
1772045521664384800,0.672384765625,1.9552098512649536,-3.4906697273254395,1.1260162591934204
1772045521674370800,0.682370849609375,1.8884968757629395,-3.241401433944702,1.0839675664901733
1772045521684356900,0.69235693359375,1.8730007410049438,-3.001542091369629,1.0965760946273804
1772045521694343000,0.702343017578125,1.903991460800171,-2.7521941661834717,1.1197940111160278
1772045521704328700,0.71232861328125,1.9445924758911133,-2.478534698486328,1.12218177318573
1772045521714313700,0.722313720703125,1.9664889574050903,-2.1832051277160645,1.0974671840667725
1772045521724300000,0.732300048828125,1.957064151763916,-1.900957465171814,1.0457206964492798
1772045521734285800,0.742285888671875,1.9110959768295288,-1.6556646823883057,0.9507001638412476
1772045521744272000,0.75227197265625,1.8308910131454468,-1.4701930284500122,0.800919234752655
1772045521754258000,0.7622578125,1.7415283918380737,-1.345353603363037,0.6404070854187012
1772045521764244000,0.772243896484375,1.631453514099121,-1.242533564567566,0.4964923560619354
1772045521774228700,0.782228759765625,1.5306323766708374,-1.1477844715118408,0.3859887421131134
1772045521784214800,0.79221484375,1.4558063745498657,-1.0501056909561157,0.3309151530265808
1772045521794200800,0.802200927734375,1.4192397594451904,-0.9204662442207336,0.308817058801651
1772045521804187000,0.812186767578125,1.3986774682998657,-0.7903817296028137,0.28934621810913086
1772045521814172700,0.822172607421875,1.3538873195648193,-0.6907813549041748,0.24110223352909088
1772045521824159000,0.832158935546875,1.2514922618865967,-0.6407010555267334,0.1369161158800125
1772045521834144800,0.842144775390625,1.159347653388977,-0.6006268858909607,0.06997036933898926
1772045521844129800,0.8521298828125,1.0777227878570557,-0.5760751366615295,0.08303971588611603
1772045521854115800,0.86211572265625,1.00444757938385,-0.6115902662277222,0.12803809344768524
1772045521864102000,0.872101806640625,0.9150246977806091,-0.6557876467704773,0.2229604572057724
1772045521874088000,0.882087890625,0.8077203631401062,-0.7017649412155151,0.39376896619796753
1772045521884073700,0.89207373046875,0.6751939654350281,-0.7294096946716309,0.623039960861206
1772045521894059800,0.902059814453125,0.5449443459510803,-0.721401035785675,0.8737353086471558
1772045521904044800,0.912044921875,0.44322606921195984,-0.6849484443664551,1.0884793996810913
1772045521914030800,0.92203076171875,0.36683622002601624,-0.6187134981155396,1.1789624691009521
1772045521924016600,0.9320166015625,0.29460129141807556,-0.5478314757347107,1.0912772417068481
1772045521934003000,0.9420029296875,0.25638309121131897,-0.49218764901161194,0.9138753414154053
1772045521943988700,0.95198876953125,0.23041148483753204,-0.4396674931049347,0.7765488624572754
1772045521953974800,0.961974853515625,0.2716899514198303,-0.3900810182094574,0.7547391653060913
1772045521963960800,0.9719609375,0.4089283347129822,-0.3920021653175354,0.8525295853614807
1772045521973945900,0.98194580078125,0.6282151341438293,-0.4291716516017914,1.0701732635498047
1772045521983932000,0.991931884765625,0.8666685819625854,-0.6149777173995972,1.3611936569213867
1772045521993917700,1.001917724609375,1.0876307487487793,-0.8670810461044312,1.7272992134094238
1772045522003903700,1.01190380859375,1.2627406120300293,-1.1278420686721802,2.126192569732666
1772045522013889800,1.021889892578125,1.3375169038772583,-1.3658889532089233,2.4262194633483887
1772045522023875800,1.031875732421875,1.2723650932312012,-1.5111273527145386,2.5461575984954834
1772045522033860900,1.04186083984375,1.0535017251968384,-1.4888063669204712,2.4718751907348633
1772045522043847000,1.051846923828125,0.7555893659591675,-1.1149741411209106,2.3519318103790283
1772045522053833700,1.061833740234375,0.44384345412254333,-0.4136786162853241,2.3421404361724854
1772045522063819500,1.071819580078125,0.13584542274475098,0.08228807896375656,2.465353012084961
1772045522073805600,1.0818056640625,-0.14149697124958038,0.017023853957653046,2.62500262260437
1772045522083791600,1.09179150390625,-0.4138045012950897,-0.6296593546867371,2.7287893295288086
1772045522093777700,1.101777587890625,-0.6639387011528015,-1.4690968990325928,2.823307752609253
1772045522103762700,1.1117626953125,-0.8485957384109497,-2.0705056190490723,2.919583797454834
1772045522113748500,1.12174853515625,-1.0066415071487427,-2.2379932403564453,2.9642138481140137
1772045522123734800,1.13173486328125,-1.0736538171768188,-2.05815052986145,2.860600709915161
1772045522133720600,1.141720458984375,-1.0535379648208618,-1.9287556409835815,2.565002679824829
1772045522143706600,1.15170654296875,-0.8909059762954712,-1.818525791168213,2.108388900756836
1772045522153692700,1.161692626953125,-0.6231245994567871,-1.727835774421692,1.6392163038253784
1772045522163677700,1.171677734375,-0.3887205421924591,-1.7147595882415771,1.2710447311401367
1772045522173663700,1.181663818359375,-0.26558127999305725,-1.6136664152145386,1.2350348234176636
1772045522183649500,1.1916494140625,-0.28882506489753723,-1.5015078783035278,1.531614899635315
1772045522193635600,1.201635498046875,-0.43699508905410767,-1.3470773696899414,2.0006344318389893
1772045522203621600,1.21162158203125,-0.6527146100997925,-1.2294930219650269,2.471078634262085
1772045522213607400,1.221607421875,-0.874675452709198,-1.1772929430007935,2.8207755088806152
1772045522223593700,1.23159375,-1.0230170488357544,-1.148584246635437,3.028407096862793
1772045522233578800,1.241578857421875,-1.0699288845062256,-1.135560393333435,3.120122194290161
1772045522243564500,1.251564453125,-1.0461952686309814,-1.1286990642547607,3.125788688659668
1772045522253550800,1.26155078125,-0.9839990139007568,-1.131152868270874,3.062114715576172
1772045522263536600,1.27153662109375,-0.9111538529396057,-1.1508914232254028,2.949035167694092
1772045522273522700,1.281522705078125,-0.8643363118171692,-1.1600534915924072,2.807776927947998
1772045522283508500,1.291508544921875,-0.8634545803070068,-1.1252598762512207,2.6543080806732178
1772045522293494800,1.301494873046875,-0.9257949590682983,-1.038328766822815,2.4930179119110107
1772045522303479600,1.3114794921875,-1.0222132205963135,-0.9595854878425598,2.3048622608184814
1772045522313465600,1.321465576171875,-1.1216599941253662,-0.8894767165184021,2.088658094406128
1772045522323451600,1.33145166015625,-1.192564606666565,-0.806390643119812,1.842308521270752
1772045522333437700,1.341437744140625,-1.2283655405044556,-0.744376540184021,1.5708086490631104
1772045522343423500,1.351423583984375,-1.2244577407836914,-0.6902579665184021,1.3368760347366333
1772045522353409800,1.361409912109375,-1.185326099395752,-0.605618953704834,1.1546233892440796
1772045522363394800,1.371394775390625,-1.1701960563659668,-0.4797678291797638,0.9927472472190857
1772045522373380600,1.381380615234375,-1.2150384187698364,-0.30226707458496094,0.8091883659362793
1772045522383366700,1.39136669921875,-1.3179795742034912,-0.08601493388414383,0.5881617069244385
1772045522393352700,1.401352783203125,-1.4229729175567627,0.13407401740550995,0.3356219232082367
1772045522403338800,1.4113388671875,-1.4680594205856323,0.3323855698108673,0.07364467531442642
1772045522413324500,1.421324462890625,-1.4207688570022583,0.45792537927627563,-0.13532692193984985
1772045522423310800,1.431310791015625,-1.2944761514663696,0.485415518283844,-0.2526908218860626
1772045522433295600,1.441295654296875,-1.1195460557937622,0.3875528573989868,-0.2512034475803375
1772045522443281700,1.45128173828125,-0.9378703236579895,0.2060880810022354,-0.14386095106601715
1772045522453267500,1.461267333984375,-0.7938063740730286,0.010807004757225513,0.024104351177811623
1772045522463253800,1.471253662109375,-0.7164821624755859,-0.17918343842029572,0.20760168135166168
1772045522473239600,1.481239501953125,-0.7082095146179199,-0.2971345782279968,0.3673601746559143
1772045522483225600,1.4912255859375,-0.7402411103248596,-0.32983097434043884,0.46114811301231384
1772045522493211600,1.501211669921875,-0.7492295503616333,-0.34163063764572144,0.48543986678123474
1772045522503196700,1.51119677734375,-0.7016230225563049,-0.391495019197464,0.4398599863052368
1772045522513182700,1.5211826171875,-0.6494916081428528,-0.47686609625816345,0.329637348651886
1772045522523168500,1.53116845703125,-0.6050315499305725,-0.5595604777336121,0.1420125961303711
1772045522533154800,1.54115478515625,-0.5000723600387573,-0.5244930386543274,-0.02211190201342106
1772045522543140600,1.551140625,-0.16673152148723602,-0.36001449823379517,-0.03640681505203247
1772045522553126700,1.561126708984375,0.4987034797668457,-0.28290480375289917,0.11486686021089554
1772045522563112700,1.57111279296875,1.328132152557373,-0.28224629163742065,0.4058710038661957
1772045522573097700,1.58109765625,2.07142972946167,-0.3403748571872711,0.7781262993812561
1772045522583083500,1.59108349609375,2.563871383666992,-0.4637733995914459,1.1514254808425903
1772045522593069600,1.601069580078125,2.666926622390747,-0.6019222140312195,1.382315993309021
1772045522603055600,1.6110556640625,2.4237420558929443,-0.7812159657478333,1.4421958923339844
1772045522613041700,1.621041748046875,2.0948374271392822,-0.9076412916183472,1.3828701972961426
1772045522623027500,1.63102734375,1.8880200386047363,-0.8062378764152527,1.251102089881897
1772045522633013800,1.641013671875,1.7783793210983276,-0.4907592535018921,1.0305323600769043
1772045522642998800,1.650998779296875,1.6274548768997192,-0.08324380218982697,0.68570476770401
1772045522652984600,1.660984619140625,1.3988879919052124,0.28083959221839905,0.23406516015529633
1772045522662970600,1.670970703125,1.1515194177627563,0.5455138087272644,-0.18624334037303925
1772045522672956700,1.680956787109375,0.9781984686851501,0.7150136232376099,-0.45195597410202026
1772045522682942700,1.690942626953125,0.9045282006263733,0.7574145197868347,-0.5319477915763855
1772045522692928500,1.700928466796875,0.9321345090866089,0.6614416241645813,-0.43798455595970154
1772045522702914800,1.710914794921875,1.0808050632476807,0.46914270520210266,-0.19828106462955475
1772045522712899600,1.720899658203125,1.290962815284729,0.17334780097007751,0.1590224653482437
1772045522722885600,1.7308857421875,1.4359972476959229,-0.18756473064422607,0.5698643326759338
1772045522732871400,1.740871337890625,1.4213213920593262,-0.6568145155906677,0.9573715925216675
1772045522742857700,1.750857666015625,1.2479746341705322,-1.1753193140029907,1.3102478981018066
1772045522752843500,1.760843505859375,0.9322542548179626,-1.6004674434661865,1.6135263442993164
1772045522762829600,1.77082958984375,0.48291316628456116,-1.8721592426300049,1.7791426181793213
1772045522772815600,1.780815673828125,-0.057605743408203125,-1.9143600463867188,1.7257752418518066
1772045522782800600,1.790800537109375,-0.5987372398376465,-1.7291580438613892,1.399070382118225
1772045522792786700,1.80078662109375,-1.051946997642517,-1.3544862270355225,0.8787904381752014
1772045522802772700,1.810772705078125,-1.363565444946289,-0.8332257866859436,0.3134804964065552
1772045522812758800,1.8207587890625,-1.5113389492034912,-0.3028614819049835,-0.16001862287521362
1772045522822744600,1.83074462890625,-1.532313346862793,0.22348465025424957,-0.47994181513786316
1772045522832730600,1.840730712890625,-1.488045573234558,0.6724893450737,-0.6319444179534912
1772045522842716700,1.850716552734375,-1.461125373840332,1.0527117252349854,-0.6867440342903137
1772045522852702700,1.86070263671875,-1.487795114517212,1.2572225332260132,-0.712433934211731
1772045522862687500,1.8706875,-1.5065289735794067,1.1970860958099365,-0.6634431481361389
1772045522872673800,1.880673828125,-1.4693554639816284,0.9395789504051208,-0.5042223334312439
1772045522882659600,1.89065966796875,-1.4228053092956543,0.5756314396858215,-0.2950623631477356
1772045522892645600,1.900645751953125,-1.419753909111023,0.2214573323726654,-0.11515037715435028
1772045522902631700,1.910631591796875,-1.428633213043213,-0.07009923458099365,-0.014979817904531956
1772045522912617700,1.92061767578125,-1.4330527782440186,-0.22573943436145782,0.006575806997716427
1772045522922603500,1.930603515625,-1.4662458896636963,-0.17197394371032715,-0.04221463203430176
1772045522932588500,1.940588623046875,-1.4649763107299805,-0.018426453694701195,-0.14822441339492798
1772045522942574800,1.950574951171875,-1.3742667436599731,0.14760830998420715,-0.27018070220947266
1772045522952560600,1.960560546875,-1.2140775918960571,0.28300076723098755,-0.36815014481544495
1772045522962546700,1.970546630859375,-1.0068624019622803,0.31420207023620605,-0.38978299498558044
1772045522972532700,1.98053271484375,-0.7850047945976257,0.24152304232120514,-0.29889383912086487
1772045522982518800,1.990518798828125,-0.5690959095954895,0.07500122487545013,-0.1098238155245781
1772045522992504600,2.000504638671875,-0.3891654908657074,-0.14321313798427582,0.13239681720733643
1772045523002491000,2.010490966796875,-0.27080556750297546,-0.34536251425743103,0.3733532428741455
1772045523012475600,2.0204755859375,-0.22951006889343262,-0.4808444380760193,0.5696796178817749
1772045523022461700,2.030461669921875,-0.27190783619880676,-0.49341949820518494,0.7054587602615356
1772045523032447500,2.040447509765625,-0.34504836797714233,-0.4032406210899353,0.7895978689193726
1772045523042433800,2.050433837890625,-0.3816395401954651,-0.2576037347316742,0.8419378995895386
1772045523052419000,2.060419189453125,-0.33939942717552185,-0.12323607504367828,0.8903374075889587
1772045523062405000,2.070405029296875,-0.2191905677318573,-0.0635368749499321,0.9654473662376404
1772045523072391000,2.080390869140625,-0.05502612888813019,-0.08007164299488068,1.0609354972839355
1772045523082377200,2.090377197265625,0.10995987057685852,-0.15363062918186188,1.1702213287353516
1772045523092362200,2.1003623046875,0.22579672932624817,-0.20919135212898254,1.2511662244796753
1772045523102348000,2.11034814453125,0.28665342926979065,-0.2619674503803253,1.2857520580291748
1772045523112334300,2.120334228515625,0.39725741744041443,-0.37495580315589905,1.2696760892868042
1772045523122320100,2.130320068359375,0.6503269672393799,-0.5287649631500244,1.2978404760360718
1772045523132306200,2.14030615234375,1.0037566423416138,-0.6196876764297485,1.3954362869262695
1772045523142292200,2.150292236328125,1.3483591079711914,-0.6165305376052856,1.539936900138855
1772045523152278300,2.1602783203125,1.539621114730835,-0.5802454948425293,1.6374114751815796
1772045523162264000,2.17026416015625,1.5060508251190186,-0.512758195400238,1.5847234725952148
1772045523172249000,2.1802490234375,1.244519829750061,-0.3974023461341858,1.2869857549667358
1772045523182235100,2.190235107421875,0.8971386551856995,-0.1527678519487381,0.808502733707428
1772045523192221200,2.20022119140625,0.6391351222991943,0.27579522132873535,0.25256335735321045
1772045523202207000,2.21020703125,0.5584505200386047,0.7545055747032166,-0.2617802321910858
1772045523212193300,2.220193359375,0.6280480027198792,1.1685621738433838,-0.6500605940818787
1772045523222179000,2.230178955078125,0.7656106948852539,1.418402910232544,-0.8984667062759399
1772045523232165000,2.2401650390625,0.8405446410179138,1.421169638633728,-1.001356601715088
1772045523242151200,2.250151123046875,0.8199031352996826,1.2356425523757935,-0.9341474771499634
1772045523252137200,2.26013720703125,0.7242269515991211,0.9443060755729675,-0.6968622207641602
1772045523262122200,2.270122314453125,0.551044762134552,0.6247857809066772,-0.3325733542442322
1772045523272108000,2.28010791015625,0.27799510955810547,0.3534983694553375,0.10316665470600128
1772045523282094300,2.29009423828125,-0.0326358899474144,0.14171050488948822,0.5444585680961609
1772045523292080000,2.300080078125,-0.27351614832878113,-0.011861211620271206,0.9443960785865784
1772045523302066200,2.310066162109375,-0.41923385858535767,-0.10882482677698135,1.2691335678100586
1772045523312052200,2.32005224609375,-0.5163516402244568,-0.282455176115036,1.4585034847259521
1772045523322038300,2.330038330078125,-0.5746850967407227,-0.5244675874710083,1.4953418970108032
1772045523332024000,2.340024169921875,-0.6115863919258118,-0.781821072101593,1.3706353902816772
1772045523342010400,2.35001025390625,-0.6276344656944275,-0.9499658346176147,1.1077367067337036
1772045523351995100,2.3599951171875,-0.6235222816467285,-0.9458179473876953,0.7764837145805359
1772045523361981200,2.369981201171875,-0.631733238697052,-0.7710440754890442,0.4615940451622009
1772045523371967000,2.379967041015625,-0.6163015365600586,-0.5040014386177063,0.2711569666862488
1772045523381953300,2.389953369140625,-0.5516495108604431,-0.16968578100204468,0.2677646279335022
1772045523391939000,2.39993896484375,-0.465736448764801,0.11098983138799667,0.4588831663131714
1772045523401925000,2.409925048828125,-0.38227757811546326,0.22020697593688965,0.7730369567871094
1772045523411911200,2.4199111328125,-0.34476321935653687,0.15714092552661896,1.1316908597946167
1772045523421897200,2.429897216796875,-0.3645918369293213,-0.04297660291194916,1.452946662902832
1772045523431882200,2.43988232421875,-0.43042120337486267,-0.2968355119228363,1.6990081071853638
1772045523441868000,2.449867919921875,-0.5654937028884888,-0.4898395836353302,1.8364914655685425
1772045523451854300,2.459854248046875,-0.7601955533027649,-0.5710716247558594,1.8525787591934204
1772045523461840100,2.469840087890625,-0.9101418256759644,-0.5700123310089111,1.7709476947784424
1772045523471826200,2.479826171875,-0.9483715295791626,-0.5003365874290466,1.6439188718795776
1772045523481812200,2.489812255859375,-0.9234476685523987,-0.3890317678451538,1.4978998899459839
1772045523491798300,2.49979833984375,-0.8800767660140991,-0.25384438037872314,1.352051854133606
1772045523501784000,2.5097841796875,-0.8439317941665649,-0.11344548314809799,1.1918495893478394
1772045523511770400,2.519770263671875,-0.8438804149627686,0.025898026302456856,0.9939042925834656
1772045523521756200,2.529756103515625,-0.8569551110267639,0.11762119829654694,0.7683086395263672
1772045523531741200,2.5397412109375,-0.8553189039230347,0.1820657104253769,0.537301242351532
1772045523541727000,2.54972705078125,-0.8077923059463501,0.19793730974197388,0.3361392617225647
1772045523551713300,2.55971337890625,-0.6847891211509705,0.13781005144119263,0.2007090151309967
1772045523561699000,2.569698974609375,-0.48803281784057617,0.011487694457173347,0.1579466611146927
1772045523571685000,2.57968505859375,-0.25396305322647095,-0.14170372486114502,0.16550923883914948
1772045523581671200,2.589671142578125,-0.0467643104493618,-0.2685648798942566,0.18278907239437103
1772045523591657200,2.5996572265625,0.10412932932376862,-0.3189718723297119,0.18510068953037262
1772045523601643000,2.60964306640625,0.1779145449399948,-0.32142746448516846,0.12457309663295746
1772045523611629300,2.61962939453125,0.19450870156288147,-0.2587060332298279,0.008325055241584778
1772045523621614300,2.6296142578125,0.21467527747154236,-0.17547892034053802,-0.14429906010627747
1772045523631600000,2.63960009765625,0.2519741952419281,-0.09103833884000778,-0.29621243476867676
1772045523641586200,2.649586181640625,0.3231916129589081,-0.03519614785909653,-0.4267503321170807
1772045523651572200,2.659572265625,0.4224795997142792,0.011338331736624241,-0.527330756187439
1772045523661558300,2.669558349609375,0.5348033905029297,0.01780783385038376,-0.5913125276565552
1772045523671544000,2.6795439453125,0.6427104473114014,0.01053740456700325,-0.6554979085922241
1772045523681530000,2.689530029296875,0.7143380045890808,0.019953463226556778,-0.7153751850128174
1772045523691516200,2.69951611328125,0.756235659122467,0.05010683834552765,-0.7236605286598206
1772045523701502200,2.709502197265625,0.8002740144729614,0.10695011168718338,-0.6398490071296692
1772045523711488300,2.71948828125,0.8694107532501221,0.1270306259393692,-0.44448697566986084
1772045523721473300,2.729473388671875,1.037343978881836,0.052689313888549805,-0.09926175326108932
1772045523731459000,2.739458984375,1.3873376846313477,-0.1665269285440445,0.3385606110095978
1772045523741445000,2.749445068359375,1.8037856817245483,-0.49272796511650085,0.7533524036407471
1772045523751431200,2.75943115234375,2.0378541946411133,-0.8351002335548401,0.9424408078193665
1772045523761417200,2.769417236328125,1.922292709350586,-1.037942886352539,0.7297488451004028
1772045523771403000,2.779403076171875,1.4622018337249756,-0.8656206727027893,0.06527361273765564
1772045523781389300,2.789389404296875,0.8496739864349365,-0.24231642484664917,-0.9029850959777832
1772045523791375000,2.799375,0.31612080335617065,0.7603501081466675,-1.860737919807434
1772045523801361200,2.809361083984375,0.024245377629995346,1.7766696214675903,-2.5805718898773193
1772045523811347200,2.81934716796875,-0.07771801203489304,2.525691032409668,-2.9567809104919434
1772045523821332200,2.829332275390625,-0.07915305346250534,2.8086156845092773,-3.0182859897613525
1772045523831318000,2.839318115234375,-0.06785193085670471,2.5788655281066895,-2.7897086143493652
1772045523841304000,2.849303955078125,-0.10194951295852661,2.0211477279663086,-2.320899486541748
1772045523851290000,2.8592900390625,-0.208077535033226,1.363887071609497,-1.7014275789260864
1772045523861276200,2.869276123046875,-0.35118797421455383,0.7805548310279846,-1.0546226501464844
1772045523871262000,2.879261962890625,-0.493512898683548,0.35729169845581055,-0.49277234077453613
1772045523881248300,2.889248291015625,-0.6303598284721375,0.13181106746196747,-0.09474946558475494
1772045523891234000,2.899234130859375,-0.7562050819396973,0.062338508665561676,0.1265922337770462
1772045523901220000,2.90922021484375,-0.8828801512718201,0.14368343353271484,0.21083596348762512
1772045523911205000,2.919205078125,-0.9904422760009766,0.31061461567878723,0.1828128546476364
1772045523921191200,2.929191162109375,-1.0397497415542603,0.4511801302433014,0.057293571531772614
1772045523931177200,2.93917724609375,-1.029755711555481,0.534548819065094,-0.12428101152181625
1772045523941163000,2.9491630859375,-0.9914066791534424,0.5231105089187622,-0.3374037444591522
1772045523951149300,2.9591494140625,-0.9636040329933167,0.45783746242523193,-0.56698077917099
1772045523961135000,2.969135009765625,-0.9650817513465881,0.3717939555644989,-0.8039814829826355
1772045523971121200,2.97912109375,-0.9951626658439636,0.31440469622612,-1.0121251344680786
1772045523981107200,2.989107177734375,-1.0438836812973022,0.28761017322540283,-1.2017641067504883
1772045523991093200,2.99909326171875,-1.100655436515808,0.3213233947753906,-1.395750641822815
1772045524001079000,3.0090791015625,-1.1429557800292969,0.4021167755126953,-1.6001561880111694
1772045524011064000,3.01906396484375,-1.1269419193267822,0.49880948662757874,-1.818005084991455
1772045524021050000,3.029050048828125,-1.0350236892700195,0.5545406937599182,-2.0553195476531982
1772045524031036200,3.0390361328125,-0.8731357455253601,0.5549066066741943,-2.2965195178985596
1772045524041022000,3.04902197265625,-0.6681531667709351,0.48892056941986084,-2.477337121963501
1772045524051008000,3.059008056640625,-0.45338812470436096,0.3698311746120453,-2.5281293392181396
1772045524060993800,3.068993896484375,-0.2594589293003082,0.2455347776412964,-2.434197425842285
1772045524070980000,3.07897998046875,-0.11091900616884232,0.15988537669181824,-2.233673095703125
1772045524080966000,3.0889658203125,-0.031497735530138016,0.13008849322795868,-1.9642975330352783
1772045524090952000,3.098951904296875,-0.0007805712521076202,0.1483500450849533,-1.638338565826416
1772045524100938000,3.10893798828125,-0.005286014173179865,0.19340780377388,-1.2956897020339966
1772045524110923000,3.118923095703125,-0.04663132131099701,0.22052304446697235,-0.9746748208999634
1772045524120909000,3.128908935546875,-0.10319633781909943,0.1934916228055954,-0.6730977296829224
1772045524130895000,3.13889501953125,-0.14575499296188354,0.11747381836175919,-0.39046815037727356
1772045524140881200,3.148881103515625,-0.16278590261936188,0.02408132515847683,-0.1529168337583542
1772045524150867000,3.158866943359375,-0.15489016473293304,-0.056050531566143036,0.052397701889276505
1772045524160853000,3.16885302734375,-0.14962852001190186,-0.11039727181196213,0.2105558216571808
1772045524170839000,3.178839111328125,-0.15933866798877716,-0.13134384155273438,0.3022383153438568
1772045524180825000,3.1888251953125,-0.17121146619319916,-0.10580936819314957,0.32258912920951843
1772045524190811000,3.198810791015625,-0.1924440562725067,-0.04067884013056755,0.2773505449295044
1772045524200797200,3.208797119140625,-0.17283520102500916,0.06576957553625107,0.20109306275844574
1772045524210782000,3.218781982421875,-0.04610760882496834,0.1697913110256195,0.12424755096435547
1772045524220768000,3.22876806640625,0.23482424020767212,0.22345305979251862,0.08225739747285843
1772045524230754000,3.238754150390625,0.6441521048545837,0.17838971316814423,0.08812195062637329
1772045524240740000,3.248739990234375,1.1052802801132202,0.005036453250795603,0.1439986228942871
1772045524250726000,3.258725830078125,1.5342153310775757,-0.22689399123191833,0.24918149411678314
1772045524260712000,3.2687119140625,1.84554922580719,-0.432637095451355,0.36185595393180847
1772045524270698000,3.278697998046875,1.9948960542678833,-0.5446805357933044,0.45124921202659607
1772045524280684000,3.28868408203125,1.9243489503860474,-0.5007837414741516,0.49199333786964417
1772045524290669800,3.298669921875,1.71967351436615,-0.33987957239151,0.4227580726146698
1772045524300656000,3.30865625,1.5115724802017212,-0.12295350432395935,0.2721174657344818
1772045524310641200,3.31864111328125,1.3874138593673706,0.10533798485994339,0.07633251696825027
1772045524320627000,3.328626953125,1.3006945848464966,0.3149905502796173,-0.134053573012352
1772045524330613200,3.33861328125,1.1972028017044067,0.537651002407074,-0.3808628022670746
1772045524340599000,3.34859912109375,1.059637188911438,0.7892798781394958,-0.6220356822013855
1772045524350585000,3.358585205078125,0.8602614402770996,1.0107128620147705,-0.7845526933670044
1772045524360571000,3.36857080078125,0.6433919668197632,1.170954942703247,-0.8686944842338562
1772045524370557200,3.37855712890625,0.4168480634689331,1.2427875995635986,-0.8723019957542419
1772045524380543000,3.38854296875,0.16498656570911407,1.2098865509033203,-0.819674551486969
1772045524390529000,3.398529052734375,-0.12432887405157089,1.106581449508667,-0.7161220908164978
1772045524400515000,3.40851513671875,-0.3987632393836975,0.9291034936904907,-0.5566023588180542
1772045524410500000,3.4185,-0.5865259766578674,0.7412161231040955,-0.3722143769264221
1772045524420486000,3.42848583984375,-0.7155133485794067,0.4351081848144531,-0.22495917975902557
1772045524430472200,3.43847216796875,-0.769584596157074,0.01836211234331131,-0.18548446893692017
1772045524440458000,3.4484580078125,-0.7338799834251404,-0.3224777281284332,-0.22149869799613953
1772045524450444000,3.458444091796875,-0.6530842185020447,-0.5876986980438232,-0.3173530399799347
1772045524460429800,3.468429931640625,-0.5853452086448669,-0.8011828660964966,-0.4485993981361389
1772045524470416100,3.478416015625,-0.590708315372467,-0.9130441546440125,-0.5802791118621826
1772045524480402000,3.48840185546875,-0.6409515142440796,-0.9084122180938721,-0.72519451379776
1772045524490388000,3.498387939453125,-0.7267420291900635,-0.7484866976737976,-0.8982377052307129
1772045524500374000,3.5083740234375,-0.7792114615440369,-0.4145622253417969,-1.0854016542434692
1772045524510359000,3.518359130859375,-0.7505449652671814,0.02762104570865631,-1.2507590055465698
1772045524520345000,3.528344970703125,-0.6434959769248962,0.4546535313129425,-1.3656752109527588
1772045524530331100,3.5383310546875,-0.4862770438194275,0.7528296113014221,-1.4084404706954956
1772045524540317200,3.548317138671875,-0.3313240110874176,0.8688130974769592,-1.402395486831665
1772045524550303000,3.558302978515625,-0.2021055817604065,0.8421306610107422,-1.348923921585083
1772045524560289000,3.5682890625,-0.10403595119714737,0.7247470021247864,-1.2477911710739136
1772045524570275000,3.578275146484375,-0.03750939294695854,0.5310544967651367,-1.1361891031265259
1772045524580261000,3.58826123046875,-0.012145553715527058,0.3694431781768799,-1.0352296829223633
1772045524590247000,3.598246826171875,-0.035209860652685165,0.2614607810974121,-0.9594361782073975
1772045524600232200,3.608232177734375,-0.06901314109563828,0.18951751291751862,-0.9158865809440613
1772045524610218000,3.618218017578125,-0.09324071556329727,0.13146938383579254,-0.9160943031311035
1772045524620204000,3.6282041015625,-0.1035924106836319,0.08392054587602615,-0.9419689774513245
1772045524630190000,3.638190185546875,-0.0877082571387291,0.07618726044893265,-0.9609397649765015
1772045524640176000,3.648176025390625,-0.051656462252140045,0.11707198619842529,-0.9963730573654175
1772045524650162000,3.658161865234375,-0.03037780523300171,0.19511912763118744,-1.087477207183838
1772045524660148000,3.66814794921875,-0.04162270575761795,0.2865588068962097,-1.2437721490859985
1772045524670134000,3.678134033203125,-0.08736143261194229,0.3833966851234436,-1.4414007663726807
1772045524680120000,3.6881201171875,-0.16477277874946594,0.4712277352809906,-1.6337933540344238
1772045524690105000,3.69810498046875,-0.22688914835453033,0.5089900493621826,-1.7463164329528809
1772045524700091100,3.708091064453125,-0.23360134661197662,0.4572787284851074,-1.7554919719696045
1772045524710077000,3.718076904296875,-0.19072338938713074,0.3361054062843323,-1.685961127281189
1772045524720063000,3.72806298828125,-0.09702602028846741,0.18885046243667603,-1.5957356691360474
1772045524730049000,3.738049072265625,0.027551595121622086,0.06734240800142288,-1.552947759628296
1772045524740035000,3.74803515625,0.136575385928154,0.00795474462211132,-1.5955108404159546
1772045524750020900,3.758020751953125,0.21649524569511414,0.009265286847949028,-1.7331722974777222
1772045524760007200,3.768007080078125,0.27897605299949646,0.04542332887649536,-1.9351557493209839
1772045524769993000,3.777992919921875,0.3411371409893036,0.12143047899007797,-2.146684408187866
1772045524779979000,3.78797900390625,0.42047688364982605,0.22149419784545898,-2.299069881439209
1772045524789964000,3.797964111328125,0.5153501629829407,0.29823556542396545,-2.3604912757873535
1772045524799950000,3.8079501953125,0.6124321818351746,0.3431831896305084,-2.34014892578125
1772045524809936100,3.81793603515625,0.6878582239151001,0.3845252990722656,-2.306065082550049
1772045524819922000,3.827921875,0.726388156414032,0.45458078384399414,-2.326899766921997
1772045524829908200,3.837908203125,0.7160037159919739,0.5602044463157654,-2.4359848499298096
1772045524839894000,3.84789404296875,0.6412380933761597,0.7337075471878052,-2.577199697494507
1772045524849880000,3.857880126953125,0.5059670805931091,0.9650744795799255,-2.7250590324401855
1772045524859866000,3.8678662109375,0.30650031566619873,1.1381810903549194,-2.907637119293213
1772045524869852200,3.87785205078125,0.10281936079263687,1.1697627305984497,-3.1270029544830322
1772045524879837000,3.8878369140625,0.055584102869033813,1.1543885469436646,-3.346444845199585
1772045524889823000,3.897822998046875,0.3187536895275116,1.1585321426391602,-3.495922327041626
1772045524899809000,3.90780908203125,0.8549838662147522,1.138663411140442,-3.539402723312378
1772045524909795000,3.917795166015625,1.4775002002716064,1.002386212348938,-3.4502007961273193
1772045524919780900,3.92778076171875,1.981797218322754,0.8276395797729492,-3.263476848602295
1772045524929767200,3.93776708984375,2.141432523727417,0.785452663898468,-3.1961822509765625
1772045524939753000,3.9477529296875,1.871579885482788,1.0462286472320557,-3.406755208969116
1772045524949739000,3.957739013671875,1.2526005506515503,1.5731046199798584,-3.881984233856201
1772045524959725000,3.96772509765625,0.5011788010597229,2.120011806488037,-4.430676460266113
1772045524969710000,3.9777099609375,-0.13098688423633575,2.5352988243103027,-4.8005051612854
1772045524979696000,3.987696044921875,-0.5494053959846497,2.6284329891204834,-4.900626182556152
1772045524989682000,3.997681884765625,-0.7883026599884033,2.2689568996429443,-4.7291579246521
1772045524999668200,4.007668212890625,-0.8920891880989075,1.5866186618804932,-4.31071138381958
1772045525009654000,4.017654052734375,-0.9336286187171936,0.8535106182098389,-3.7529613971710205
1772045525019640000,4.02764013671875,-0.9111412763595581,0.2789574861526489,-3.198637008666992
1772045525029626000,4.037626220703125,-0.8332453966140747,0.0001548811123939231,-2.7648069858551025
1772045525039612200,4.047612060546875,-0.6871711611747742,-0.009061130695044994,-2.495295763015747
1772045525049598000,4.057597900390625,-0.4896154999732971,0.13844336569309235,-2.4016215801239014
1772045525059583000,4.0675830078125,-0.26142406463623047,0.36033278703689575,-2.4377501010894775
1772045525069568800,4.07756884765625,-0.03375896066427231,0.5780249238014221,-2.5421230792999268
1772045525079554800,4.087554931640625,0.14288456737995148,0.7370280027389526,-2.654001474380493
1772045525089540900,4.097540771484375,0.27202337980270386,0.8298903107643127,-2.7375447750091553
1772045525099527000,4.10752685546875,0.365551620721817,0.8535710573196411,-2.810558319091797
1772045525109512700,4.1175126953125,0.45002281665802,0.7817842364311218,-2.887193202972412
1772045525119499000,4.1274990234375,0.5173550844192505,0.6462869644165039,-2.9635493755340576
1772045525129484800,4.13748486328125,0.5666006803512573,0.5105448365211487,-3.0353238582611084
1772045525139470800,4.147470947265625,0.6047490239143372,0.4071497917175293,-3.103811740875244
1772045525149456000,4.157455810546875,0.639875590801239,0.3624206781387329,-3.1540956497192383
1772045525159442000,4.16744189453125,0.6688880920410156,0.3759385943412781,-3.190180778503418
1772045525169428000,4.177427978515625,0.6637921333312988,0.4533580243587494,-3.1885759830474854
1772045525179413800,4.187413818359375,0.6269651055335999,0.54715895652771,-3.1138081550598145
1772045525189400000,4.197400146484375,0.5677531957626343,0.6049295663833618,-2.955195426940918
1772045525199385900,4.2073857421875,0.49374809861183167,0.6339371800422668,-2.747713088989258
1772045525209372000,4.217371826171875,0.41154351830482483,0.5955700874328613,-2.512033462524414
1772045525219358000,4.22735791015625,0.35363465547561646,0.4942221939563751,-2.282217264175415
1772045525229344000,4.237343994140625,0.30784720182418823,0.3394975960254669,-2.103975296020508
1772045525239329800,4.247329833984375,0.2577820122241974,0.20775559544563293,-1.9832834005355835
1772045525249314800,4.257314697265625,0.20974019169807434,0.14042288064956665,-1.900453805923462
1772045525259300900,4.26730078125,0.15506835281848907,0.135011687874794,-1.8494555950164795
1772045525269287000,4.277286865234375,0.07716529071331024,0.19334396719932556,-1.7997958660125732
1772045525279272700,4.287272705078125,0.008387920446693897,0.29565516114234924,-1.7484896183013916
1772045525289259000,4.297259033203125,-0.03806133568286896,0.411224365234375,-1.7123534679412842
1772045525299244800,4.307244873046875,-0.04632837697863579,0.5077760219573975,-1.6777857542037964
1772045525309230800,4.31723095703125,-0.029380816966295242,0.6121490597724915,-1.658260703086853
1772045525319217000,4.327216796875,0.02272062376141548,0.682963490486145,-1.6769864559173584
1772045525329203000,4.337202880859375,0.08776114135980606,0.7112084031105042,-1.753320336341858
1772045525339188700,4.347188720703125,0.1729128211736679,0.7176626920700073,-1.8782354593276978
1772045525349173800,4.357173828125,0.2901829779148102,0.7174602746963501,-2.0485305786132812
1772045525359160000,4.36716015625,0.4349610209465027,0.7613022923469543,-2.2314319610595703
1772045525369145900,4.377145751953125,0.5950886607170105,0.8409414291381836,-2.3770689964294434
1772045525379132000,4.3871318359375,0.764665961265564,0.9800751209259033,-2.439406394958496
1772045525389118000,4.397117919921875,0.9312362670898438,1.1748582124710083,-2.410922050476074
1772045525399104000,4.40710400390625,1.101402759552002,1.3691350221633911,-2.315596580505371
1772045525409089800,4.41708984375,1.266535758972168,1.5401864051818848,-2.194488525390625
1772045525419075800,4.427075927734375,1.3522237539291382,1.6383440494537354,-2.0659542083740234
1772045525429062000,4.437061767578125,1.3200602531433105,1.5898686647415161,-1.9665679931640625
1772045525439047000,4.447046875,1.240963339805603,1.3873515129089355,-1.8669064044952393
1772045525449032700,4.45703271484375,1.2348703145980835,1.057971715927124,-1.7337145805358887
1772045525459019000,4.46701904296875,1.3958463668823242,0.730986475944519,-1.5581698417663574
1772045525469004800,4.4770048828125,1.655734896659851,0.5774951577186584,-1.3606948852539062
1772045525478990800,4.486990966796875,1.8787692785263062,0.5950673222541809,-1.2030473947525024
1772045525488977000,4.496976806640625,1.9382730722427368,0.6850126385688782,-1.1563440561294556
1772045525498963000,4.506962890625,1.7836925983428955,0.7690629363059998,-1.2529850006103516
1772045525508948700,4.51694873046875,1.48102867603302,0.7952713966369629,-1.4534049034118652
1772045525518935000,4.52693505859375,1.1509065628051758,0.768128514289856,-1.6545355319976807
1772045525528920800,4.5369208984375,0.9123459458351135,0.7443608641624451,-1.7722046375274658
1772045525538905900,4.54690576171875,0.7557951211929321,0.773375391960144,-1.820113182067871
1772045525548892000,4.556891845703125,0.5627521872520447,0.874401867389679,-1.8278326988220215
1772045525558878000,4.5668779296875,0.2815954089164734,0.9953458309173584,-1.845097303390503
1772045525568863700,4.57686376953125,-0.061502568423748016,1.1336859464645386,-1.8746832609176636
1772045525578849800,4.586849853515625,-0.36230260133743286,1.2719764709472656,-1.8922760486602783
1772045525588835800,4.5968359375,-0.5373591184616089,1.3513612747192383,-1.8649523258209229
1772045525598822000,4.60682177734375,-0.5687300562858582,1.3545602560043335,-1.7865742444992065
1772045525608807700,4.6168076171875,-0.49057212471961975,1.2846909761428833,-1.6803700923919678
1772045525618794000,4.6267939453125,-0.3678395748138428,1.1721235513687134,-1.5716273784637451
1772045525628779800,4.63677978515625,-0.23264899849891663,1.0554323196411133,-1.4889492988586426
1772045525638764800,4.646764892578125,-0.08959603309631348,0.9387750625610352,-1.448361873626709
1772045525648750800,4.656750732421875,0.0741521418094635,0.8439732193946838,-1.4394885301589966
1772045525658737000,4.66673681640625,0.2407795637845993,0.7378007769584656,-1.4247010946273804
1772045525668723000,4.676722900390625,0.401684045791626,0.6198906302452087,-1.3848292827606201
1772045525678708700,4.686708740234375,0.522854745388031,0.5147464871406555,-1.2995357513427734
1772045525688695000,4.696695068359375,0.5924527645111084,0.43281278014183044,-1.1765786409378052
1772045525698680800,4.706680908203125,0.592487633228302,0.377692848443985,-1.0502885580062866
1772045525708667000,4.7166669921875,0.5177542567253113,0.37409383058547974,-0.9252156019210815
1772045525718653000,4.72665283203125,0.39713001251220703,0.4412088990211487,-0.8493573069572449
1772045525728639000,4.736638916015625,0.24136118590831757,0.5091195106506348,-0.8657200336456299
1772045525738624800,4.746624755859375,0.0994345024228096,0.5591928958892822,-0.9499747157096863
1772045525748609800,4.75660986328125,0.0028158193454146385,0.6205944418907166,-1.057295560836792
1772045525758595800,4.766595947265625,-0.043381936848163605,0.7022038698196411,-1.144692063331604
1772045525768582000,4.776581787109375,-0.029129497706890106,0.7897464632987976,-1.192596673965454
1772045525778567700,4.786567626953125,0.027953125536441803,0.8611129522323608,-1.1900310516357422
1772045525788554000,4.796553955078125,0.10919524729251862,0.9036106467247009,-1.1472316980361938
1772045525798539800,4.806539794921875,0.19350440800189972,0.879941463470459,-1.0902166366577148
1772045525808525800,4.81652587890625,0.253017783164978,0.8000895380973816,-1.0264462232589722
1772045525818512000,4.826511962890625,0.2852407395839691,0.6885493397712708,-0.9625210762023926
1772045525828498000,4.836497802734375,0.28889939188957214,0.5961935520172119,-0.9084322452545166
1772045525838483700,4.846483642578125,0.2570553123950958,0.5302351713180542,-0.8756594061851501
1772045525848468700,4.85646875,0.2074880301952362,0.511117160320282,-0.8606756925582886
1772045525858455000,4.866455078125,0.18642115592956543,0.5230047106742859,-0.8520932197570801
1772045525868440800,4.87644091796875,0.17603349685668945,0.5439789891242981,-0.834615170955658
1772045525878427000,4.886427001953125,0.18861447274684906,0.5631538033485413,-0.8048389554023743
1772045525888413000,4.896412841796875,0.1948699653148651,0.5737515687942505,-0.7718671560287476
1772045525898399000,4.90639892578125,0.18885734677314758,0.5719752311706543,-0.736268937587738
1772045525908384800,4.916384765625,0.15570472180843353,0.5648837685585022,-0.6982941627502441
1772045525918371000,4.92637109375,0.08644565939903259,0.546127438545227,-0.6635585427284241
1772045525928356900,4.93635693359375,-0.0190551970154047,0.5214952826499939,-0.6276894807815552
1772045525938343000,4.946343017578125,-0.1347174495458603,0.508949875831604,-0.6266692280769348
1772045525948329000,4.956328857421875,-0.20808088779449463,0.5006453394889832,-0.6709298491477966
1772045525958314000,4.96631396484375,-0.21346458792686462,0.4336389899253845,-0.7074086666107178
1772045525968299800,4.9762998046875,-0.13469333946704865,0.25206467509269714,-0.7029292583465576
1772045525978285800,4.986285888671875,0.010138009674847126,-0.05804938077926636,-0.6322948932647705
1772045525988271900,4.99627197265625,0.16952472925186157,-0.42700716853141785,-0.47235286235809326
1772045525998258000,5.0062578125,0.33513134717941284,-0.7831669449806213,-0.2534652054309845
1772045526008243700,5.01624365234375,0.4895840287208557,-1.0287764072418213,-0.011455229483544827
1772045526018230000,5.02622998046875,0.6167740821838379,-1.0941797494888306,0.21229547262191772
1772045526028215800,5.0362158203125,0.6789641976356506,-1.0917847156524658,0.3635137677192688
1772045526038201900,5.046201904296875,0.6716659069061279,-1.0156760215759277,0.3928110897541046
1772045526048188000,5.05618798828125,0.563036322593689,-0.848583459854126,0.2659876346588135
1772045526058174200,5.06617431640625,0.3918626010417938,-0.6131258606910706,0.013825133442878723
1772045526068160000,5.076159912109375,0.2240014374256134,-0.3350108563899994,-0.29932719469070435
1772045526078145000,5.08614501953125,0.10345097631216049,-0.05095742270350456,-0.6400147676467896
1772045526088131000,5.096131103515625,0.010823572054505348,0.2613602876663208,-0.9442878365516663
1772045526098117000,5.1061171875,-0.07776983827352524,0.520926833152771,-1.151402235031128
1772045526108103000,5.11610302734375,-0.16722674667835236,0.6838060617446899,-1.2228537797927856
1772045526118089000,5.1260888671875,-0.25522860884666443,0.7214954495429993,-1.191548466682434
1772045526128075000,5.136074951171875,-0.340029776096344,0.7022485136985779,-1.0989866256713867
1772045526138061000,5.14606103515625,-0.4115960896015167,0.64403235912323,-1.0176167488098145
1772045526148046800,5.156046875,-0.4574549198150635,0.5886122584342957,-1.0026023387908936
1772045526158033200,5.166033203125,-0.48229724168777466,0.5966482758522034,-1.0895764827728271
1772045526168019000,5.17601904296875,-0.508651077747345,0.7120465040206909,-1.2568604946136475
1772045526178005000,5.1860048828125,-0.5215421319007874,0.904688835144043,-1.464524507522583
1772045526187990000,5.195989990234375,-0.5033165216445923,1.1343086957931519,-1.6622600555419922
1772045526197976000,5.20597607421875,-0.4507118761539459,1.352685570716858,-1.810476303100586
1772045526207962000,5.215962158203125,-0.3540516495704651,1.4808698892593384,-1.8768459558486938
1772045526217948000,5.225947998046875,-0.23393240571022034,1.4993443489074707,-1.838224172592163
1772045526227934200,5.235934326171875,-0.13368277251720428,1.4030386209487915,-1.7433991432189941
1772045526237920000,5.245919921875,-0.0744248479604721,1.2095714807510376,-1.6128075122833252
1772045526247906000,5.255906005859375,-0.07260005176067352,0.9557659029960632,-1.4453381299972534
1772045526257892000,5.26589208984375,-0.09609980136156082,0.6602014303207397,-1.2197855710983276
1772045526267878100,5.275878173828125,-0.11213842034339905,0.39873945713043213,-0.9745671153068542
1772045526277864000,5.285864013671875,-0.12054528295993805,0.1973762959241867,-0.7529237270355225
1772045526287850200,5.295850341796875,-0.11767999082803726,0.08008350431919098,-0.5938608646392822
1772045526297836000,5.3058359375,-0.088045634329319,0.04396582394838333,-0.5139312148094177
1772045526307822000,5.315822021484375,-0.04967294633388519,0.08482937514781952,-0.5108264684677124
1772045526317806800,5.325806884765625,0.005669779144227505,0.1611688882112503,-0.5603216886520386
1772045526327793200,5.335793212890625,0.08533717691898346,0.22571058571338654,-0.6398330330848694
1772045526337779000,5.345779052734375,0.1882275640964508,0.2679748833179474,-0.7160991430282593
1772045526347765000,5.355764892578125,0.2862337827682495,0.2712676227092743,-0.7716958522796631
1772045526357751000,5.3657509765625,0.38093844056129456,0.23374710977077484,-0.7831645011901855
1772045526367736000,5.375736083984375,0.43321841955184937,0.1772119253873825,-0.7659298777580261
1772045526377722000,5.38572216796875,0.449201762676239,0.09731351584196091,-0.7438063025474548
1772045526387708000,5.3957080078125,0.45272061228752136,0.023388421162962914,-0.7280694246292114
1772045526397694200,5.405694091796875,0.4439547061920166,-0.024717826396226883,-0.7172912955284119
1772045526407680000,5.415679931640625,0.44089606404304504,-0.05202055349946022,-0.7197746634483337
1772045526417666000,5.425666015625,0.4497125744819641,-0.029506783932447433,-0.7323981523513794
1772045526427652000,5.435652099609375,0.45989546179771423,0.039694126695394516,-0.7726430296897888
1772045526437638100,5.44563818359375,0.47404390573501587,0.13846465945243835,-0.8341505527496338
1772045526447624000,5.4556240234375,0.47380396723747253,0.24489523470401764,-0.9073888063430786
1772045526457610200,5.4656103515625,0.4493466913700104,0.34832489490509033,-0.9828307628631592
1772045526467596000,5.475595947265625,0.39815887808799744,0.4293840825557709,-1.0473896265029907
1772045526477582000,5.48558203125,0.3329920768737793,0.4907172918319702,-1.0847651958465576
1772045526487568100,5.495568115234375,0.2840903103351593,0.5362272262573242,-1.1104545593261719
1772045526497553200,5.50555322265625,0.23835405707359314,0.5925835967063904,-1.1441097259521484
1772045526507539000,5.5155390625,0.1895601451396942,0.6616860032081604,-1.2072885036468506
1772045526517525000,5.52552490234375,0.141187846660614,0.7338559627532959,-1.3175725936889648
1772045526527511000,5.535510986328125,0.10195549577474594,0.7781264781951904,-1.458775520324707
1772045526537497000,5.5454970703125,0.13424065709114075,0.7175969481468201,-1.5837141275405884
1772045526547483000,5.55548291015625,0.3013175427913666,0.5134722590446472,-1.6222785711288452
1772045526557469200,5.56546923828125,0.5999534130096436,0.2170427143573761,-1.4968340396881104
1772045526567455000,5.575455078125,0.988761842250824,-0.1305043250322342,-1.1407649517059326
1772045526577441000,5.58544091796875,1.356085181236267,-0.4479336440563202,-0.5777448415756226
1772045526587427000,5.595427001953125,1.6018425226211548,-0.6414727568626404,0.038224078714847565
1772045526597413000,5.6054130859375,1.6238524913787842,-0.7219303250312805,0.5254631042480469
1772045526607399000,5.61539892578125,1.4220179319381714,-0.7170923948287964,0.7162138819694519
1772045526617385000,5.625385009765625,0.964398205280304,-0.587501049041748,0.47305193543434143
1772045526627370200,5.635370361328125,0.2929958403110504,-0.31214967370033264,-0.18012294173240662
1772045526637356000,5.64535595703125,-0.3326394855976105,0.11724381148815155,-1.0125871896743774
1772045526647342000,5.655342041015625,-0.7375656366348267,0.6762892007827759,-1.7687627077102661
1772045526657328000,5.665328125,-0.9218748211860657,1.2091519832611084,-2.3034188747406006
1772045526667314200,5.675314208984375,-0.936196506023407,1.5737712383270264,-2.5882482528686523
1772045526677300000,5.685300048828125,-0.8295555114746094,1.7247601747512817,-2.6445906162261963
1772045526687286000,5.6952861328125,-0.6952248811721802,1.6880931854248047,-2.502293109893799
1772045526697272000,5.70527197265625,-0.5787251591682434,1.5553995370864868,-2.225912570953369
1772045526707258000,5.715258056640625,-0.49548378586769104,1.4109861850738525,-1.905447244644165
1772045526717244000,5.725243896484375,-0.410030335187912,1.3131989240646362,-1.617491364479065
1772045526727230000,5.73522998046875,-0.2876913845539093,1.2831635475158691,-1.4287976026535034
1772045526737216000,5.745216064453125,-0.13514444231987,1.3182458877563477,-1.357908844947815
1772045526747201800,5.755201904296875,0.024080626666545868,1.4127355813980103,-1.3728805780410767
1772045526757188000,5.76518798828125,0.1669786274433136,1.5321033000946045,-1.4277782440185547
1772045526767174000,5.775173828125,0.2663062810897827,1.6417088508605957,-1.4973804950714111
1772045526777160000,5.785159912109375,0.32541173696517944,1.6982018947601318,-1.558534860610962
1772045526787146000,5.79514599609375,0.36834296584129333,1.6681764125823975,-1.598177433013916
1772045526797132000,5.805132080078125,0.3713088035583496,1.5503512620925903,-1.5895295143127441
1772045526807117800,5.815117919921875,0.33064499497413635,1.3679779767990112,-1.5066545009613037
1772045526817104100,5.825104248046875,0.27534112334251404,1.158461332321167,-1.3901938199996948
1772045526827090000,5.83508984375,0.19639091193675995,0.9850112199783325,-1.2994455099105835
1772045526837076000,5.845075927734375,0.12102153152227402,0.881019651889801,-1.2730097770690918
1772045526847062000,5.85506201171875,0.07010535895824432,0.8578006625175476,-1.3112950325012207
1772045526857048000,5.865048095703125,0.07440385967493057,0.9208991527557373,-1.3875640630722046
1772045526867033000,5.875033203125,0.11767223477363586,1.051779866218567,-1.4814929962158203
1772045526877019000,5.885018798828125,0.17559245228767395,1.2173829078674316,-1.5612244606018066
1772045526887005200,5.895005126953125,0.23969605565071106,1.3589954376220703,-1.6181838512420654
1772045526896991000,5.904990966796875,0.29006829857826233,1.4370816946029663,-1.6408158540725708
1772045526906977000,5.91497705078125,0.3103322684764862,1.430141806602478,-1.6256744861602783
1772045526916963000,5.924963134765625,0.30205538868904114,1.3514212369918823,-1.586597204208374
1772045526926949000,5.93494921875,0.2437252253293991,1.2431573867797852,-1.5504679679870605
1772045526936935000,5.944934814453125,0.16080287098884583,1.132920503616333,-1.5202678442001343
1772045526946921200,5.954921142578125,0.10112994909286499,1.048723578453064,-1.501615047454834
1772045526956907000,5.964906982421875,0.055995695292949677,1.0171719789505005,-1.502127766609192
1772045526966893000,5.97489306640625,0.018538597971200943,1.0182678699493408,-1.5303064584732056
1772045526976879000,5.984879150390625,0.007189993746578693,1.0687726736068726,-1.585949182510376
1772045526986865200,5.994865234375,0.018941190093755722,1.1534968614578247,-1.6784114837646484
1772045526996851000,6.004850830078125,0.07668129354715347,1.2845563888549805,-1.8062914609909058
1772045527006836000,6.0148359375,0.1649341881275177,1.4272948503494263,-1.9222582578659058
1772045527016822000,6.024822021484375,0.2343744933605194,1.490777850151062,-2.000507116317749
1772045527026808000,6.03480810546875,0.2984379231929779,1.3410967588424683,-2.018916130065918
1772045527036793900,6.0447939453125,0.44539886713027954,1.0308570861816406,-1.952736258506775
1772045527046780200,6.0547802734375,0.7022586464881897,0.658221960067749,-1.8007193803787231
1772045527056766700,6.0647666015625,1.0335755348205566,0.23187996447086334,-1.6175278425216675
1772045527066752800,6.074752685546875,1.3537300825119019,-0.13806773722171783,-1.4501646757125854
1772045527076738600,6.084738525390625,1.5684607028961182,-0.3480245769023895,-1.3571161031723022
1772045527086724900,6.094724853515625,1.613305926322937,-0.3831154406070709,-1.3441214561462402
1772045527096710700,6.104710693359375,1.4368350505828857,-0.20799468457698822,-1.4279123544692993
1772045527106696700,6.11469677734375,0.9919286370277405,0.16549287736415863,-1.622483730316162
1772045527116682800,6.124682861328125,0.3855490982532501,0.6408220529556274,-1.9182056188583374
1772045527126668800,6.134668701171875,-0.17378583550453186,1.127987027168274,-2.2311909198760986
1772045527136653600,6.144653564453125,-0.5518741011619568,1.5401827096939087,-2.4564285278320312
1772045527146639600,6.1546396484375,-0.7407710552215576,1.7912564277648926,-2.5433473587036133
1772045527156625700,6.164625732421875,-0.7934982180595398,1.8067946434020996,-2.463982582092285
1772045527166611700,6.17461181640625,-0.7685539722442627,1.628720998764038,-2.2018091678619385
1772045527176597500,6.184597412109375,-0.7436653971672058,1.3338958024978638,-1.8054702281951904
1772045527186583800,6.194583740234375,-0.757095456123352,0.9776423573493958,-1.4043492078781128
1772045527196569600,6.204569580078125,-0.7969739437103271,0.6343114972114563,-1.1110183000564575
1772045527206555600,6.2145556640625,-0.822848379611969,0.39046844840049744,-0.9608585238456726
1772045527216541700,6.224541748046875,-0.8054059147834778,0.29474082589149475,-0.9483121633529663
1772045527226527700,6.23452783203125,-0.7428157925605774,0.3496546745300293,-1.0350202322006226
1772045527236513500,6.244513427734375,-0.6217725276947021,0.5314247608184814,-1.1904700994491577
1772045527246499800,6.254499755859375,-0.45409372448921204,0.7625522613525391,-1.3833417892456055
1772045527256485600,6.264485595703125,-0.28248143196105957,0.9899513125419617,-1.5898538827896118
1772045527266470700,6.274470703125,-0.1487281620502472,1.1742866039276123,-1.7862162590026855
1772045527276456700,6.284456787109375,-0.059615056961774826,1.2810040712356567,-1.9443321228027344
1772045527286442800,6.29444287109375,-0.013972473330795765,1.3417119979858398,-2.047945976257324
1772045527296428800,6.3044287109375,0.006326231174170971,1.3272396326065063,-2.095028877258301
1772045527306414600,6.31441455078125,0.008744648657739162,1.2580757141113281,-2.111711263656616
1772045527316400600,6.324400634765625,0.015734516084194183,1.1629387140274048,-2.0968520641326904
1772045527326386700,6.33438671875,0.020668022334575653,1.0601308345794678,-2.0605201721191406
1772045527336372700,6.344372802734375,0.03477223217487335,0.9871940016746521,-2.0003416538238525
1772045527346358800,6.35435888671875,0.059158794581890106,0.9558398127555847,-1.91757333278656
1772045527356344600,6.364344482421875,0.09107661247253418,0.9433582425117493,-1.820298433303833
1772045527366330600,6.37433056640625,0.12320125102996826,0.9439555406570435,-1.6984736919403076
1772045527376316700,6.384316650390625,0.14749494194984436,0.970681369304657,-1.5450934171676636
1772045527386302700,6.394302734375,0.1595340222120285,0.9885684847831726,-1.373952031135559
1772045527396288500,6.40428857421875,0.1575518101453781,0.9728330373764038,-1.1965385675430298
1772045527406273500,6.4142734375,0.1387357860803604,0.8901480436325073,-1.0274800062179565
1772045527416259800,6.424259765625,0.10013258457183838,0.7645601630210876,-0.8587561249732971
1772045527426245600,6.43424560546875,0.05713186040520668,0.6385458111763,-0.6800811886787415
1772045527436231700,6.444231689453125,0.009095641784369946,0.5156863927841187,-0.49898338317871094
1772045527446217700,6.4542177734375,-0.042091380804777145,0.39518046379089355,-0.33336004614830017
1772045527456203800,6.464203857421875,-0.08028243482112885,0.2691385746002197,-0.1776605248451233
1772045527466189600,6.474189453125,-0.12262243032455444,0.14706699550151825,-0.04974331334233284
1772045527476176000,6.48417578125,-0.15021349489688873,0.008073834702372551,0.04285323992371559
1772045527486161700,6.49416162109375,-0.14991682767868042,-0.13000868260860443,0.08218173682689667
1772045527496147700,6.504147705078125,-0.14723899960517883,-0.25573021173477173,0.08588587492704391
1772045527506133800,6.5141337890625,-0.1630440652370453,-0.3825070559978485,0.06364794820547104
1772045527516119800,6.524119873046875,-0.21828655898571014,-0.49157699942588806,0.04164416342973709
1772045527526104600,6.5341044921875,-0.3034352660179138,-0.5196349620819092,0.015967829152941704
1772045527536090600,6.544090576171875,-0.40449297428131104,-0.4724089205265045,-0.019452877342700958
1772045527546076700,6.55407666015625,-0.47674480080604553,-0.37481045722961426,-0.04364157095551491
1772045527556062700,6.564062744140625,-0.48930472135543823,-0.3057326376438141,-0.038711708039045334
1772045527566048500,6.574048583984375,-0.42111021280288696,-0.3324553072452545,0.05957438051700592
1772045527576034800,6.584034912109375,-0.30487656593322754,-0.4628535509109497,0.28304874897003174
1772045527586020600,6.5940205078125,-0.19779644906520844,-0.6874117851257324,0.5624535083770752
1772045527596006700,6.604006591796875,-0.18300041556358337,-0.9809379577636719,0.7927275896072388
1772045527605992700,6.61399267578125,-0.3068920075893402,-1.2824854850769043,0.9395170211791992
1772045527615978800,6.623978759765625,-0.5774794816970825,-1.494078516960144,0.9731400012969971
1772045527625964500,6.633964599609375,-0.9601594805717468,-1.4586763381958008,0.8234951496124268
1772045527635950800,6.643950927734375,-1.412591814994812,-1.1414973735809326,0.40726885199546814
1772045527645935900,6.653935791015625,-1.9166253805160522,-0.5828965902328491,-0.2565365731716156
1772045527655921700,6.663921630859375,-2.329942226409912,0.1578379124403,-0.9949340224266052
1772045527665907700,6.67390771484375,-2.558558464050293,0.9140986800193787,-1.6143295764923096
1772045527675893800,6.683893798828125,-2.633333921432495,1.49782395362854,-2.0153939723968506
1772045527685879800,6.6938798828125,-2.651297092437744,1.8663787841796875,-2.1672797203063965
1772045527695865600,6.703865478515625,-2.6545472145080566,2.0223865509033203,-2.110419273376465
1772045527705852000,6.713851806640625,-2.675952911376953,2.066755771636963,-1.9477859735488892
1772045527715837700,6.723837646484375,-2.719744920730591,2.115020513534546,-1.781861662864685
1772045527725823700,6.73382373046875,-2.7653472423553467,2.297316074371338,-1.6528773307800293
1772045527735809800,6.743809814453125,-2.753854274749756,2.687933921813965,-1.5505688190460205
1772045527745795800,6.7537958984375,-2.671372890472412,3.3224754333496094,-1.4324400424957275
1772045527755781600,6.76378173828125,-2.6922895908355713,3.9283740520477295,-1.424536108970642
1772045527765766700,6.7737666015625,-2.747492790222168,4.503516674041748,-1.3771350383758545
1772045527775752700,6.783752685546875,-2.7777371406555176,5.023218154907227,-1.167470932006836
1772045527785738800,6.79373876953125,-2.774151086807251,5.498797416687012,-0.8537793755531311
1772045527795724500,6.803724609375,-2.714998960494995,5.810272693634033,-0.5332533717155457
1772045527805710800,6.8137109375,-2.596419095993042,5.968436241149902,-0.23813384771347046
1772045527815696600,6.823696533203125,-2.462235927581787,6.050558090209961,0.018539872020483017
1772045527825682700,6.8336826171875,-2.3145651817321777,5.999301910400391,0.23935826122760773
1772045527835668700,6.843668701171875,-2.149364709854126,5.814182281494141,0.4417226314544678
1772045527845654800,6.85365478515625,-1.9742920398712158,5.555295467376709,0.6283712983131409
1772045527855640600,6.863640625,-1.8025187253952026,5.23237419128418,0.8056357502937317
1772045527865626600,6.873626708984375,-1.6439425945281982,4.913388252258301,0.9505119919776917
1772045527875612000,6.88361181640625,-1.5288883447647095,4.611179828643799,1.032657265663147
1772045527885597700,6.89359765625,-1.4105256795883179,4.306886672973633,1.0672621726989746
1772045527895583700,6.903583740234375,-1.2580912113189697,3.9845240116119385,1.078953504562378
1772045527905569800,6.91356982421875,-1.0704617500305176,3.680931568145752,1.0655421018600464
1772045527915555800,6.923555908203125,-0.8805854916572571,3.4133195877075195,1.0500831604003906
1772045527925541600,6.933541748046875,-0.7019568681716919,3.135500192642212,1.0067611932754517
1772045527935527700,6.943527587890625,-0.5592743158340454,2.8489327430725098,0.9251911640167236
1772045527945513700,6.953513671875,-0.4531521201133728,2.6379806995391846,0.8107474446296692
1772045527955499800,6.963499755859375,-0.3731100261211395,2.695819616317749,0.6473824977874756
1772045527965485600,6.973485595703125,-0.321590393781662,2.657317638397217,0.5782663226127625
1772045527975471600,6.9834716796875,-0.28881731629371643,2.5620484352111816,0.5719004273414612
1772045527985456600,6.99345654296875,-0.24145537614822388,2.4421119689941406,0.5984638333320618
1772045527995442700,7.003442626953125,-0.1910167783498764,2.2504303455352783,0.582323431968689
1772045528005428700,7.0134287109375,-0.17647910118103027,2.0186798572540283,0.5039239525794983
1772045528015414800,7.023414794921875,-0.16986967623233795,1.750762939453125,0.45030462741851807
1772045528025400600,7.033400634765625,-0.13270606100559235,1.473264217376709,0.46150004863739014
1772045528035387000,7.043386962890625,-0.11926738172769547,1.3691083192825317,0.5161044001579285
1772045528045372700,7.05337255859375,-0.11130692809820175,1.2462042570114136,0.5277696251869202
1772045528055357400,7.063357421875,-0.009996244683861732,1.104378342628479,0.4014724791049957
1772045528065343700,7.07334375,0.12593363225460052,0.8630049228668213,0.2512432932853699
1772045528075329500,7.08332958984375,0.2581306993961334,0.7946555018424988,0.16189995408058167
1772045528085315600,7.093315673828125,0.36987799406051636,0.8843976259231567,0.12791748344898224
1772045528095300400,7.10330029296875,0.4570692181587219,1.0671604871749878,0.11786292493343353
1772045528105286700,7.11328662109375,0.50712651014328,1.257742166519165,0.11466526985168457
1772045528115272400,7.1232724609375,0.512924075126648,1.376461148262024,0.0934620276093483
1772045528125258500,7.133258544921875,0.496479868888855,1.4254252910614014,0.04029574990272522
1772045528135244500,7.14324462890625,0.4910503923892975,1.420167088508606,-0.03848741203546524
1772045528145230600,7.153230712890625,0.4967157542705536,1.4207854270935059,-0.10962284356355667
1772045528155216400,7.16321630859375,0.5238048434257507,1.4896429777145386,-0.1348111927509308
1772045528165202700,7.17320263671875,0.5591154098510742,1.6060065031051636,-0.10682163387537003
1772045528175188500,7.1831884765625,0.6013593077659607,1.709836721420288,-0.03420554846525192
1772045528185174500,7.193174560546875,0.6322975158691406,1.7416075468063354,0.04677079617977142
1772045528195160600,7.20316064453125,0.6681198477745056,1.6841208934783936,0.10552959144115448
1772045528205145600,7.2131455078125,0.7073548436164856,1.5594061613082886,0.12252695113420486
1772045528215131600,7.223131591796875,0.7518805861473083,1.4427337646484375,0.1278885006904602
1772045528225117400,7.233117431640625,0.8182910084724426,1.3911446332931519,0.12147855013608932
1772045528235103500,7.243103515625,0.9020925164222717,1.397188663482666,0.10790032148361206
1772045528245089500,7.253089599609375,0.9912271499633789,1.4036612510681152,0.10260249674320221
1772045528255075300,7.263075439453125,1.0656079053878784,1.3666694164276123,0.09350375086069107
1772045528265061600,7.2730615234375,1.1220029592514038,1.2821619510650635,0.09617836028337479
1772045528275047400,7.28304736328125,1.159096360206604,1.1409035921096802,0.1062326729297638
1772045528285033500,7.293033447265625,1.1557320356369019,0.9798299670219421,0.11124581098556519
1772045528295019500,7.30301953125,1.1178301572799683,0.8331674933433533,0.11634024977684021
1772045528305005600,7.313005615234375,1.0589392185211182,0.7360907793045044,0.14309410750865936
1772045528314990600,7.322990478515625,0.9822186231613159,0.694257915019989,0.1907636523246765
1772045528324976400,7.332976318359375,0.8911907076835632,0.6570104360580444,0.25135937333106995
1772045528334962700,7.342962646484375,0.8060294985771179,0.5961159467697144,0.3019281029701233
1772045528344948500,7.352948486328125,0.7524347305297852,0.5058773756027222,0.33325672149658203
1772045528354934500,7.3629345703125,0.7394344210624695,0.42493632435798645,0.34452852606773376
1772045528364920600,7.372920654296875,0.772637128829956,0.3569706082344055,0.32494762539863586
1772045528374906600,7.38290673828125,0.8274632096290588,0.3088064193725586,0.26636675000190735
1772045528384892400,7.392892333984375,0.8841539025306702,0.30869030952453613,0.19924338161945343
1772045528394878700,7.402878662109375,0.9214540123939514,0.34170374274253845,0.1376710832118988
1772045528404864500,7.412864501953125,0.9372856616973877,0.38544270396232605,0.0937662124633789
1772045528414850600,7.4228505859375,0.9360383749008179,0.40458372235298157,0.07146342843770981
1772045528424836600,7.432836669921875,0.9311608076095581,0.3735983669757843,0.08136399835348129
1772045528434821600,7.442821533203125,0.9141266345977783,0.316799134016037,0.11092822998762131
1772045528444807400,7.452807373046875,0.9041552543640137,0.26959913969039917,0.15661077201366425
1772045528454793500,7.46279345703125,0.904818058013916,0.26625120639801025,0.21545568108558655
1772045528464779500,7.472779541015625,0.9255310893058777,0.31959378719329834,0.2834845185279846
1772045528474765600,7.482765625,0.9767394065856934,0.42720717191696167,0.3620103895664215
1772045528484751400,7.49275146484375,1.054080843925476,0.5638965368270874,0.4504372179508209
1772045528494737700,7.502737548828125,1.1537691354751587,0.693845272064209,0.5228288769721985
1772045528504723500,7.512723388671875,1.2477480173110962,0.7746634483337402,0.5583823323249817
1772045528514709500,7.52270947265625,1.3219420909881592,0.8093224167823792,0.5494480133056641
1772045528524695600,7.532695556640625,1.3632400035858154,0.8159968256950378,0.5074321627616882
1772045528534681600,7.542681640625,1.3668287992477417,0.815808117389679,0.4483308792114258
1772045528544666600,7.55266650390625,1.340208649635315,0.7880997657775879,0.37946873903274536
1772045528554652400,7.56265234375,1.3030574321746826,0.7115503549575806,0.3123033940792084
1772045528564638700,7.572638671875,1.2682613134384155,0.5914114117622375,0.27778589725494385
1772045528574624500,7.58262451171875,1.2455549240112305,0.4587864875793457,0.2647172808647156
1772045528584610600,7.592610595703125,1.2405434846878052,0.38543689250946045,0.2747534215450287
1772045528594596600,7.6025966796875,1.2506400346755981,0.3754889965057373,0.28118249773979187
1772045528604582700,7.612582763671875,1.2650564908981323,0.4224413335323334,0.2717447876930237
1772045528614568400,7.622568359375,1.2806626558303833,0.5311209559440613,0.28857555985450745
1772045528624554800,7.6325546875,1.31134033203125,0.6336708068847656,0.3161797523498535
1772045528634540500,7.64254052734375,1.3498491048812866,0.6859726309776306,0.33866333961486816
1772045528644526600,7.652526611328125,1.3967729806900024,0.712325930595398,0.3517109453678131
1772045528654512400,7.662512451171875,1.4360766410827637,0.7304377555847168,0.35372886061668396
1772045528664497700,7.67249755859375,1.4565284252166748,0.7380959391593933,0.3317393958568573
1772045528674483500,7.6824833984375,1.4692274332046509,0.7368583679199219,0.2921934425830841
1772045528684469500,7.692469482421875,1.478399634361267,0.7124363780021667,0.2448059618473053
1772045528694455600,7.70245556640625,1.4761141538619995,0.648802638053894,0.2015666663646698
1772045528704441600,7.712441650390625,1.4688670635223389,0.5433704853057861,0.16930647194385529
1772045528714427400,7.722427490234375,1.4520645141601562,0.4054771661758423,0.1491060107946396
1772045528724413700,7.73241357421875,1.4317264556884766,0.2659573554992676,0.1258094608783722
1772045528734399500,7.7423994140625,1.4227964878082275,0.168880894780159,0.09353611618280411
1772045528744385500,7.752385498046875,1.4139585494995117,0.12500879168510437,0.05647822842001915
1772045528754371600,7.76237158203125,1.4097013473510742,0.12669327855110168,0.013656167313456535
1772045528764357600,7.772357666015625,1.412769079208374,0.16173061728477478,-0.016195738688111305
1772045528774343400,7.782343505859375,1.4193851947784424,0.2287878692150116,-0.035108812153339386
1772045528784328400,7.792328369140625,1.4260196685791016,0.3105626106262207,-0.053933631628751755
1772045528794314500,7.802314453125,1.4266854524612427,0.39412766695022583,-0.0807664543390274
1772045528804300500,7.812300537109375,1.414875864982605,0.4666884243488312,-0.12537281215190887
1772045528814286600,7.82228662109375,1.3681466579437256,0.527769148349762,-0.1770862340927124
1772045528824272600,7.832272705078125,1.3001669645309448,0.5692936778068542,-0.2272641807794571
1772045528834258400,7.842258544921875,1.2169729471206665,0.577610969543457,-0.2779655456542969
1772045528844244500,7.852244384765625,1.144374132156372,0.5766159892082214,-0.3250824511051178
1772045528854230500,7.86223046875,1.094998836517334,0.5936813950538635,-0.3543657064437866
1772045528864216600,7.872216552734375,1.056315302848816,0.6349247097969055,-0.36974361538887024
1772045528874202400,7.882202392578125,1.028977870941162,0.6845232248306274,-0.35890355706214905
1772045528884188400,7.8921884765625,1.0263261795043945,0.7292922735214233,-0.3297022581100464
1772045528894174500,7.902174560546875,1.0410256385803223,0.7636321187019348,-0.2830115556716919
1772045528904160500,7.912160400390625,1.0533143281936646,0.7894729971885681,-0.22252210974693298
1772045528914145500,7.9221455078125,1.0684690475463867,0.8215084671974182,-0.15949107706546783
1772045528924131600,7.932131591796875,1.0673459768295288,0.8657808303833008,-0.10551093518733978
1772045528934117600,7.94211767578125,1.066265344619751,0.9029315114021301,-0.05559491738677025
1772045528944103400,7.952103515625,1.0665994882583618,0.9489032626152039,-0.004951445851475
1772045528954089700,7.96208984375,1.0767172574996948,0.9858725666999817,0.025029532611370087
1772045528964075500,7.972075439453125,1.0845152139663696,1.012994647026062,0.03667180612683296
1772045528974061600,7.9820615234375,1.095999836921692,1.0137284994125366,0.028863217681646347
1772045528984047400,7.99204736328125,1.1212503910064697,1.0020878314971924,0.011410190723836422
1772045528994033700,8.00203369140625,1.1411532163619995,1.0338654518127441,0.01580028608441353
1772045529004019500,8.01201953125,1.1466624736785889,1.024317741394043,0.030817052349448204
1772045529014005500,8.022005615234375,1.1520137786865234,0.9986082315444946,0.0652201846241951
1772045529023991600,8.031991455078124,1.1454538106918335,0.9619168043136597,0.1218765452504158
1772045529033977600,8.0419775390625,1.1159058809280396,0.9275885820388794,0.18581539392471313
1772045529043962400,8.05196240234375,1.0768396854400635,0.8852730989456177,0.24782364070415497
1772045529053949700,8.06194970703125,1.029579520225525,0.7805677652359009,0.27540165185928345
1772045529063935700,8.071935791015624,0.9990646839141846,0.6750165820121765,0.2754395008087158
1772045529073921800,8.081921875,0.969379723072052,0.5853086113929749,0.26094239950180054
1772045529083907600,8.091907470703125,0.9445614218711853,0.5364939570426941,0.2178468406200409
