time,seconds_elapsed,z,y,x
1772094466018114800,0.08611474609375,3.087185678127408,0.4175199672151357,-0.8637143863812089
1772094466028063700,0.096063720703125,2.631357972893119,0.3868827638238668,-0.6815387140449136
1772094466038013700,0.106013671875,2.350368363648653,0.3572340600132942,-0.5247012619089335
1772094466047962600,0.115962646484375,2.140301717889309,0.534801580967009,-0.536127203547582
1772094466057912600,0.12591259765625,1.9434376680523155,0.7713884232528507,-0.5889314497571438
1772094466067861800,0.13586181640625,1.628513640502095,0.8232248473435639,-0.7085451597183943
1772094466077811700,0.145811767578125,1.4008762667387724,0.7284983258794993,-0.7753888910658657
1772094466087760600,0.1557607421875,1.2558055325031279,0.6295923998389392,-0.6747595022335648
1772094466097710600,0.165710693359375,1.11965635586977,0.6148308840367943,-0.6269206233464181
1772094466107659800,0.17565966796875,1.0675731174111365,0.524833509986475,-0.5800372916184365
1772094466117609700,0.185609619140625,0.6513368333309888,0.1880892072290182,-0.34383002323471007
1772094466127559700,0.1955595703125,-0.5548533121317625,-0.24403810813985763,-0.0750307641301304
1772094466137512200,0.20551220703125,-2.2239871323138476,-0.723773416249454,0.09902304961420595
1772094466147462400,0.21546240234375,-4.259284753417968,-1.0665054151143878,0.1805430296331644
1772094466157411300,0.225411376953125,-6.990069315224885,-1.264189037705958,0.2862261581910774
1772094466167361300,0.235361328125,-10.331023418194055,-1.1698406288392842,0.42463250263407826
1772094466177310200,0.245310302734375,-13.795385289645195,-0.6736117935031652,0.41908356327004725
1772094466187260400,0.255260498046875,-16.660876428061723,0.11650368818193674,-0.08935334965889341
1772094466197209300,0.265209228515625,-17.311948472976685,1.1087662746734916,-1.0518909796327351
1772094466207159300,0.2751591796875,-15.232394946038722,1.7014603648997841,-1.8188136556483805
1772094466217108200,0.285108154296875,-11.834894195461272,1.1086420637719332,-1.937334382741153
1772094466227058200,0.29505810546875,-8.122504488646983,-0.40959304667338725,-1.3301517484351992
1772094466237007400,0.30500732421875,-5.166543390232325,-1.9577533397831022,-0.5777666432727128
1772094466246957300,0.314957275390625,-3.0792355959057804,-3.0153476456239816,0.0009908833340276032
1772094466256906200,0.32490625,-1.7413754650503397,-3.307714973451197,0.33096685186717656
1772094466266856200,0.334856201171875,-1.371014212438464,-3.1994720408752557,0.7519250864353031
1772094466276806400,0.344806396484375,-1.5051684158623218,-3.0693162594377994,1.1000637666493653
1772094466286755300,0.35475537109375,-1.9611831681013105,-2.777774861040711,0.8933742691729217
1772094466296705300,0.364705322265625,-2.819986693826318,-2.084929082496464,0.3466890659276396
1772094466306654200,0.374654296875,-3.3847646031230685,-1.207870572830364,-0.27618191670179365
1772094466316604400,0.3846044921875,-3.314742387869954,-0.3177952721375972,-0.503536674131453
1772094466326553300,0.39455322265625,-2.701748436936736,0.5140577758848667,-0.37609570461064573
1772094466336503300,0.40450341796875,-1.4484411509901285,0.931138840226084,0.10265358813628554
1772094466346452200,0.4144521484375,0.21650866150557993,0.9769156720168888,0.5221969509378075
1772094466356402400,0.42440234375,2.058261148062348,0.8593759187854826,0.7419555541500449
1772094466366351400,0.434351318359375,3.8462791218221186,0.7023096993949264,0.7828412528984248
1772094466376301300,0.44430126953125,5.410197248294949,0.48825917163118715,0.5998999299518764
1772094466386250200,0.454250244140625,6.527434852585196,0.2798953842669725,0.44832288256213065
1772094466396200200,0.4642001953125,7.175062310004234,0.23359584377631543,0.38456294257417317
1772094466406149400,0.4741494140625,7.61826901859641,0.27990692857429383,0.37738062985464926
1772094466416099300,0.484099365234375,7.804054040536284,0.3034247284144163,0.6513659132950007
1772094466426049300,0.49404931640625,7.586244233304262,0.31950032248981297,1.0516710532717406
1772094466435998200,0.503998291015625,7.285285018220543,0.40645431025624273,1.2753642194539307
1772094466445948400,0.513948486328125,7.199193127176165,0.41912309156283734,1.369048465323448
1772094466455897300,0.5238974609375,7.284063951992988,0.38291415245383975,1.4840090157166121
1772094466465847300,0.533847412109375,7.197668694087863,0.35757023316510017,1.616728071770817
1772094466475796200,0.543796142578125,6.973112919726967,0.16053323791399599,1.6989811153046785
1772094466485746400,0.553746337890625,6.968262557086348,-0.01710796933043748,1.7154034039258956
1772094466495695400,0.5636953125,7.142878534758091,0.04989931854829192,1.5176830295205115
1772094466505645300,0.573645263671875,7.016577382922172,0.11327018615342677,1.218736542498693
1772094466515594200,0.58359423828125,6.845869518604874,0.24411248855032025,0.9001906711895018
1772094466525544400,0.59354443359375,6.743140381014347,0.3993589451678097,0.45958713083304464
1772094466535493400,0.603493408203125,6.455076887860894,0.5933540885049849,0.0624355595164001
1772094466545443300,0.613443359375,5.990258066919446,0.7971821321357041,-0.04389817843735218
1772094466555393300,0.623393310546875,5.3647202762335535,1.0227964756388217,0.055457244936376805
1772094466565342200,0.63334228515625,4.400709824627637,1.2618097413539886,0.15902202963344753
1772094466575292400,0.64329248046875,3.3229099122345445,1.2612632133871315,0.0882639013212174
1772094466585241300,0.653241455078125,2.386524549657106,1.1163748499810695,-0.13318842713162302
1772094466595191300,0.66319140625,1.5436287871599197,1.2514512828163802,-0.5538558255270123
1772094466605140200,0.67314013671875,0.6320061099171638,1.3513266384109854,-0.7652507242154329
1772094466615090400,0.68309033203125,-0.4925602298259735,1.2004968291919678,-0.9247400790996849
1772094466625039400,0.693039306640625,-1.5821090322017668,0.916287234987691,-1.0902012018699199
1772094466634989300,0.7029892578125,-2.592031924676895,0.6199479347895831,-1.227886428964138
1772094466644938200,0.712938232421875,-3.1749364422947166,0.4257698361009359,-1.4675252061665058
1772094466654888400,0.722888427734375,-3.390883378264308,0.2323082151185721,-1.544419791407138
1772094466664837400,0.73283740234375,-3.326175051510334,-0.05628222451843321,-1.2242537715502082
1772094466674787300,0.742787353515625,-3.020553105312586,-0.4369971133623272,-0.698307697211951
1772094466684736300,0.752736328125,-2.8753695583522316,-0.7941778357531875,-0.364774684651196
1772094466694686200,0.762686279296875,-3.060003072169423,-0.8844766769681125,-0.2842281527742743
1772094466704636400,0.772636474609375,-4.173046731901168,-0.8588116359662264,-0.20406419047415256
1772094466714585300,0.78258544921875,-5.814376599356532,-1.0124984420515597,0.2561320852331817
1772094466724535300,0.792535400390625,-7.170548047450184,-1.0662641537044197,0.776436354292184
1772094466734484200,0.802484130859375,-7.922838825392723,-0.4762541149303317,0.8235892967417836
1772094466744434400,0.812434326171875,-7.949629217162728,0.4733155772604048,0.6937353477951139
1772094466754383400,0.82238330078125,-7.281727617999911,0.9023639966405927,0.6669431293942034
1772094466764333300,0.832333251953125,-6.160347507077455,0.5677454173328355,1.0654194465085864
1772094466774282200,0.8422822265625,-4.828713703390956,-0.029457145027536897,1.3660780712105334
1772094466784232400,0.852232421875,-3.462857312107086,-0.10056321912775747,0.8833534450918435
1772094466794181400,0.862181396484375,-2.5703303804785014,-0.3032483672005124,0.4854711483478546
1772094466804131300,0.87213134765625,-2.236744322556257,-0.6078667441125959,0.5027789876319467
1772094466814080300,0.882080322265625,-2.0491502053678032,-0.5780755996240302,1.0985301273413002
1772094466824030500,0.892030517578125,-1.7480694097310303,-0.9382122126784175,1.785480564236641
1772094466833979400,0.9019794921875,-1.191063888001442,-0.7273344697318971,1.7113476987943053
1772094466843929300,0.911929443359375,-0.7993997351199388,-0.29219862019680437,1.4697577875241636
1772094466853879300,0.92187939453125,-0.7144020690530538,-0.18070260410904884,1.0973976161800325
1772094466863828200,0.931828125,-0.8526274674385785,-0.1791232259631157,0.7007216264858841
1772094466873778400,0.9417783203125,-0.5322101031690836,-0.18559154519438742,0.3668755293879658
1772094466883727400,0.951727294921875,0.28564591061770916,-0.22634656676780432,0.15817432676292956
1772094466893677300,0.96167724609375,1.2530682164937257,-0.2958335426330566,0.028247970167174934
1772094466903626200,0.971626220703125,2.3467215315788983,-0.40256234431900084,0.13903496120274067
1772094466913576400,0.981576416015625,3.313653423589468,-0.4924028473071754,0.31867395466826853
1772094466923525400,0.991525390625,4.000911465129256,-0.5152785498514771,0.4427436211250722
1772094466933475300,1.001475341796875,4.3951293941467995,-0.48096653040498494,0.47943069913983344
1772094466943424300,1.01142431640625,4.617341235730052,-0.420849951888062,0.4573977310299873
1772094466953374500,1.02137451171875,4.597273430213332,-0.3342095966480672,0.3983217110745609
1772094466963323400,1.031323486328125,4.501809899711609,-0.2502444337003864,0.26473909699358045
1772094466973273300,1.0412734375,4.515435689482093,-0.19184565541939808,0.15773213595338165
1772094466983223300,1.051223388671875,4.526745603525638,-0.16728263910897076,0.12389599039033054
1772094466993172500,1.06117236328125,4.517984789443016,-0.023402397866104728,-0.04341273300796747
1772094467003122400,1.071122314453125,4.4601644686371085,-0.003400839685741812,-0.1265500120304525
1772094467013071400,1.0810712890625,4.364547793400288,0.010076773785706608,-0.18301563029177487
1772094467023021300,1.091021240234375,4.229768151554465,-0.017716237421892583,-0.128713839000836
1772094467032970200,1.10097021484375,3.999331502461433,-0.1293524656979367,-0.04438837310709059
1772094467042920400,1.11092041015625,3.923144334837794,-0.16204185237865895,-0.05637004893235862
1772094467052869400,1.120869384765625,3.798161279863119,-0.059879956749454136,-0.08732172510027884
1772094467062819300,1.1308193359375,3.456158106729388,0.12947941654585302,-0.09539521450586616
1772094467072768300,1.140768310546875,2.9173230324625967,0.2631750625472516,-0.03826689455211162
1772094467082718500,1.150718505859375,2.0235154133737088,0.3155919899396598,0.087011599705182
1772094467092667400,1.16066748046875,0.9779852009445428,0.43571766801103945,0.1702053946878761
1772094467102617300,1.170617431640625,0.02820259665548801,0.5841904657751321,0.17517525552231816
1772094467112567300,1.1805673828125,-0.7173954056501388,0.7476867912784219,0.02061902792500332
1772094467122516500,1.1905166015625,-1.2560481090873479,0.8100127529405057,-0.14357676935084163
1772094467132466400,1.200466552734375,-1.4883926376283168,0.7096675148118287,-0.24845912118619307
1772094467142411800,1.210411865234375,-1.4083143077850342,0.5095993351712823,-0.2840101443757303
1772094467152361700,1.22036181640625,-1.308775490668416,0.33624387895464897,-0.188457547351066
1772094467162310700,1.230310546875,-1.2429448818862439,0.27491408872306344,-0.060358789774961764
1772094467172260900,1.2402607421875,-1.103604215735197,0.2589119982752949,0.0690460636973381
1772094467182209800,1.250209716796875,-0.9715256495416164,0.20368096331022678,0.14487316583693027
1772094467192159700,1.26015966796875,-0.9594850831359625,0.09934614408873021,0.2301257199803367
1772094467202108700,1.270108642578125,-1.1140946300894021,-0.0014779635980725287,0.21927787049058822
1772094467212059000,1.280058837890625,-1.4239409159839151,-0.11497954735457896,0.13936247612405567
1772094467222007800,1.2900078125,-2.2960504980057475,-0.21690796302147208,0.006127214176021516
1772094467231957800,1.299957763671875,-3.607186872586608,-0.31724815964885056,-0.057388541792519385
1772094467241906700,1.30990673828125,-5.084645443746448,-0.3319377061933279,-0.03506566909169778
1772094467251856600,1.319856689453125,-6.38538843460679,-0.1633107398033142,0.007142528698407113
1772094467261805800,1.329805908203125,-7.683628502735495,0.07543532634302973,-0.027247716216603293
1772094467271755800,1.339755859375,-8.913559004747867,0.33871070745959875,-0.47270161008052525
1772094467281705700,1.349705810546875,-9.554382042849063,0.6418585186287761,-1.3686156268641352
1772094467291654700,1.359654541015625,-9.751077165859938,0.8963418137416242,-2.366221474079788
1772094467301604900,1.36960498046875,-9.592114099872111,0.967469944410026,-2.973056025600433
1772094467311553800,1.3795537109375,-9.297281843236089,1.0160910597160457,-2.9762367014631628
1772094467321503700,1.389503662109375,-9.029335255438088,1.1606915460914373,-2.416252748444676
1772094467331452700,1.39945263671875,-8.595786017507313,1.3746741962507367,-1.7711292366705833
1772094467341403000,1.40940283203125,-7.903786334398388,1.579867829146236,-1.4689891412392257
1772094467351351800,1.419351806640625,-7.079325807780027,1.6623825923562048,-1.4066037044748663
1772094467361301800,1.4293017578125,-6.117309744861721,1.5263604031033813,-1.4256957968272268
1772094467371250700,1.439250732421875,-5.0018081705838435,1.2063819417078048,-1.3742080400437116
1772094467381200600,1.44920068359375,-3.8051480700105427,0.7228508215118199,-1.1356688215810804
1772094467391149800,1.45914990234375,-1.9830507165163753,0.36088476454056795,-0.8469019293986261
1772094467401099800,1.469099853515625,-0.27603812431693076,-0.00358998731598258,-0.26522065169913694
1772094467411049700,1.4790498046875,0.7868652477174997,-0.9594841332878917,0.5623330003626644
1772094467420998700,1.48899853515625,2.2732915537089107,-1.5217949948839842,0.9233654297456144
1772094467430948600,1.498948486328125,3.2131577441394326,-1.6176397797882556,1.2343797365061937
1772094467440897800,1.508897705078125,4.027409595954418,-1.7684340062372386,1.6045862369477748
1772094467450847700,1.51884765625,4.631505370160937,-2.21195358017087,2.131069486902654
1772094467460796700,1.528796630859375,4.883565822041034,-2.50823749691993,2.622396083280444
1772094467470747000,1.538746826171875,4.820885201722383,-2.4651328069478273,2.952734537583589
1772094467480695800,1.54869580078125,4.894812607720494,-2.528690502361953,3.1336060685187577
1772094467490645800,1.558645751953125,5.337578002285957,-2.4342880252204835,2.9773081300869584
1772094467500594700,1.5685947265625,6.209489431387186,-1.9709744942754506,2.554438399341702
1772094467510545000,1.578544921875,7.139741405776142,-1.6249720223724842,2.332956041076779
1772094467520493800,1.588493896484375,7.894310650044679,-1.3787563509978353,2.2525512557581067
1772094467530443800,1.59844384765625,8.423525078529119,-1.0758692365914582,2.2084448413975535
1772094467540393500,1.6083935546875,8.862105880886316,-1.0972472479239106,2.4235832374632356
1772094467550342700,1.6183427734375,8.967235649877786,-0.9813235515870153,2.598020351436734
1772094467560292600,1.628292724609375,8.64385534414947,-0.7320720927130431,2.686157192312181
1772094467570241800,1.63824169921875,8.31893248515427,-0.6913683264028281,2.595114693123102
1772094467580191500,1.64819140625,8.05205264980495,-0.558764201965183,2.1831825359776613
1772094467590140700,1.658140625,7.442741771298646,-0.21788648919742554,1.6791197921454906
1772094467600090600,1.668090576171875,6.773083099335432,0.03623206425625831,1.331858552353084
1772094467610039800,1.678039794921875,6.309796310266852,0.022978048673924056,1.1848855646926908
1772094467619989800,1.68798974609375,5.636134247881174,0.4981383952844888,0.8046076790265738
1772094467629938700,1.697938720703125,4.809995558917522,1.1853449258327484,0.3448756598301232
1772094467639888600,1.707888671875,4.317644587928056,1.565379723457992,-0.07548837170451879
1772094467649837800,1.717837890625,4.015014224761725,1.6538221231512724,-0.3371411931205541
1772094467659787800,1.727787841796875,3.557746842113137,1.5737547530934213,-0.3242803233079612
1772094467669737500,1.737737548828125,2.761316478192806,1.7314742487609385,-0.32521164934132246
1772094467679686700,1.747686767578125,2.1550041969805953,1.9761209172531962,-0.5703780673913658
1772094467689636600,1.75763671875,1.6485504663586616,1.9718423631511628,-1.178906271087378
1772094467699585800,1.767585693359375,1.0266641839176416,1.7714647522352636,-1.8617504417076707
1772094467709535500,1.777535400390625,-0.2695943550050258,1.248184828366339,-2.226251862375438
1772094467719484700,1.787484619140625,-1.897805797690153,0.7555417425625026,-2.2712359363533556
1772094467729434600,1.7974345703125,-3.2462136260449883,0.22411497179083525,-2.137383638485521
1772094467739383800,1.8073837890625,-4.081189116936922,0.30633623194694515,-2.300213609034568
1772094467749333500,1.81733349609375,-4.4114860701859,0.9144649149313568,-2.327755988215655
1772094467759282700,1.82728271484375,-4.376222449102998,1.2563751490846276,-2.1868717458844182
1772094467769232600,1.837232666015625,-4.067761480087041,1.0846629300303756,-2.0490847389161586
1772094467779181800,1.847181884765625,-3.9515620355486867,0.5901495933752506,-1.7322414337411522
1772094467789131500,1.857131591796875,-4.331199650549888,0.08216668042466044,-1.3643215829320252
1772094467799081500,1.86708154296875,-5.230359736582637,-0.3372110434863716,-1.1050503228902817
1772094467809030700,1.87703076171875,-6.358807301673293,-0.688799498828128,-0.7597736810438335
1772094467818980600,1.886980712890625,-7.659930816283822,-1.027829209109023,-0.211250503515359
1772094467828929500,1.896929443359375,-8.637465350851416,-1.0496518224038183,0.17960012275986373
1772094467838879500,1.90687939453125,-9.12890622125864,-0.6870343888517468,0.31431320217549796
1772094467848828700,1.91682861328125,-8.94641439564526,-0.07825113268243149,0.11246173758106305
1772094467858778600,1.926778564453125,-7.894443336513638,0.4157089722704142,-0.03990154654923826
1772094467868727800,1.936727783203125,-6.414336296671628,0.39215818347614256,0.12022776847267523
1772094467878677500,1.946677490234375,-4.67970972135961,-0.16406583248693496,0.3410934013450518
1772094467888627700,1.956627685546875,-2.962386747547984,-0.7898541273351758,0.21597873761365188
1772094467898576600,1.96657666015625,-1.660616167205572,-1.4583397369310258,-0.02627856979034841
1772094467908526600,1.976526611328125,-0.584302693977952,-2.159767611990124,0.08812021853420883
1772094467918475500,1.9864755859375,0.03972703023254871,-2.7139029851108787,0.5494160529812797
1772094467928425500,1.996425537109375,0.09633505263924598,-2.7759429694384337,1.0316751439474523
1772094467938374700,2.006374755859375,0.26978783175051213,-2.527349609147012,1.21800501335375
1772094467948324600,2.01632470703125,0.3024655279934406,-2.253630283166468,1.1687375629682093
1772094467958273500,2.0262734375,0.44975452280044553,-1.971598471392691,0.86827219581604
1772094467968223500,2.036223388671875,0.759932232606411,-1.7789643142104148,0.5394000146731734
1772094467978172700,2.046172607421875,1.1704846258312462,-1.6836629885330796,0.2744046048309654
1772094467988122600,2.05612255859375,1.7010557296216486,-1.689014578694105,0.05633220114000141
1772094467998071600,2.066071533203125,2.049908330258727,-1.7811527641654012,-0.11141915145926176
1772094468008021500,2.076021484375,2.0358155074983832,-1.7573948719590902,-0.06343026964217424
1772094468017971700,2.0859716796875,1.9928280141651629,-1.6470793708927929,0.13739376986697316
1772094468027920600,2.095920654296875,2.170768167823553,-1.5315370750889181,0.09879274798966943
1772094468037870600,2.10587060546875,2.5005729536414143,-1.3382003225952386,0.04267309362180531
1772094468047819500,2.115819580078125,2.945511600592732,-1.0948330994542688,-0.015156068077683448
1772094468057769700,2.125769775390625,3.355254431000352,-0.8810527669340371,-0.08383541735447943
1772094468067718700,2.13571875,3.6170582782596346,-0.6870997091729194,-0.18105054076388477
1772094468077668600,2.145668701171875,3.763023915508389,-0.44432234168387946,-0.22466325332336126
1772094468087617500,2.155617431640625,3.6920728949725627,-0.2996117459975183,-0.2816165089711547
1772094468097567500,2.1655673828125,3.59101315189898,-0.19263963707499204,-0.32566739375218745
1772094468107517700,2.175517578125,3.6151211727172132,-0.032403409346193075,-0.2625562730617821
1772094468117466600,2.185466552734375,3.6896909682720898,0.11891129731293767,-0.19684191107042132
1772094468127416600,2.19541650390625,3.7068735737413165,0.2649126269295812,-0.2476016458403319
1772094468137365500,2.205365478515625,3.5752936047196386,0.28156883390452714,-0.32101430724933744
1772094468147315700,2.215315673828125,3.2895062398046253,0.22017226204704493,-0.38364012864083047
1772094468157264600,2.2252646484375,2.792719332194328,0.22514457056690007,-0.5143986982770263
1772094468167214600,2.235214599609375,2.341899225988984,0.22482527548465878,-0.5890824025351554
1772094468177163500,2.24516357421875,1.9010802893161773,0.21717432234007863,-0.48612990451753135
1772094468187113700,2.25511376953125,1.4882804094254969,0.2532332219865173,-0.3514398406513035
1772094468197062700,2.265062744140625,1.1995125673949718,0.3549748098444193,-0.20994214259684085
1772094468207012600,2.2750126953125,0.9036603200614451,0.41267150427065785,-0.03563442715667188
1772094468216961500,2.28496142578125,0.6321949104875326,0.394116806730628,0.009075725250691174
1772094468226911700,2.294911865234375,0.2624111655026674,0.330804464379698,-0.10559044530577957
1772094468236861700,2.30486181640625,-0.00552431637942791,0.1567401657739654,-0.2510569008607417
1772094468246810600,2.314810546875,-0.32087329134345055,-0.08233122333660721,-0.3812739840313792
1772094468256760600,2.324760498046875,-0.8578571847856045,-0.21639150139931587,-0.4407289933670312
1772094468266709500,2.33470947265625,-1.3668296202301977,-0.11644103474188595,-0.4808513065274805
1772094468276659700,2.34465966796875,-1.9662953965485095,0.11978227146118879,-0.4766834462583065
1772094468286608600,2.354608642578125,-2.47327811948061,0.383334971681796,-0.4069624059088528
1772094468296558600,2.36455859375,-2.8778116908073423,0.6037950742268935,-0.3086556148052215
1772094468306507500,2.374507568359375,-3.447653313234448,0.68518474239707,-0.2670193168852478
1772094468316457700,2.384457763671875,-4.325896867966652,0.635383185134828,-0.22125015694424507
1772094468326407700,2.39440771484375,-5.53798600834012,0.45742293853648003,-0.09182758515216409
1772094468336356600,2.404356689453125,-6.934216495099664,0.2848727890870534,0.025424875570461154
1772094468346306600,2.414306640625,-8.504123048332334,0.19829064857400952,0.07458250890597701
1772094468356255700,2.424255859375,-10.206396337050199,0.040383996303938324,0.2428860885605216
1772094468366205700,2.434205810546875,-11.69261689133644,-0.2663389699382707,0.3933926937071606
1772094468376154600,2.444154541015625,-12.572927899992465,-0.17018292712774127,0.22157551644109189
1772094468386104600,2.4541044921875,-12.49141982960701,0.3585626782685518,-0.38517113760039207
1772094468396053500,2.464053466796875,-11.113394277101754,0.5390032339079305,-1.094294243337214
1772094468406003700,2.474003662109375,-9.078943043693899,0.1583305767705664,-1.5076375824548303
1772094468415953700,2.48395361328125,-6.8638090799212454,-0.5882340420775115,-1.7703306336387992
1772094468425902600,2.493902587890625,-5.123551220723987,-1.2748536395832895,-1.996365832902491
1772094468435852800,2.503852783203125,-3.969452497026324,-1.5530189851872622,-2.3417618633449075
1772094468445801700,2.5138017578125,-3.1120600071430204,-1.6198536564454435,-2.4621406393945215
1772094468455751700,2.523751708984375,-2.5889479871869088,-1.4906279954649506,-2.1588379299245775
1772094468465700600,2.53370068359375,-2.1857377734184262,-1.1570547970242797,-1.626102487707138
1772094468475650600,2.543650634765625,-1.9108038109511136,-0.8610450210414826,-1.0664943091984838
1772094468485599700,2.553599853515625,-1.5348808325588703,-0.459601816945523,-0.6555444410886615
1772094468495549700,2.5635498046875,-0.967298387235403,0.2265157858548686,-0.3913925328658893
1772094468505498600,2.57349853515625,0.09816811328530312,0.7937842333257198,0.02154902051780373
1772094468515448600,2.583448486328125,1.419787887957692,1.0212489539358764,0.477125162143819
1772094468525398800,2.593398681640625,2.749854588457942,1.0095896419327706,0.8326518702499568
1772094468535347700,2.60334765625,3.9959026970565317,1.040283543947339,0.9801019739028066
1772094468545297700,2.613297607421875,5.064100083845854,1.023983274270594,0.9663608141243457
1772094468555246600,2.62324658203125,6.023021687880158,0.9847354058571159,0.9042411886893212
1772094468565196800,2.63319677734375,6.85033585036397,0.8819751424759625,0.7930505852889269
1772094468575145700,2.643145751953125,7.4272028413832185,0.6964728830002248,0.7618691920183599
1772094468585095700,2.653095703125,7.8727184114396564,0.5863925789292901,0.8461276570905
1772094468595044600,2.663044677734375,8.21790664435029,0.6234497323654592,0.9127221629172563
1772094468604994800,2.672994873046875,8.546040282085537,0.7598801370929926,0.9864667596943676
1772094468614944800,2.68294482421875,8.902059121090174,0.9147926125157624,1.0690686166658996
1772094468624893700,2.692893798828125,9.142478819537162,1.080152101542428,1.1355637537714094
1772094468634843600,2.70284375,9.1755300252676,1.184544569235295,1.1025817408196628
1772094468644792600,2.71279248046875,9.150783706545829,1.1637690538406371,1.1322217498671263
1772094468654742800,2.72274267578125,8.948618627691268,1.1411992754403502,1.059008410422504
1772094468664691700,2.732691650390625,8.741437181979418,1.1157672394767404,0.9378506128244102
1772094468674641700,2.7426416015625,8.61992677155137,1.0553710768334568,0.9060761490315198
1772094468684591900,2.752591796875,8.348916704529524,1.0475818842619657,0.9012946138434111
1772094468694540800,2.762540771484375,7.844864189830422,1.0835348027832805,0.9705372230261564
1772094468704490800,2.77249072265625,7.131128475731611,1.048948204179108,1.2259566299453377
1772094468714439700,2.782439697265625,6.278627849543094,0.9190053348399698,1.5714184191003442
1772094468724389600,2.7923896484375,5.422190468427538,0.9212925689943134,1.77338768312186
1772094468734338800,2.8023388671875,4.5628877610087395,1.1776697150297462,1.7759397056922315
1772094468744288800,2.812288818359375,3.7058220188617703,1.6030867921702563,1.5085682874336839
1772094468754237700,2.82223779296875,2.810765861016512,1.8851905001364648,1.2702467303097247
1772094468764187600,2.832187744140625,1.6700836682528257,1.9045197622455656,1.3891362907148896
1772094468774136800,2.84213671875,0.4180921410799026,1.82513219114542,1.4740283044502138
1772094468784086800,2.852086669921875,-0.7073585802823305,1.6373843446999787,1.612718982259929
1772094468794036700,2.86203662109375,-1.8824732040017842,1.541705125620961,1.693449346271157
1772094468803985700,2.871985595703125,-3.094576372900605,1.5326416753299534,1.4176856549814343
1772094468813935900,2.881935791015625,-4.231595366981625,1.5276808380521834,0.8217254025660454
1772094468823884800,2.891884765625,-5.09825486690402,1.4004709008082747,0.17246254423120988
1772094468833834800,2.901834716796875,-5.382951513972878,1.3874680652417242,-0.3885725435417145
1772094468843783700,2.91178369140625,-5.301442859065532,1.3478681685201823,-0.8046299639236182
1772094468853734000,2.92173388671875,-5.3835249299466605,0.976193495222181,-0.9781132112383842
1772094468863683600,2.93168359375,-5.6564709334671495,0.3719342010170221,-0.890911970712617
1772094468873632800,2.9416328125,-6.065215985009074,-0.13752557955309747,-0.7543293710980564
1772094468883582700,2.951582763671875,-6.497609038642048,-0.4348104900382459,-0.7204379151511937
1772094468893531600,2.96153173828125,-6.755021957466006,-0.5852164478220045,-0.8404804449837654
1772094468903481600,2.971481689453125,-6.5656111462444064,-0.5077332490384578,-1.1115357393868266
1772094468913430800,2.9814306640625,-5.902093461254239,-0.07604125634692609,-1.3347545660555362
1772094468923380700,2.991380615234375,-5.057002819061279,0.28620668630562723,-1.384681211002171
1772094468933329700,3.00132958984375,-4.0009418602675195,0.45428533463049675,-1.3802829760432243
1772094468943279600,3.011279541015625,-2.864786789539456,0.4489468596793711,-1.3470856398403643
1772094468953229600,3.0212294921875,-1.9394822084248065,0.19695645909449083,-1.5549121054574846
1772094468963178800,3.0311787109375,-1.1909990060716866,-0.29989730320693925,-1.6464333280742167
1772094468973128400,3.04112841796875,-0.7804244010150432,-0.9074785631753504,-1.368790252778679
1772094468983078000,3.051077880859375,-0.6250894623965024,-1.4293009817123412,-0.966845090509951
1772094468993027600,3.061027587890625,-0.6686164694339036,-1.8633543697729706,-0.6214168382983655
1772094469002976800,3.070976806640625,-1.2113210786104203,-2.4740789144694806,-0.43569720974490045
1772094469012926500,3.080926513671875,-1.9257114572256802,-3.4022061517894264,-0.48535807989481833
1772094469022876700,3.090876708984375,-2.258420147791505,-4.033472256994247,-0.7371088447712362
1772094469032825600,3.10082568359375,-2.0854694729834793,-4.082772586736083,-1.317546826145053
1772094469042775600,3.110775634765625,-1.4107126010984181,-3.8687837990969416,-1.6257576197922228
1772094469052724500,3.120724365234375,-0.39715573603510856,-3.4840058985978364,-1.4662464184023438
1772094469062674700,3.1306748046875,0.868242385199666,-3.104757282914221,-0.9301880423072725
1772094469072623600,3.14062353515625,2.337761980053782,-2.6411276717573404,-0.3272568183680996
1772094469082573600,3.150573486328125,3.698589729520678,-2.0254995729282497,0.09104914812557399
1772094469092523500,3.1605234375,4.73058884472549,-1.4109110462799668,0.37624483075775206
1772094469102472700,3.17047265625,5.287659832906723,-0.8884426579896361,0.6749844700958579
1772094469112422700,3.180422607421875,5.358183567941189,-0.5612951817475259,0.8906082385256886
1772094469122371600,3.19037158203125,5.242655154532194,-0.5229051722723991,1.0138725068837404
1772094469132321500,3.200321533203125,5.051416543361544,-0.42043044783435757,1.0202748482067137
1772094469142270200,3.210270263671875,4.642520100650191,-0.24372860379926858,0.9255275762155651
1772094469152220200,3.22022021484375,4.204407500326633,-0.22796105275973677,0.912533873803541
1772094469162169300,3.23016943359375,4.024642469328642,-0.1612956005886197,0.8483927524782717
1772094469172119000,3.240119140625,4.076971206980944,0.12775180730195715,0.7585365404643118
1772094469182069000,3.250069091796875,4.303293406492472,0.4530986821291968,0.8119090880811214
1772094469192018200,3.26001806640625,4.432009802776575,0.6843045985616744,1.0881677232809364
1772094469201968000,3.269968017578125,4.391505942952633,0.7658859533790499,1.4124702584207056
1772094469211917000,3.2799169921875,4.226034225723147,0.8486397860419005,1.524153979100287
1772094469221867000,3.289866943359375,3.89875749707818,0.966932403467223,1.3680920413814484
1772094469231816000,3.29981591796875,3.4563784714817998,1.0082372774757444,0.9624376493312418
1772094469241766100,3.30976611328125,3.0035125386625525,1.0413488350912927,0.4921540601778775
1772094469251716000,3.319716064453125,2.357640400478244,1.0096642415389419,0.189843138224259
1772094469261665000,3.3296650390625,1.7994646659255027,0.8300999938100576,0.031778555446118115
1772094469271615200,3.339615234375,1.101515134501457,0.7741032351695001,0.09797580558359623
1772094469281564200,3.349564208984375,0.6045218906641006,0.84423468295075,0.35305377865396437
1772094469291514000,3.35951416015625,0.5632996534377336,1.0567575627557932,0.4902031453058123
1772094469301463000,3.369463134765625,0.8447866908103228,1.2349978684045373,0.605788403468579
1772094469311413000,3.3794130859375,1.1279682571411132,1.325549223075807,0.5445785863548517
1772094469321363200,3.38936328125,1.2718307846307755,1.258414545957744,0.3238251268863678
1772094469331312000,3.39931201171875,0.9766747028678655,1.0822365796662867,0.10708280275538563
1772094469341262000,3.409261962890625,0.0002618658065795898,0.8398806524597108,-0.23391046268343924
1772094469351211000,3.4192109375,-1.3270254331082105,0.4455591900024563,-0.4506500103354454
1772094469361161200,3.4291611328125,-2.8991876563131806,-0.052779239632468666,-0.28311580761820077
1772094469371110100,3.439110107421875,-4.343533646944165,-0.4613471993081271,-0.032829818064719435
1772094469381060000,3.44906005859375,-5.759796867907047,-0.6458246457807719,0.15539222176373005
1772094469391010000,3.459010009765625,-7.152333176323771,-0.5445695993307977,0.3195345900855958
1772094469400959200,3.468959228515625,-8.536648768883943,-0.2015144511924125,0.2983534164994955
1772094469410909200,3.4789091796875,-9.937564198589325,0.01563943571441341,0.26656536257267
1772094469420858000,3.488858154296875,-11.27564001802206,-0.20854964705882592,0.3369806687965989
1772094469430808000,3.49880810546875,-12.350339626312255,-0.620265037914738,0.37413317236602306
1772094469440757200,3.50875732421875,-12.783392020636796,-0.867971751564741,0.3009628683455288
1772094469450707200,3.518707275390625,-12.421861724734306,-1.034997639433667,0.2079604672603309
1772094469460657200,3.5286572265625,-11.44190610049963,-1.2040369129516184,0.1514332550048828
1772094469470606000,3.538606201171875,-10.122252072942256,-1.2737119222022593,-0.08929507099986075
1772094469480556300,3.548556396484375,-8.998010727369785,-1.4304358309611678,-0.25807657036446036
1772094469490505200,3.558505126953125,-8.353495264491439,-1.699522967096418,-0.215786776971817
1772094469500455200,3.568455078125,-7.896741092061996,-1.8137319684699176,-0.15613624506406484
1772094469510404000,3.578404052734375,-7.2121455477297305,-1.6698295473612843,-0.17583653244264422
1772094469520354300,3.588354248046875,-6.25668548232615,-1.4693153044536709,-0.2725758915664628
1772094469530304300,3.59830419921875,-5.313930584716797,-1.3754784983709454,-0.33749621710330246
1772094469540253200,3.608253173828125,-4.490442118000984,-1.3172842296861111,-0.432494395115599
1772094469550203100,3.618203125,-3.823780874288082,-1.2615073974065483,-0.42721214386373757
1772094469560152000,3.628152099609375,-3.0567426090687513,-1.2906260859936476,-0.29138323042700065
1772094469570102300,3.638102294921875,-2.1735919930726286,-1.3919737060979007,0.09484589179372414
1772094469580051200,3.64805126953125,-1.2850047389805317,-1.4943337181150913,0.45315980119928717
1772094469590001200,3.658001220703125,-0.3295066796541214,-1.3898928081706166,0.6380014048092066
1772094469599951400,3.667951416015625,0.6648585782051086,-1.1310849278569222,0.7446645208477973
1772094469609900300,3.677900390625,1.6658388702899216,-0.823829608303681,0.8317981760300696
1772094469619850200,3.687850341796875,2.634820096045732,-0.4589919779514894,1.030153925729543
1772094469629799200,3.697799072265625,3.721044722434878,-0.09319511064570396,1.2843208483695983
1772094469639749000,3.7077490234375,4.970643216991424,0.20823230647165328,1.5822531168475746
1772094469649698300,3.7176982421875,6.217917067992687,0.45553281394094225,1.7874229304760694
1772094469659648300,3.727648193359375,7.363003048673272,0.5555194478902965,1.8236282163232564
1772094469669598200,3.73759814453125,8.267293483331798,0.5807524906830862,1.7306759379900991
1772094469679547100,3.747547119140625,8.994882366216181,0.5988892916046082,1.519094065362215
1772094469689497300,3.757497314453125,9.623372576966881,0.7108407233096659,1.178287919993326
1772094469699446300,3.7674462890625,10.057706827795505,0.9131571933336555,0.9136579824626445
1772094469709396200,3.777396240234375,10.185177023410796,1.0581843806885183,0.685528222072497
1772094469719345200,3.78734521484375,10.016671053051947,1.096533838957548,0.4865561671055853
1772094469729295400,3.79729541015625,9.870313786137103,1.2470026328444481,0.4926054937398061
1772094469739245000,3.8072451171875,9.717769939541816,1.4221934877946971,0.3759130415201187
1772094469749194200,3.8171943359375,9.458485381627082,1.681715069335699,0.025844123895838855
1772094469759144200,3.827144287109375,9.076300420230627,2.0859356291905042,-0.23014921045377848
1772094469769093400,3.83709326171875,8.880482664576173,2.0901685905851424,-0.3398821623917669
1772094469779043000,3.84704296875,8.701734117144346,1.9993919027253984,-0.5390126227907837
1772094469788993000,3.856992919921875,8.486627139130235,1.9437075710348783,-0.8496027127899229
1772094469798942200,3.866942138671875,8.155201474112271,1.8265864816069601,-1.1014917536258697
1772094469808892200,3.87689208984375,7.311502578538656,1.5847826353251933,-1.0525697556771338
1772094469818841300,3.88684130859375,6.298076646378636,1.1311981789730488,-0.7722264815121889
1772094469828791000,3.896791015625,5.520994541528821,0.8829276208952068,-0.7274031510539353
1772094469838740200,3.906740234375,4.687905302774906,0.9650035542964934,-0.6913830125153064
1772094469848690200,3.916690185546875,3.826042389479279,1.1021401345320045,-0.5227310578145087
1772094469858640100,3.92664013671875,3.0858664122223853,1.224325375481695,-0.49051571838632224
1772094469868589000,3.936589111328125,2.058819366466999,1.288873981629312,-0.44281537118703124
1772094469878539000,3.9465390625,0.8192413306653499,1.1165377854578196,-0.10638619879335165
1772094469888488000,3.956488037109375,-0.7729635636150837,0.8908994765572249,0.15804229788109658
1772094469898438100,3.966438232421875,-2.31154500425756,0.5814480351991951,0.2504761052981019
1772094469908387000,3.976386962890625,-3.7537919767826793,-0.06155950733423233,0.27060879274457694
1772094469918337000,3.9863369140625,-4.540252150830626,-0.5362745761290192,0.22552198904454707
1772094469928287200,3.996287353515625,-4.929788059511781,-0.9176081813931465,0.06939940717965364
1772094469938236200,4.006236083984375,-4.968101131293177,-1.32289067139104,-0.08482523210942745
1772094469948186000,4.01618603515625,-5.310335775095224,-1.4858473370596765,-0.29527225548848507
1772094469958135000,4.026135009765625,-6.088337917399406,-1.532005277122557,-0.6597422581046819
1772094469968085000,4.0360849609375,-7.336263510307669,-1.9494485989049075,-0.6447959603201597
1772094469978035200,4.04603515625,-9.066512016665936,-2.600383573436737,-0.26198000754378736
1772094469987984100,4.055984130859375,-10.940061324977874,-2.867177484068274,-0.17831220184117555
1772094469997934000,4.06593408203125,-12.169701319611072,-2.4023073713310064,-0.5919558756122365
1772094470007883000,4.075883056640625,-12.713330057895183,-1.5444722522467373,-1.3022900741718708
1772094470017833200,4.085833251953125,-12.248001533865928,-0.9007748277530073,-1.556739320884645
1772094470027782100,4.0957822265625,-11.208727459222077,-0.5169721289616078,-1.284797964362055
1772094470037732000,4.105732177734375,-9.858864171361923,-0.41378516460098325,-0.8400777094017714
1772094470047682000,4.11568212890625,-8.302046232283114,-0.6424456708669662,-0.22842260585688054
1772094470057631200,4.12563134765625,-6.74563336687386,-1.005521004254371,0.14439634210541843
1772094470067581200,4.135581298828125,-5.1223301544964315,-1.2584025632590055,0.2606524852670729
1772094470077530000,4.145530029296875,-3.601767185625434,-1.449450912554562,0.37057811023294923
1772094470087480000,4.15547998046875,-2.4010639471411706,-1.6352416335828601,0.5066206846866756
1772094470097429200,4.16542919921875,-1.577522873455286,-1.6885167121745646,0.5588930890418589
1772094470107379200,4.175379150390625,-0.691489980021119,-1.599462610323727,0.3886863061144948
1772094470117329200,4.1853291015625,0.4978057292640209,-1.3492178295634687,0.0009567892681807279
1772094470127278000,4.195278076171875,1.9426392111510038,-0.9603284751575439,-0.2625014010693878
1772094470137228300,4.205228271484375,3.422780153262615,-0.5158996774245054,-0.3341089858178049
1772094470147177200,4.21517724609375,4.785604044982791,-0.20076522199399768,-0.21902539356686174
1772094470157127400,4.22512744140625,5.947755726754665,0.0997059173118323,-0.06887808671928942
1772094470167077400,4.235077392578125,6.682723029452562,0.402065427647531,0.060055934370867904
1772094470177026300,4.2450263671875,6.980777170744538,0.5920613452807069,0.21662063398007303
1772094470186976500,4.2549765625,6.8489172157377,0.6812915343508124,0.3422120666440576
1772094470196925400,4.264925537109375,6.485313036170601,0.7669380197152494,0.28819782359022644
1772094470206875400,4.27487548828125,5.758784475994109,0.849503636329621,0.2037888623978011
1772094470216824300,4.28482421875,4.989387080428004,0.7557020476907491,0.14965261866580695
1772094470226774300,4.294774169921875,4.560321709913015,0.7405497790053487,0.16036301417993382
1772094470236724500,4.304724365234375,4.124653580132127,0.945990518529713,0.2062088560863398
1772094470246673400,4.31467333984375,3.87990257448256,1.1536701230220496,0.4113142079101875
1772094470256623400,4.324623291015625,3.8476217686027288,1.284621584881842,0.524841802890785
1772094470266572300,4.334572265625,3.8787434675753114,1.3708255579985678,0.4940927731554955
1772094470276522500,4.3445224609375,3.865817935028672,1.3506276963613926,0.4525201150562614
1772094470286472400,4.354472412109375,3.838881997308135,1.1807574519120156,0.3810193882158026
1772094470296421400,4.36442138671875,3.8924925914645194,0.9925829044871032,0.24494236350320278
1772094470306371300,4.374371337890625,3.853573955005407,0.9344511796444654,0.18060612146463245
1772094470316320500,4.384320556640625,3.6169641702353954,0.9007043928653001,0.24635981081938368
1772094470326270500,4.3942705078125,3.2732524396181106,0.8728883113093674,0.3251855285193771
1772094470336219400,4.404219482421875,2.7698183490782973,0.8774642409227787,0.2686255830381065
1772094470346169300,4.41416943359375,2.24951437228024,0.8417036301031708,0.08998341859020292
1772094470356119300,4.424119384765625,1.6208037967771292,0.7836088762700557,-0.07330973075749352
1772094470366068500,4.434068359375,0.9759674313813448,0.7281564536392688,-0.08498109852457418
1772094470376018200,4.44401806640625,0.3529401622116565,0.732576315908134,0.08188790001589805
1772094470385967400,4.45396728515625,-0.32520342950224873,0.7559174440070986,0.30119397368766365
1772094470395917300,4.463917236328125,-0.8727934726327657,0.8071433349840342,0.2620023107071407
1772094470405867300,4.4738671875,-1.2193833890348673,0.8347742692314087,0.07277838209345937
1772094470415816200,4.483816162109375,-1.279444182243943,0.7299621878869831,-0.16856809407593681
1772094470425766100,4.49376611328125,-0.9511550616860389,0.6384785208016633,-0.4787197743915021
1772094470435715300,4.50371533203125,-0.5250386041045189,0.6224471311941743,-0.6496425966337322
1772094470445665300,4.513665283203125,-0.42879882853329176,0.6762441878333687,-0.6614957507085055
1772094470455615200,4.523615234375,-0.3272621155977249,0.5274544330745935,-0.23626077040294183
1772094470465564200,4.533564208984375,-0.669898910459876,0.36892829719930886,0.28387700124904514
1772094470475514400,4.543514404296875,-1.274306234833598,0.2894010253675282,0.5159108564056456
1772094470485463300,4.55346337890625,-1.7988626083791255,0.1279353289090097,0.7112915358170867
1772094470495413200,4.563413330078125,-2.3774364033162594,-0.10306070763245224,0.9693854226425289
1772094470505362200,4.573362060546875,-3.0476947947382924,-0.40426702934503556,1.1202394164547325
1772094470515312400,4.5833125,-3.96052626324892,-0.6912720994867384,1.1892037932179869
1772094470525262300,4.593262451171875,-5.276430582883954,-0.570587472358346,0.9560946369800716
1772094470535211300,4.603211181640625,-6.902220935901999,-0.44683059817776083,0.4813713118135929
1772094470545161200,4.6131611328125,-8.949391365629435,-0.6666684041060507,0.4292346261346712
1772094470555110100,4.623110107421875,-9.866689750421047,-0.32479645613655445,-0.20991178399119526
1772094470565060400,4.633060302734375,-9.988612833303213,0.12684198071435093,-1.0040851992975919
1772094470575010300,4.64301025390625,-9.888119491940737,0.09015373365581035,-1.5135015060521662
1772094470584959200,4.652959228515625,-9.313921427869797,-0.2984884410560131,-1.6218647040069103
1772094470594909400,4.662909423828125,-8.423887482100724,-0.5316022004038096,-1.4089989290483296
1772094470604858400,4.6728583984375,-7.471503170880675,-0.4656244382359087,-1.14789709257856
1772094470614808300,4.682808349609375,-6.526621782636642,-0.354517202270031,-0.9204247001186012
1772094470624757200,4.69275732421875,-5.506562696072459,-0.3824805833421647,-0.7335352240681647
1772094470634707200,4.702707275390625,-4.365396519184112,-0.4805522505156696,-0.5838987893521785
1772094470644657400,4.712657470703125,-3.2382559450387953,-0.7823565381214023,-0.4165412583760917
1772094470654606300,4.7226064453125,-1.811556670257449,-1.006232221263647,-0.3991019381994381
1772094470664556300,4.732556396484375,-0.5384872837424278,-0.9351219185128807,-0.3973146894564852
1772094470674505200,4.742505126953125,0.7284481300622224,-0.7423946762196719,-0.36719687029682097
1772094470684455400,4.752455322265625,1.6653619004279374,-0.5435617374625057,-0.41887419483568517
1772094470694405400,4.7624052734375,2.54722539922297,-0.3856218039773404,-0.49974820510130374
1772094470704354300,4.772354248046875,3.116915630480647,-0.24042525140494106,-0.4143061562677845
1772094470714304500,4.782304443359375,3.2437101187914608,-0.1995448133535683,-0.05960548718962818
1772094470724253400,4.79225341796875,3.325065044441819,-0.2817910618204623,0.3734494278855622
1772094470734203400,4.802203369140625,3.4329210235267875,-0.33139746183678503,0.8742007821474224
1772094470744153300,4.8121533203125,3.7418367505729195,-0.2970039015866816,1.3107451833061874
1772094470754102300,4.822102294921875,4.555570131471753,-0.2180450042273849,1.374471951676905
1772094470764052500,4.832052490234375,5.572312056311965,-0.11911803539879619,1.271615096053481
1772094470774001400,4.84200146484375,6.394386564576625,0.316720153719373,1.0814666912723332
1772094470783951400,4.851951416015625,7.082244910097121,0.589908478095755,0.9883551307242363
1772094470793901600,4.861901611328125,7.509428120127319,0.6693160690706222,0.9212491682440042
1772094470803850500,4.8718505859375,7.737768673723935,0.6593453677415847,0.9799739636089653
1772094470813800400,4.881800537109375,7.890658557277917,0.5437119595881551,1.1637081174336372
1772094470823749400,4.891749267578125,7.847772770753503,0.351784854696691,1.3969985485225915
1772094470833699300,4.90169921875,7.529914443317055,0.27356062828749417,1.6054845009617507
1772094470843648500,4.9116484375,6.975371512308716,0.293389291286096,1.6661206098407506
1772094470853598500,4.921598388671875,6.45062692271471,0.2098533683348447,1.672412403461337
1772094470863548200,4.931548095703125,6.173689803731441,0.20922515343390405,1.4544400991439819
1772094470873497300,4.941497314453125,5.982053717675805,0.35694128761179744,1.0374902599669993
1772094470883447300,4.951447265625,5.691500745794177,0.3843978882055729,0.6228808464363217
1772094470893396500,4.961396484375,5.344392358475924,0.37653855300731953,0.27450704229213296
1772094470903346200,4.97134619140625,4.399564161723852,0.5716838892929256,-0.21491733719352632
1772094470913296100,4.981296142578125,3.2194004379212853,0.4741373419720679,-0.5044506106385961
1772094470923245300,4.991245361328125,2.059104613149166,0.20599128607921302,-0.4882449604427442
1772094470933195300,5.0011953125,0.8431406771689652,0.11889913195110857,-0.6142655052389949
1772094470943144400,5.01114453125,0.029696050083637234,0.13260872754752634,-0.9376837318249046
1772094470953094100,5.02109423828125,-0.5905144080996513,-0.04738017533421516,-1.0645433943264186
1772094470963044400,5.03104443359375,-1.414461724498868,-0.43070371230654414,-0.9506692509304732
1772094470972993300,5.0409931640625,-2.1945441802084447,-0.8283555612955242,-0.7809748014394193
1772094470982943200,5.050943115234375,-2.8645196630358694,-0.9445902963429689,-0.6755186500377953
1772094470992892200,5.06089208984375,-3.2315561551392076,-0.6812411193378269,-0.7386079972878098
1772094471002842400,5.07084228515625,-3.456094978365302,-0.24781638456955551,-0.7640230090513825
1772094471012792300,5.080792236328125,-3.58079278665781,-0.051525312314927574,-0.5635296628013253
1772094471022741200,5.0907412109375,-3.5073347517371176,-0.39490357319414615,-0.20900365617033093
1772094471032691200,5.100691162109375,-3.094458884000778,-1.0098106642723084,0.1422574303805828
1772094471042640400,5.110640380859375,-2.9924767653852697,-1.420030464541912,0.35185821219384666
1772094471052590300,5.12059033203125,-3.621213059851527,-1.5373147817075252,0.29978951371721924
1772094471062540300,5.130540283203125,-4.53468691791892,-1.5877658889196813,0.21396219189316032
1772094471072489200,5.1404892578125,-5.67739506355226,-1.717197009344399,0.43791108640208837
1772094471082439400,5.150439453125,-6.992164241677522,-1.5772088390700518,0.7654712350983173
1772094471092388400,5.160388427734375,-8.295045998132228,-1.073431999507174,0.9391101844314486
1772094471102338300,5.17033837890625,-8.920047197723388,-0.3136703742273152,0.5660911107871681
1772094471112287200,5.180287353515625,-8.810410764962434,0.5415034897584468,-0.06652765113562345
1772094471122237400,5.190237548828125,-7.992797327759861,1.2172767721444369,-0.580245746737346
1772094471132187400,5.2001875,-6.485104361855983,1.5320282196067272,-0.7080123680159449
1772094471142135800,5.2101357421875,-4.727181082108617,1.5313044353768228,-0.575163621167466
1772094471152086000,5.2200859375,-3.006134703859687,1.2478754701562225,-0.29741021736525
1772094471162035000,5.230034912109375,-1.4160761739581822,0.7622665938381106,0.04650277144517749
1772094471171985000,5.23998486328125,0.02182312475144863,0.1603524745196104,0.34412714301776137
1772094471181935000,5.24993505859375,1.3196440906852482,-0.44710364296548066,0.6525600915156304
1772094471191884000,5.259884033203125,2.099555281481147,-0.7827765901643783,0.9883736162289977
1772094471201834000,5.269833984375,2.4524615414232014,-0.7073981085751205,1.10100389704369
1772094471211783000,5.279782958984375,2.8610224685698746,-0.4248934916578233,0.9427221643835305
1772094471221732900,5.28973291015625,3.403820601248741,-0.1527009368531406,0.777962979337573
1772094471231683000,5.29968310546875,3.971522289037704,0.02570953773073852,0.6607480741463602
1772094471241632000,5.309632080078125,4.499849997815489,0.0658400341976434,0.6421920614320784
1772094471251582000,5.31958203125,4.9110839435637,0.0036115415606647727,0.6308148543059825
1772094471261531000,5.32953076171875,5.18329987924397,-0.11192797776423394,0.5311113116143271
1772094471271481000,5.339481201171875,5.393251958712935,-0.25369075649566947,0.3984623251216486
1772094471281431000,5.34943115234375,5.396705314037203,-0.41114371018148954,0.2979443973071873
1772094471291380000,5.3593798828125,5.166808178648353,-0.5001246006656438,0.2526095005976036
1772094471301330000,5.369329833984375,4.822655718526244,-0.4435119751490652,0.23127152901459483
1772094471311279000,5.379279052734375,4.460439193925262,-0.2710798443224281,0.21029983346071093
1772094471321229000,5.38922900390625,4.011561453959345,-0.0737500766698271,0.12296994332028552
1772094471331179000,5.399178955078125,3.653369362568855,0.09408288979828357,-0.04947820705939084
1772094471341128000,5.4091279296875,3.4613697038978337,0.20193236607722936,-0.16248406145451588
1772094471351078100,5.419078125,3.19190160562098,0.3033824236426502,-0.2942174126733094
1772094471361027000,5.429027099609375,2.8339813169091936,0.5627412889026105,-0.4580113694163039
1772094471370977000,5.43897705078125,2.291525129535794,0.6878132642697542,-0.4062892558876425
1772094471380926700,5.4489267578125,1.5415905593305825,0.5654921219807117,-0.32536351543478664
1772094471390876200,5.458876220703125,0.9181202225685119,0.3923880832418799,-0.36578517686799167
1772094471400825900,5.468825927734375,0.7442910113602876,0.23312260024137793,-0.44883587358556687
1772094471410775000,5.478775146484375,0.8718658363938331,0.09040208239369094,-0.5378610050702467
1772094471420725000,5.48872509765625,1.096892150875926,-0.09862199453264474,-0.5921274327868595
1772094471430675000,5.498675048828125,1.2904635889083147,-0.2984858107075095,-0.5614632317908108
1772094471440623900,5.508623779296875,1.3265356037646532,-0.33499219839312133,-0.49505328875072296
1772094471450573800,5.51857373046875,1.1606523831248283,-0.2301891040727496,-0.451380443501845
1772094471460523000,5.52852294921875,0.6151245332211256,-0.10864932141974568,-0.3591645896844566
1772094471470473000,5.538472900390625,-0.14392974750697612,0.0025420126330107447,-0.2687845729921013
1772094471480422100,5.548422119140625,-0.560003534501791,0.17355236702822147,-0.21214432881623504
1772094471490371800,5.558371826171875,-0.5666477948218583,0.42283400184474884,-0.27393041144795716
1772094471500321800,5.56832177734375,-0.2803063031554222,0.6418254931420088,-0.37448308178223666
1772094471510271000,5.57827099609375,0.0007476034969091414,0.6333426922831684,-0.2710116379244253
1772094471520221000,5.588220947265625,0.15070318716466427,0.4819722003161907,-0.00011434709466993808
1772094471530169900,5.598169921875,0.16980360895395277,0.27043226713389157,0.3971805416828021
1772094471540119800,5.608119873046875,0.11922785244882106,0.1026911436676979,0.7295355599727481
1772094471550070000,5.618070068359375,0.0069195701301097865,-0.0018167670983821153,0.8697210063848644
1772094471560019000,5.62801904296875,-0.2186059260457754,-0.1651598748013377,0.8630203397024422
1772094471569969000,5.637968994140625,-0.6298954013735055,-0.3383351521454751,0.7334837130766362
1772094471579917800,5.647917724609375,-1.5309282955408094,-0.4934570325352251,0.6065547481985762
1772094471589868000,5.657867919921875,-2.873357049486041,-0.4954316936090588,0.5228543919332325
1772094471599818000,5.66781787109375,-4.469669379085302,-0.590079377683252,0.5874700719676912
1772094471609767000,5.677766845703125,-6.017238428303599,-0.8511071260035038,0.7735173981055616
1772094471619716900,5.687716796875,-7.45748633596599,-1.0237516574718057,0.7522326910797507
1772094471629665800,5.697665771484375,-8.441571607351303,-0.9839467396974563,0.36325543919466435
1772094471639616000,5.707615966796875,-8.552180100014805,-0.7198948212504387,-0.25264767718352377
1772094471649566000,5.71756591796875,-8.132965092384815,-0.4440167098008096,-0.7450779239542782
1772094471659515000,5.727514892578125,-7.483612126347422,-0.4979150348573923,-0.8778064784891902
1772094471669465000,5.737465087890625,-6.681919311854243,-0.7227768064275384,-0.6443913250420242
1772094471679414000,5.7474140625,-6.05856587947011,-0.90802947505638,-0.38285328911207617
1772094471689364000,5.757364013671875,-5.561543994060158,-1.1731504840396343,-0.38082817649263884
1772094471699314000,5.76731396484375,-5.040505857768655,-1.4923819995254277,-0.679521455938369
1772094471709262800,5.777262939453125,-4.458792011240124,-1.613257473050803,-1.0873535573538393
1772094471719213000,5.787213134765625,-3.977096874299645,-1.4342153494998813,-1.3215242053434253
1772094471729162000,5.797161865234375,-3.7832723382890223,-1.0629404891744256,-1.0283099052980542
1772094471739112000,5.80711181640625,-4.275646105632186,-0.46678500644788146,-0.3875113440509885
1772094471749062100,5.817062255859375,-4.261081573706865,-0.020281521332636474,-0.08430778410658239
1772094471759011000,5.827010986328125,-3.5911721418529745,0.2662176451135427,-0.11509151982907205
1772094471768961000,5.8369609375,-2.467108490934968,0.5756752970166504,-0.13055796903017908
1772094471778910000,5.846909912109375,-0.905268339779973,0.6948489350602031,-0.09778375361021607
1772094471788860000,5.85685986328125,0.7415659703105688,0.6096747433826327,0.044328934537433085
1772094471798810000,5.86681005859375,2.2965005798608065,0.5018202986676246,0.17789492627717554
1772094471808759000,5.876759033203125,3.5173441045761105,0.3915166341695934,0.32345695116110146
1772094471818709000,5.886708984375,4.507687851834297,0.3542327593054622,0.3900035992581397
1772094471828658000,5.896657958984375,5.337428364682197,0.28810265612006186,0.3350602221280336
1772094471838608100,5.906608154296875,6.166979492437839,0.22084332970902323,0.21872436479367313
1772094471848557800,5.916557861328125,6.8495046602368355,0.13976868230476974,0.08371873217225075
1772094471858507000,5.926507080078125,7.341954999947547,0.0785709209550172,-0.011305530129373072
1772094471868457000,5.93645703125,7.7338792650699615,0.16921601832434535,-0.06525927516762167
1772094471878406100,5.94640625,7.898678782126307,0.3990929877080023,-0.039701530465111136
1772094471888356000,5.956356201171875,7.832680415561795,0.5244019136361777,0.17401432198416442
1772094471898305800,5.966305908203125,7.710056490933894,0.4706671085782349,0.47400052731726317
1772094471908255000,5.9762548828125,7.580152930691837,0.51199543652758,0.647987961294502
1772094471918205000,5.986204833984375,7.394808053734898,0.6295464418053627,0.7055727197788655
1772094471928154000,5.996154052734375,7.116673833921551,0.687392773835361,0.7866339962448924
1772094471938103800,6.006103759765625,6.775423524981737,0.563947888213396,0.8734162807062268
1772094471948054000,6.016053955078125,6.419716236144304,0.46216406864896414,0.8414324119463562
1772094471958003000,6.0260029296875,5.942993042397498,0.4526362157166004,0.6282584478214382
1772094471967953000,6.035952880859375,5.567376353475451,0.4361817783914506,0.2888133068737574
1772094471977901800,6.04590185546875,5.173963895621895,0.3648601709775626,-0.09047746745115146
1772094471987851800,6.055851806640625,4.756564412981271,0.32262714927345515,-0.45947333172764626
1772094471997802000,6.065802001953125,4.339585786101222,0.4125226703844964,-0.723959878732264
1772094472007751000,6.0757509765625,3.6902678913772102,0.5226872186727821,-0.8135903922315686
1772094472017700900,6.085700927734375,2.617798234096169,0.4646297281101346,-0.7349050511166453
1772094472027649800,6.09564990234375,1.208109715348482,0.4119736581996083,-0.7775782178036869
1772094472037600000,6.10560009765625,-0.37201603408157824,0.27834946999922394,-0.9333511825133115
1772094472047550000,6.115550048828125,-1.9503817881017922,0.08291150744259357,-0.8778048710539936
1772094472057499000,6.125498779296875,-3.329026933810115,0.06727116297930479,-0.6628840632617473
1772094472067448800,6.13544873046875,-4.112087528547645,-0.02613777308017015,-0.4251493661150336
1772094472077398000,6.14539794921875,-4.5069449245125055,-0.33319705860465765,-0.12398352254331112
1772094472087348000,6.155347900390625,-4.329246762916445,-0.4060127039685845,-0.26772158340308816
1772094472097298000,6.1652978515625,-3.817560976859927,-0.2634558522500098,-0.760186645758897
1772094472107246800,6.175246826171875,-3.7158074063032864,-0.27423472815677524,-1.0328969408273696
1772094472117197000,6.185197021484375,-4.127366930744052,-0.5355481615506112,-1.1179565662145614
1772094472127146000,6.19514599609375,-4.555913830342889,-0.7753319001816212,-1.1188742655813693
1772094472137096000,6.205095947265625,-4.9921746653199195,-0.88872198638767,-0.9503862692706286
1772094472147050500,6.215050537109375,-5.353322683906555,-0.8318518059134483,-0.5639894258001819
1772094472156999400,6.22499951171875,-5.4742795521050684,-0.593414075063914,-0.11145217694602906
1772094472166949400,6.234949462890625,-5.574951757165789,-0.1949488638654351,0.2010750551281497
1772094472176898300,6.244898193359375,-5.7911114591032264,0.2391689677335322,0.4748468784809112
1772094472186848500,6.2548486328125,-5.938070199042558,0.5579321350552141,0.6616949265424161
1772094472196798200,6.264798095703125,-5.532727649420499,0.6527658432208001,0.8454755498573183
1772094472206747400,6.274747314453125,-4.887016254755855,0.5773268636159599,0.9791507375925779
1772094472216697300,6.284697265625,-4.12283747062087,0.4291660544104874,0.9899470030255615
1772094472226647300,6.294647216796875,-3.060814388552308,0.27190321646928783,0.9158028855368494
1772094472236596200,6.30459619140625,-1.7938900806635618,0.05515417033657431,0.8587956346794963
1772094472246546200,6.314546142578125,-0.666857058545947,-0.20772709689587354,0.8196944081950932
1772094472256495400,6.324495361328125,0.3873217397630214,-0.4263853376507759,0.7416146317578852
1772094472266445300,6.3344453125,1.5423790793597698,-0.5696522373348474,0.6484763293333351
1772094472276395300,6.344395263671875,2.6499884390830992,-0.615971359308809,0.5605843300644308
1772094472286344200,6.35434423828125,3.6647991035997864,-0.6649320818327367,0.5100587693765759
1772094472296294100,6.364294189453125,4.5086341927737,-0.7828069122374057,0.5191170320358127
1772094472306243000,6.3742431640625,5.098457111477852,-1.0200329292096197,0.5858561339650302
1772094472316193300,6.384193359375,5.477487992757559,-1.2313953138679266,0.5746493880350142
1772094472326143200,6.394143310546875,5.535696436098218,-1.38225836776942,0.568425910410285
1772094472336092200,6.404092041015625,5.268629553744197,-1.5297800022885202,0.48271797718219456
1772094472346042400,6.41404248046875,4.936680741634965,-1.5770649005547166,0.3759860336910933
1772094472355991300,6.4239912109375,4.571721055805683,-1.4655036372110246,0.3247570374416187
1772094472365941200,6.433941162109375,4.199050357207656,-1.2866492913171648,0.2910037113238126
1772094472375891200,6.44389111328125,3.7494016328692434,-1.0991657948963343,0.3286912716180086
1772094472385840000,6.453840087890625,3.21064488453567,-0.921661840698123,0.32731662226393815
1772094472395790300,6.463790283203125,2.6914772182911633,-0.7636281645148992,0.2336246680120006
1772094472405739300,6.4737392578125,2.2451006474912165,-0.7066102461330592,0.1202103241475299
1772094472415689200,6.483689208984375,1.8653467126339673,-0.6939810661844908,-0.06198248198665678
1772094472425639400,6.493639404296875,1.4613509014457464,-0.6727782652884722,-0.23011642242902888
1772094472435588400,6.50358837890625,0.9615718262821435,-0.5574154907699674,-0.26077410235274584
1772094472445538300,6.513538330078125,0.2767144161432981,-0.39722456348761914,-0.2762294821705669
1772094472455488300,6.52348828125,-0.6219874047279358,-0.21337825452536344,-0.3411072106746956
1772094472465437200,6.533437255859375,-1.6521125427544117,-0.052513300438970324,-0.43404728711340573
1772094472475387400,6.543387451171875,-2.655583482611179,0.13769399492256343,-0.6139839848838746
1772094472485336300,6.55333642578125,-3.4695845745354887,0.31266843064315614,-0.8796334016554057
1772094472495286300,6.563286376953125,-3.799927120491862,0.4447014041293412,-1.1142539123043418
1772094472505235200,6.573235107421875,-3.7179520171165463,0.5710957872066647,-1.280057199575752
1772094472515185400,6.583185302734375,-3.399639516171813,0.5916748301811516,-1.2701808254666627
1772094472525135400,6.59313525390625,-2.9759160912066696,0.4859565937772393,-1.0885597913384437
1772094472535084300,6.603084228515625,-2.429639468762278,0.3571097029812634,-0.9038489745013415
1772094472545034500,6.613034423828125,-1.7389684039086102,0.2296138614680618,-0.7186961129851639
1772094472554984400,6.622984375,-0.9189017283350229,0.058477104214206335,-0.5873145891450345
1772094472564933400,6.632933349609375,-0.12488017912209033,-0.14829086532592772,-0.3895636004056781
1772094472574883300,6.64288330078125,0.586046322774887,-0.2676976545382291,-0.1365165121084079
1772094472584832300,6.652832275390625,1.156402324464917,-0.19503566536605357,0.01601871278900653
1772094472594782500,6.662782470703125,1.6941648010641335,-0.00836596954613924,0.057417694821767506
1772094472604732200,6.672732177734375,2.321022442176938,0.23100706939212975,0.03400375721491873
1772094472614681300,6.682681396484375,3.0228754107803106,0.3797157948039472,0.11003080237340182
1772094472624631300,6.69263134765625,3.75377210303843,0.3835721049059182,0.26321886515635995
1772094472634580500,6.70258056640625,4.409212280035018,0.28461854033134876,0.39854594828449186
1772094472644530200,6.7125302734375,4.832009822326898,0.16935381935983895,0.5336391861241311
1772094472654480100,6.722480224609375,4.944357852134108,0.011318097350001334,0.5748129810988902
1772094472664429300,6.73242919921875,4.938224463945627,-0.22254319242946802,0.5158459014106541
1772094472674379300,6.742379150390625,4.614781614375114,-0.44949419136382635,0.6127308064850047
1772094472684329200,6.7523291015625,3.620165012103319,-0.5543858407504856,0.9010441462136805
1772094472694278100,6.762278076171875,2.0706740549117324,-0.5453549775548279,1.2321258200995624
1772094472704228400,6.772228271484375,0.2936602902472019,-0.2663002818956971,1.2445048246793449
1772094472714177300,6.78217724609375,-1.5770856510818003,0.08505012690648436,1.051707951216027
1772094472724127200,6.792127197265625,-3.4404636939913034,0.2501237116638571,0.7050028840016573
1772094472734077200,6.8020771484375,-5.017844528627395,0.004626052365452051,0.28504695834387095
1772094472744026000,6.812026123046875,-6.4989370723754165,-0.36867841409146784,-0.14696876814300194
1772094472753976300,6.821976318359375,-7.689984009242058,-0.5384480477105826,-0.4683841122075915
1772094472763925200,6.83192529296875,-8.263215858629346,-0.4213406580144539,-0.7708911412551999
1772094472773875200,6.841875244140625,-8.153677041023968,-0.1651327310660854,-1.1811997157867997
1772094472783825400,6.851825439453125,-7.5892270485073325,0.08153937883917242,-1.3195631344035268
1772094472793774300,6.8617744140625,-6.799948309907316,0.2199677524508908,-0.9351983447499572
1772094472803724300,6.871724365234375,-5.960607025021314,0.16217033759653568,-0.2269526794347912
1772094472813673200,6.881673095703125,-5.60846473518908,-0.24500636865012346,0.5159854560118168
1772094472823623200,6.891623046875,-5.694649565213918,-0.8453772040493786,0.8330822975564748
1772094472833573400,6.901573486328125,-5.513434335407615,-1.2221049960184842,0.5258523681728169
1772094472843522300,6.911522216796875,-5.4324143408000465,-1.0305717858154326,-0.11216894691325724
1772094472853472300,6.92147216796875,-5.164492887443304,-0.5809529451586306,-0.9488071103204041
1772094472863422500,6.93142236328125,-4.433426683837175,-0.32992826606705783,-1.4855758266419172
1772094472873371400,6.941371337890625,-3.663360010707378,-0.31935441121309993,-1.3433558056622743
1772094472883321300,6.9513212890625,-2.900245056411624,-0.42658159087523817,-0.9462900129329412
1772094472893270300,6.961270263671875,-2.0584102011442185,-0.3283634279031306,-0.7870398736320435
1772094472903220200,6.97122021484375,-1.272984046319127,0.1316261462509632,-0.9346241250585764
1772094472913170400,6.98117041015625,-0.39695933668017386,0.5062365076746791,-1.0216541006706654
1772094472923119400,6.991119384765625,0.597673047682643,0.6057611501354724,-1.0575905064485966
1772094472933069300,7.0010693359375,1.7248761656701563,0.5941224790615961,-1.0555409535076468
1772094472943018200,7.011018310546875,2.7946365639925,0.5851440036403015,-0.8394006138578057
1772094472952968400,7.020968505859375,3.4603578965067863,0.4823975130561739,-0.5301067011490463
1772094472962918400,7.03091845703125,3.707530576345324,0.22412315509729086,-0.4241611587952822
1772094472972867300,7.040867431640625,3.7658202682286497,-0.13863668260015546,-0.21227577317617832
1772094472982817300,7.0508173828125,3.8082904596894975,-0.4227088045625016,0.062465224002301686
1772094472992767200,7.060767333984375,3.7779222094327207,-0.6257433962605893,0.251503037193045
1772094473002716400,7.07071630859375,3.885952376040816,-0.7260127926740795,0.4451919641252607
1772094473012666000,7.080666015625,4.148491551837325,-0.7053231289319694,0.660521352718398
1772094473022615300,7.090615234375,4.404103558719158,-0.6139982326049357,0.9191205587174743
1772094473032565200,7.100565185546875,4.702283956739306,-0.51201414122805,1.22502446366176
1772094473042515200,7.11051513671875,5.023383458054066,-0.4355999599155038,1.5131810419261456
1772094473052464000,7.120464111328125,5.4091603064626455,-0.3799544258654117,1.6586343457385897
1772094473062414300,7.130414306640625,5.807340124848484,-0.25350602931221944,1.7409852966889738
1772094473072363300,7.14036328125,6.073526717236637,-0.10861728231366723,1.7750266825005412
1772094473082313200,7.150313232421875,6.1395128088414666,-0.08842073585074395,1.7640929082930088
1772094473092263200,7.16026318359375,5.945684181177616,-0.16076956742051987,1.656781703609228
1772094473102212000,7.170212158203125,5.674880450382829,-0.1750423133250326,1.3463456351280212
1772094473112162300,7.180162353515625,5.585997467315197,-0.05813431865852326,0.9818142577134072
1772094473122112300,7.1901123046875,5.523778619289398,0.07953987558502704,0.6525467936426401
1772094473132061200,7.200061279296875,5.293065491342544,0.14939864390473812,0.3698142862536013
1772094473142007600,7.210007568359375,4.788806055894494,0.18810513545051216,0.09995976420873776
1772094473151956500,7.21995654296875,4.1766655069202185,0.22695655189231037,-0.14504059482570736
1772094473161906400,7.229906494140625,3.7452293156206604,0.3191400378100574,-0.2853991327824071
1772094473171856600,7.239856689453125,3.184988465231657,0.37101613632403313,-0.30996319027245045
1772094473181805600,7.2498056640625,2.157351636889577,0.35449689013436436,-0.25068145514447243
1772094473191755500,7.259755615234375,0.7044570136219263,0.32026034707687795,-0.17707730801766738
1772094473201704400,7.269704345703125,-1.1279805321007967,0.2518281774941832,-0.17094149041008203
1772094473211654400,7.279654296875,-2.900362545311451,0.2883173948492855,-0.3513614781854674
1772094473221604600,7.2896044921875,-4.074754115453362,0.3881296220798045,-0.5947144901379943
1772094473231553500,7.299553466796875,-4.83027262327075,0.5431990416299551,-0.8059025411427021
1772094473241503500,7.30950341796875,-5.000519884338975,0.6309263518564403,-0.8411182314306497
1772094473251453700,7.31945361328125,-4.624119351562857,0.38101854796558615,-0.6056775635052472
1772094473261402600,7.329402587890625,-4.221644466331601,-0.11174816421791911,-0.29989567750543356
1772094473271352600,7.3393525390625,-3.7611364943265913,-0.5512073568448425,-0.24621073947120456
1772094473281301500,7.349301513671875,-3.250531489244103,-0.7814597354121505,-0.44447939540911463
1772094473291251500,7.35925146484375,-3.0556606590509414,-0.8042840000301599,-0.7164026682857424
1772094473301201700,7.36920166015625,-3.4923201379567383,-0.7036844218142331,-0.8564929106950759
1772094473311150600,7.379150634765625,-4.385817375922203,-0.45813254811055953,-0.5860672194324433
1772094473321100500,7.3891005859375,-5.4633928319096565,0.045409021391719574,-0.13420450883898882
1772094473331050800,7.39905078125,-6.517721267822385,0.611543240668252,0.26113197587970643
1772094473340999700,7.408999755859375,-7.0158648507386445,1.099629028493911,0.5177539269890636
1772094473350949600,7.41894970703125,-6.750600049370527,1.419392751160264,0.6800685684271156
1772094473360898600,7.428898681640625,-5.862306225267052,1.5005957011193036,0.7332206051610409
1772094473370848800,7.438848876953125,-4.292190997719764,1.2641124653384088,0.67999732982181
1772094473380798500,7.448798583984375,-2.4753303758352994,0.7758342236805706,0.5691133081525563
1772094473390747600,7.45874755859375,-0.8201005778431892,0.22625362778734415,0.4271942428808659
1772094473400697300,7.468697265625,0.6070102003484964,-0.2675960573272779,0.3272106411388144
1772094473410646500,7.478646484375,1.6295038205832242,-0.6390967988304793,0.3477772630231455
1772094473420596500,7.488596435546875,2.357448092776537,-0.8803414768595248,0.4157041499648243
1772094473430546400,7.49854638671875,2.811636214110255,-0.9393318643581121,0.4067028416572138
1772094473440495600,7.50849560546875,3.278499108099937,-0.837442976984009,0.27644038497488943
1772094473450445600,7.518445556640625,3.7640731323003767,-0.6961316683471203,0.17536385516328737
1772094473460395500,7.5283955078125,4.1519332167237994,-0.6372346582204103,0.1108337345204316
1772094473470344400,7.538344482421875,4.446456845802069,-0.6461685638476162,0.046333150499314066
1772094473480294400,7.54829443359375,4.6529164069801565,-0.7672741198018193,0.05802694929391145
1772094473490243300,7.558243408203125,4.7693151734828945,-1.0038261099699883,0.028472116045560686
1772094473500193500,7.568193603515625,4.838045595359802,-1.259226885253936,-0.008777546021714806
1772094473510143500,7.5781435546875,4.763292844453454,-1.443792448401451,0.014606507903523743
1772094473520092400,7.588092529296875,4.526787104579806,-1.465011615910381,0.011635858062282204
1772094473530042600,7.598042724609375,4.227535862457752,-1.3981556096032262,-0.025721337766386566
1772094473539992600,7.60799267578125,3.874277720338106,-1.295888244305551,-0.10678129905816167
1772094473549941500,7.61794140625,3.420089599004388,-1.2529611028574406,-0.2185042009706609
1772094473559891500,7.627891357421875,2.799794969668984,-1.163713889587298,-0.373641370261088
1772094473569840400,7.63784033203125,1.9574574255764483,-0.8557309133466333,-0.6629166503570973
1772094473579790600,7.64779052734375,0.9860749838978051,-0.5341495102664455,-0.8939275922067463
1772094473589740500,7.657740478515625,0.05958966856598854,-0.3082807536108419,-0.8850807072758674
1772094473599689500,7.667689453125,-0.8582470608860254,-0.08697579773943871,-0.7346018303863704
1772094473609639700,7.6776396484375,-1.720619092747569,0.1101989163487684,-0.6036877413948998
1772094473619589600,7.687589599609375,-2.422161680227518,0.16219923489745705,-0.514500478151068
1772094473629538600,7.69753857421875,-2.8330887519836425,0.1377530042339582,-0.556692400659807
1772094473639488500,7.707488525390625,-3.098291009509563,0.1003077008635737,-0.649468555241078
1772094473649437400,7.7174375,-3.3891052626758813,0.14338332913797347,-0.7560158628802746
1772094473659387600,7.7273876953125,-3.526671904891729,0.3022620778432116,-0.8777889428324996
1772094473669337600,7.737337646484375,-3.3955577998161313,0.5087016922118142,-0.824651007689163
1772094473679286500,7.74728662109375,-3.2439538644194603,0.6024859643897041,-0.6736348090525716
1772094473689236700,7.75723681640625,-3.084056147930026,0.48753582579270005,-0.5281202765721827
1772094473699186700,7.767186767578125,-2.880737222865224,0.28107356120087207,-0.30497509966157377
1772094473709135600,7.777135498046875,-2.702168123653531,0.2197609412997961,-0.09429592976076528
1772094473719085600,7.78708544921875,-2.3746423886835575,0.261581327082403,-0.04252792213060893
1772094473729034500,7.797034423828125,-1.9571873764634131,0.2167930862038396,-0.032163458543899466
1772094473738984700,7.806984619140625,-1.768631720766425,0.17484489105679094,0.07637110022264532
1772094473748934400,7.816934326171875,-1.8752414991825819,0.1562154477801174,0.322785481640324
1772094473758883600,7.826883544921875,-1.83124921272099,0.13057811676906422,0.6036528527446091
1772094473768833500,7.83683349609375,-1.4264970302075146,0.12062812943449243,0.7249703709490597
1772094473778783500,7.846783447265625,-0.7918231623858213,0.10101771229645237,0.8091091551642865
1772094473788732400,7.856732421875,0.21453940725922582,0.018250016646675065,0.8402670944940298
1772094473798682400,7.866682373046875,1.2379600792109966,-0.06847783535532653,0.8865640777014195
1772094473808631600,7.876631591796875,2.0048411080420014,-0.1828606223931536,0.9252524856012314
1772094473818581500,7.88658154296875,2.4624247170329094,-0.3132702324612066,0.8728113005504011
1772094473828531500,7.896531494140625,2.6239339603722094,-0.42976475095599886,0.7798120412703603
1772094473838480400,7.90648046875,2.5541975763231513,-0.48894313530735667,0.6850954566784203
1772094473848430600,7.9164306640625,2.553282215043902,-0.48976979538984594,0.5337704843536019
1772094473858380500,7.926380615234375,2.732336467424035,-0.466440357728675,0.32536340583693235
1772094473868329500,7.93632958984375,3.0404689351379868,-0.4262597019771114,0.20542188869342207
1772094473878279400,7.946279541015625,3.3597885672986507,-0.37211828887965526,0.051269328259862954
1772094473888228600,7.956228515625,3.5338813978791235,-0.30373682657089085,-0.08170114527214319
1772094473898178600,7.966178466796875,3.462378004157543,-0.2313981876015663,-0.08491930360104888
1772094473908128500,7.97612841796875,3.3872710329860447,-0.1664712313945405,-0.057165875485166905
1772094473918077400,7.986077392578125,3.3727076701045036,-0.08938779078461229,-0.11381802929453551
1772094473928027600,7.996027587890625,3.426814523345232,-0.07708824464920908,-0.219598371149227
1772094473937977600,8.0059775390625,3.3950825835198164,-0.07808441607970744,-0.30782676276564597
1772094473947926500,8.015926513671875,3.38351255723536,-0.1292976302381605,-0.37199400491286067
1772094473957876500,8.02587646484375,3.2937486996799707,-0.2138567587573081,-0.31335630330946296
1772094473967825700,8.03582568359375,2.8756109658926725,-0.13736487256605176,-0.28130130554214117
1772094473977775600,8.045775634765626,2.086760681837797,0.03618628888577222,-0.3467086474109441
1772094473987725600,8.0557255859375,1.0989058287858962,0.2601685742076486,-0.6017388723494485
1772094473997674500,8.065674560546874,0.2580769356906414,0.42121706816740334,-1.01178671358563
1772094474007624700,8.075624755859375,-0.4788274725496769,0.4631610437970608,-1.3428876036286352
1772094474017574700,8.08557470703125,-1.1168190866172314,0.32283516600094736,-1.391492352321744
1772094474027523600,8.095523681640625,-2.0177455978006122,-0.028205811525881287,-1.2088334995783865
1772094474037473500,8.1054736328125,-3.654726622396707,-0.5208986547555774,-0.5825447443947196
1772094474047422700,8.115422607421875,-5.753272434574365,-0.7010075307551771,-0.08154109587222337
1772094474057372700,8.12537255859375,-7.724189645704627,-0.38234314763285215,-0.14220580979119984
1772094474067322400,8.135322265625,-8.4917072188735,0.1667591266915202,-0.43553193618059155
1772094474077271600,8.145271484375,-7.905948480868339,0.4915569710675627,-0.6983743327073753
1772094474087221500,8.155221435546874,-6.7152779760986565,0.29963052376322447,-0.47405521664656697
1772094474097171500,8.16517138671875,-5.633834154245257,-0.26834866579286754,0.1664877624042332
1772094474107120600,8.17512060546875,-4.803492752894759,-0.8349030832428485,0.6884737009398639
1772094474117070300,8.1850703125,-4.37756041970849,-1.2094739894390105,0.45758580094799395
1772094474127019500,8.19501953125,-4.448630098187923,-1.59397877208516,0.3291420841254294
1772094474136969500,8.204969482421875,-4.820440380564332,-1.825983401147276,0.17223843488544224
1772094474146923500,8.214923583984374,-4.771329435914755,-2.0678456996180117,0.13898029013974592
1772094474156872400,8.22487255859375,-4.42739383341372,-1.82640001912415,0.19478695130199192
1772094474166822400,8.234822509765625,-3.7971921425700184,-1.087278665486723,0.09571208016900346
1772094474176772600,8.244772705078125,-2.9464959354549642,-0.30725700005367396,0.1259269847612828
1772094474186721500,8.254721435546875,-2.095332695350051,0.2895131805051118,0.2273365459195338
1772094474196671500,8.26467138671875,-1.1928414190679788,0.7037418510898947,0.135437667363137
1772094474206620400,8.274620361328125,-0.24965572882592676,0.8969539542905985,-0.012345266706962137
1772094474216570600,8.284570556640626,0.7661877858698367,0.8426266632322221,-0.20171855892976745
1772094474226520600,8.2945205078125,1.772190290030837,0.5947282264024019,-0.5010222070924938
1772094474236469500,8.304469482421876,2.5546698700100183,0.45476635961309075,-0.6493268817480653
1772094474246419500,8.31441943359375,3.0356746865987776,0.49527529747094956,-0.4154219720225781
1772094474256369700,8.32436962890625,3.325558965438604,0.5433557300290093,-0.21931493283165618
1772094474266318600,8.334318603515625,3.5714071186751126,0.545261782846041,-0.030664246661821378
1772094474276268500,8.3442685546875,3.8722108509361743,0.5906311298144981,0.18157262840922922
1772094474286218800,8.35421875,4.0782630003571505,0.5577575822059064,0.40866935595721005
1772094474296167700,8.364167724609375,4.403498578563332,0.40036976617816833,0.48244990083053707
1772094474306117600,8.37411767578125,4.83939058022797,0.27020236736815423,0.4366614881997928
1772094474316066600,8.384066650390626,5.386676087453961,0.16811565586701036,0.3944518473712727
1772094474326016500,8.3940166015625,5.87806902706623,-0.0066092620719224214,0.640880467376858
1772094474335966500,8.403966552734374,5.683301072725653,-0.5091691270604729,1.0945137313067912
1772094474345915600,8.41391552734375,5.863710831367969,-0.7114682075582445,1.2031887716896832
1772094474355865600,8.423865478515625,6.42750089867115,-0.6711104051414877,0.8005243552356958
1772094474365815600,8.433815673828125,6.4276417684465645,-0.4009652113206684,0.5653236335460097
