time,seconds_elapsed,z,y,x
1772094466018114800,0.08611474609375,-0.046967051923274994,-0.2006298005580902,-0.2691929340362549
1772094466028063700,0.096063720703125,-0.07681913673877716,-0.16377227008342743,-0.3321978449821472
1772094466038013700,0.106013671875,-0.07427714765071869,-0.052424706518650055,-0.35149696469306946
1772094466047962600,0.115962646484375,-0.047394830733537674,0.14069685339927673,-0.33272886276245117
1772094466057912600,0.12591259765625,-0.02445170097053051,0.4054507315158844,-0.2665988504886627
1772094466067861800,0.13586181640625,0.005650680046528578,0.7360306978225708,-0.17941471934318542
1772094466077811700,0.145811767578125,0.0649118721485138,1.07090163230896,-0.10910621285438538
1772094466087760600,0.1557607421875,0.13282626867294312,1.3573087453842163,-0.06419418752193451
1772094466097710600,0.165710693359375,0.1630651354789734,1.5475585460662842,-0.04753478989005089
1772094466107659800,0.17565966796875,0.1788509488105774,1.4424141645431519,-0.06090512499213219
1772094466117609700,0.185609619140625,0.1668422371149063,0.9782060384750366,-0.08815140277147293
1772094466127559700,0.1955595703125,0.0990249514579773,0.2952500879764557,-0.1355268657207489
1772094466137512200,0.20551220703125,0.014282099902629852,-0.535232424736023,-0.19925551116466522
1772094466147462400,0.21546240234375,-0.012646164745092392,-1.3695498704910278,-0.2747810184955597
1772094466157411300,0.225411376953125,0.11067550629377365,-1.9615068435668945,-0.2658088207244873
1772094466167361300,0.235361328125,0.3053240180015564,-2.202174186706543,-0.01304829865694046
1772094466177310200,0.245310302734375,0.44282835721969604,-1.9763537645339966,0.5940030217170715
1772094466187260400,0.255260498046875,0.5038238167762756,-1.156455636024475,1.355709195137024
1772094466197209300,0.265209228515625,0.506707489490509,-0.13449367880821228,1.8476794958114624
1772094466207159300,0.2751591796875,0.5207105278968811,0.5789422392845154,1.8201322555541992
1772094466217108200,0.285108154296875,0.5759652853012085,0.8607486486434937,1.3486329317092896
1772094466227058200,0.29505810546875,0.6001808643341064,0.7014153599739075,0.7065691947937012
1772094466237007400,0.30500732421875,0.5222647190093994,0.1793886423110962,0.14424194395542145
1772094466246957300,0.314957275390625,0.37106820940971375,-0.6112567782402039,-0.282048761844635
1772094466256906200,0.32490625,0.1824982911348343,-1.4875388145446777,-0.5783872008323669
1772094466266856200,0.334856201171875,-0.04654942452907562,-2.1463732719421387,-0.7960444092750549
1772094466276806400,0.344806396484375,-0.2901895046234131,-2.592867612838745,-0.9617260694503784
1772094466286755300,0.35475537109375,-0.5096958875656128,-2.7781810760498047,-0.9770932793617249
1772094466296705300,0.364705322265625,-0.6223880648612976,-2.655393600463867,-0.8166258335113525
1772094466306654200,0.374654296875,-0.583223819732666,-2.28647518157959,-0.5508630275726318
1772094466316604400,0.3846044921875,-0.39819827675819397,-1.7644087076187134,-0.24884404242038727
1772094466326553300,0.39455322265625,-0.13789765536785126,-1.1871229410171509,0.03299693390727043
1772094466336503300,0.40450341796875,0.08984442800283432,-0.6410518884658813,0.21786318719387054
1772094466346452200,0.4144521484375,0.19884617626667023,-0.25715404748916626,0.2662574350833893
1772094466356402400,0.42440234375,0.17055915296077728,-0.04914626106619835,0.16664378345012665
1772094466366351400,0.434351318359375,0.06052079051733017,0.12189525365829468,-0.02422124333679676
1772094466376301300,0.44430126953125,-0.07805519551038742,0.3094784617424011,-0.23108786344528198
1772094466386250200,0.454250244140625,-0.2362411767244339,0.5449915528297424,-0.4412902295589447
1772094466396200200,0.4642001953125,-0.36811399459838867,0.8336396217346191,-0.6272749900817871
1772094466406149400,0.4741494140625,-0.44395145773887634,1.1218427419662476,-0.7728708982467651
1772094466416099300,0.484099365234375,-0.4810623526573181,1.3588651418685913,-0.8447975516319275
1772094466426049300,0.49404931640625,-0.5056224465370178,1.5611029863357544,-0.8478360176086426
1772094466435998200,0.503998291015625,-0.49216148257255554,1.7873973846435547,-0.7866805195808411
1772094466445948400,0.513948486328125,-0.4371437728404999,2.0234997272491455,-0.6697696447372437
1772094466455897300,0.5238974609375,-0.3543378412723541,2.1769402027130127,-0.5222403407096863
1772094466465847300,0.533847412109375,-0.2188364565372467,2.1742560863494873,-0.3420269191265106
1772094466475796200,0.543796142578125,-0.10071355849504471,2.1020474433898926,-0.1416538655757904
1772094466485746400,0.553746337890625,-0.024345312267541885,1.9980770349502563,0.059267476201057434
1772094466495695400,0.5636953125,0.0009240917861461639,1.81650972366333,0.25438424944877625
1772094466505645300,0.573645263671875,-0.020086269825696945,1.6758853197097778,0.43602678179740906
1772094466515594200,0.58359423828125,-0.04058302193880081,1.5228331089019775,0.5899446606636047
1772094466525544400,0.59354443359375,-0.06996526569128036,1.2925084829330444,0.6987485885620117
1772094466535493400,0.603493408203125,-0.06895112991333008,1.0024316310882568,0.7327331900596619
1772094466545443300,0.613443359375,-0.03815196081995964,0.6953316330909729,0.6734657287597656
1772094466555393300,0.623393310546875,0.031560007482767105,0.36828023195266724,0.5234176516532898
1772094466565342200,0.63334228515625,0.1562330424785614,0.11622115224599838,0.3920612335205078
1772094466575292400,0.64329248046875,0.2448875457048416,0.018117757514119148,0.3427077829837799
1772094466585241300,0.653241455078125,0.2614322006702423,0.042678073048591614,0.3309341073036194
1772094466595191300,0.66319140625,0.22315429151058197,0.08898378908634186,0.30533286929130554
1772094466605140200,0.67314013671875,0.23917527496814728,0.15321730077266693,0.20058225095272064
1772094466615090400,0.68309033203125,0.31844398379325867,0.311556339263916,0.056741733103990555
1772094466625039400,0.693039306640625,0.4001862406730652,0.5804794430732727,-0.02964034304022789
1772094466634989300,0.7029892578125,0.39069873094558716,0.9194723963737488,-0.017952796071767807
1772094466644938200,0.712938232421875,0.28200966119766235,1.1354440450668335,0.051472947001457214
1772094466654888400,0.722888427734375,0.1145429015159607,1.1019045114517212,0.08850286900997162
1772094466664837400,0.73283740234375,-0.06341370940208435,0.8058055639266968,0.046287890523672104
1772094466674787300,0.742787353515625,-0.20678871870040894,0.2966161072254181,-0.07750914990901947
1772094466684736300,0.752736328125,-0.36323344707489014,-0.2899661660194397,-0.2936263978481293
1772094466694686200,0.762686279296875,-0.5757113695144653,-0.9445474743843079,-0.5774996876716614
1772094466704636400,0.772636474609375,-0.8049175143241882,-1.4704036712646484,-0.8273874521255493
1772094466714585300,0.78258544921875,-0.9792208671569824,-1.5768160820007324,-0.9762826561927795
1772094466724535300,0.792535400390625,-1.0552489757537842,-1.2466024160385132,-1.0287975072860718
1772094466734484200,0.802484130859375,-0.9976765513420105,-0.5743916034698486,-1.0118660926818848
1772094466744434400,0.812434326171875,-0.8627336025238037,0.17763623595237732,-1.0114562511444092
1772094466754383400,0.82238330078125,-0.7095634937286377,0.5829155445098877,-1.087829828262329
1772094466764333300,0.832333251953125,-0.6191638708114624,0.575526237487793,-1.2090632915496826
1772094466774282200,0.8422822265625,-0.6067050695419312,0.41832759976387024,-1.2952330112457275
1772094466784232400,0.852232421875,-0.6563807129859924,0.11792637407779694,-1.3255219459533691
1772094466794181400,0.862181396484375,-0.7351879477500916,-0.234763503074646,-1.3069992065429688
1772094466804131300,0.87213134765625,-0.7621800899505615,-0.5229662656784058,-1.2156354188919067
1772094466814080300,0.882080322265625,-0.7078372240066528,-0.663407027721405,-1.1085983514785767
1772094466824030500,0.892030517578125,-0.6167609095573425,-0.6838170886039734,-1.0421699285507202
1772094466833979400,0.9019794921875,-0.47398561239242554,-0.5880317091941833,-0.9693755507469177
1772094466843929300,0.911929443359375,-0.2687183618545532,-0.3668839931488037,-0.8081678152084351
1772094466853879300,0.92187939453125,-0.07009821385145187,-0.04801521450281143,-0.48553547263145447
1772094466863828200,0.931828125,0.09257356822490692,0.32215720415115356,-0.06601004302501678
1772094466873778400,0.9417783203125,0.1777915358543396,0.6020730137825012,0.3328374922275543
1772094466883727400,0.951727294921875,0.2048240453004837,0.7036922574043274,0.6164906620979309
1772094466893677300,0.96167724609375,0.2141115516424179,0.632219135761261,0.7222415804862976
1772094466903626200,0.971626220703125,0.22715704143047333,0.44688865542411804,0.6773214936256409
1772094466913576400,0.981576416015625,0.26005879044532776,0.2229069620370865,0.563219428062439
1772094466923525400,0.991525390625,0.3178994953632355,0.038293126970529556,0.46020737290382385
1772094466933475300,1.001475341796875,0.3761571943759918,-0.0929889976978302,0.4150840938091278
1772094466943424300,1.01142431640625,0.4042554199695587,-0.17573979496955872,0.4245164692401886
1772094466953374500,1.02137451171875,0.41276341676712036,-0.1949039101600647,0.4739495515823364
1772094466963323400,1.031323486328125,0.42931801080703735,-0.158687025308609,0.53733891248703
1772094466973273300,1.0412734375,0.44817107915878296,-0.1291443109512329,0.6129686832427979
1772094466983223300,1.051223388671875,0.44768697023391724,-0.10280781984329224,0.6975263953208923
1772094466993172500,1.06117236328125,0.44603899121284485,-0.11093419790267944,0.7909985780715942
1772094467003122400,1.071122314453125,0.4212878346443176,-0.18216390907764435,0.8701623678207397
1772094467013071400,1.0810712890625,0.38147464394569397,-0.32764172554016113,0.9206260442733765
1772094467023021300,1.091021240234375,0.33192816376686096,-0.5386741161346436,0.9348488450050354
1772094467032970200,1.10097021484375,0.25369247794151306,-0.7215946316719055,0.8902938961982727
1772094467042920400,1.11092041015625,0.16367441415786743,-0.8762320280075073,0.7699580192565918
1772094467052869400,1.120869384765625,0.0762561485171318,-0.9836817979812622,0.5762370228767395
1772094467062819300,1.1308193359375,0.035890765488147736,-1.0345994234085083,0.3463037610054016
1772094467072768300,1.140768310546875,0.049309901893138885,-1.0478209257125854,0.14641007781028748
1772094467082718500,1.150718505859375,0.10810136795043945,-0.9832413792610168,0.03158650919795036
1772094467092667400,1.16066748046875,0.1787121593952179,-0.8161687850952148,0.02315680682659149
1772094467102617300,1.170617431640625,0.22932574152946472,-0.5604217648506165,0.10944008082151413
1772094467112567300,1.1805673828125,0.23347121477127075,-0.28063827753067017,0.20728568732738495
1772094467122516500,1.1905166015625,0.21214236319065094,-0.01117275096476078,0.2657875418663025
1772094467132466400,1.200466552734375,0.20571614801883698,0.2296997755765915,0.2794727385044098
1772094467142411800,1.210411865234375,0.21971866488456726,0.38593557476997375,0.2785380482673645
1772094467152361700,1.22036181640625,0.2411576509475708,0.4839058220386505,0.2953716218471527
1772094467162310700,1.230310546875,0.2700289487838745,0.5382788181304932,0.3462810814380646
1772094467172260900,1.2402607421875,0.306575745344162,0.5401299595832825,0.41878244280815125
1772094467182209800,1.250209716796875,0.3380371630191803,0.45673683285713196,0.48039063811302185
1772094467192159700,1.26015966796875,0.3475976288318634,0.33001989126205444,0.5073402523994446
1772094467202108700,1.270108642578125,0.34261488914489746,0.1460815668106079,0.48409101366996765
1772094467212059000,1.280058837890625,0.3451603651046753,-0.13805454969406128,0.4395861327648163
1772094467222007800,1.2900078125,0.37443265318870544,-0.4796466827392578,0.4198341369628906
1772094467231957800,1.299957763671875,0.42754969000816345,-0.844173789024353,0.4673214852809906
1772094467241906700,1.30990673828125,0.47889724373817444,-1.1534168720245361,0.5733690857887268
1772094467251856600,1.319856689453125,0.5124360918998718,-1.4286620616912842,0.7066403031349182
1772094467261805800,1.329805908203125,0.5148690342903137,-1.5061626434326172,0.7850152254104614
1772094467271755800,1.339755859375,0.4772835671901703,-1.2434953451156616,0.7324143648147583
1772094467281705700,1.349705810546875,0.41632136702537537,-0.6826153993606567,0.5202738642692566
1772094467291654700,1.359654541015625,0.3369322717189789,-0.009657459333539009,0.20612522959709167
1772094467301604900,1.36960498046875,0.2513134479522705,0.4895637333393097,-0.12300148606300354
1772094467311553800,1.3795537109375,0.17028839886188507,0.7108231782913208,-0.3816913664340973
1772094467321503700,1.389503662109375,0.12971608340740204,0.7347984910011292,-0.5275542140007019
1772094467331452700,1.39945263671875,0.1563229262828827,0.6228346824645996,-0.6012894511222839
1772094467341403000,1.40940283203125,0.2263263314962387,0.3981434106826782,-0.6767871975898743
1772094467351351800,1.419351806640625,0.29347556829452515,0.13634750247001648,-0.7689136862754822
1772094467361301800,1.4293017578125,0.33956924080848694,-0.11309333145618439,-0.838843822479248
1772094467371250700,1.439250732421875,0.3419554531574249,-0.30339616537094116,-0.8457685708999634
1772094467381200600,1.44920068359375,0.3039991557598114,-0.3516995310783386,-0.8158295750617981
1772094467391149800,1.45914990234375,0.28677114844322205,-0.7025717496871948,-0.8412199020385742
1772094467401099800,1.469099853515625,0.2742350697517395,-1.119229793548584,-0.8809798955917358
1772094467411049700,1.4790498046875,0.19039474427700043,-1.5113557577133179,-0.9608646631240845
1772094467420998700,1.48899853515625,0.010725774802267551,-1.8138847351074219,-1.0772309303283691
1772094467430948600,1.498948486328125,-0.15335211157798767,-1.919890284538269,-1.201425313949585
1772094467440897800,1.508897705078125,-0.21187113225460052,-1.8226759433746338,-1.3259981870651245
1772094467450847700,1.51884765625,-0.2218920886516571,-1.6818519830703735,-1.3941290378570557
1772094467460796700,1.528796630859375,-0.22428931295871735,-1.508381962776184,-1.352662205696106
1772094467470747000,1.538746826171875,-0.2213880717754364,-1.2638875246047974,-1.176444411277771
1772094467480695800,1.54869580078125,-0.22512181103229523,-0.9168839454650879,-0.9065418243408203
1772094467490645800,1.558645751953125,-0.24417699873447418,-0.5016571879386902,-0.6132332682609558
1772094467500594700,1.5685947265625,-0.2484673261642456,-0.059924159198999405,-0.30301719903945923
1772094467510545000,1.578544921875,-0.23277437686920166,0.38409483432769775,-0.004758335184305906
1772094467520493800,1.588493896484375,-0.16093897819519043,0.7709585428237915,0.25004053115844727
1772094467530443800,1.59844384765625,-0.0382615365087986,0.9889411926269531,0.4083974361419678
1772094467540393500,1.6083935546875,0.08023113757371902,0.9363642930984497,0.44502097368240356
1772094467550342700,1.6183427734375,0.1674288809299469,0.6250511407852173,0.40633031725883484
1772094467560292600,1.628292724609375,0.22100453078746796,0.34373265504837036,0.3718380331993103
1772094467570241800,1.63824169921875,0.23706260323524475,0.1913532316684723,0.37366122007369995
1772094467580191500,1.64819140625,0.24081632494926453,0.183828204870224,0.40229687094688416
1772094467590140700,1.658140625,0.2718786597251892,0.2586073577404022,0.45487380027770996
1772094467600090600,1.668090576171875,0.38833746314048767,0.3992261290550232,0.504284679889679
1772094467610039800,1.678039794921875,0.47949454188346863,0.5188508033752441,0.5683917999267578
1772094467619989800,1.68798974609375,0.5552496314048767,0.7058546543121338,0.665745735168457
1772094467629938700,1.697938720703125,0.6299059987068176,0.9969935417175293,0.7937444448471069
1772094467639888600,1.707888671875,0.7535585165023804,1.365446925163269,0.882671594619751
1772094467649837800,1.717837890625,0.9389912486076355,1.6151129007339478,0.8764829635620117
1772094467659787800,1.727787841796875,1.1040126085281372,1.6135987043380737,0.7823300957679749
1772094467669737500,1.737737548828125,1.1919076442718506,1.4733171463012695,0.6403346061706543
1772094467679686700,1.747686767578125,1.1858370304107666,1.287927508354187,0.4915982186794281
1772094467689636600,1.75763671875,1.0957441329956055,1.027634620666504,0.3402755558490753
1772094467699585800,1.767585693359375,0.9185531139373779,0.6231608390808105,0.23426023125648499
1772094467709535500,1.777535400390625,0.6971757411956787,0.17137154936790466,0.29839634895324707
1772094467719484700,1.787484619140625,0.5220242142677307,-0.12084666639566422,0.5148378014564514
1772094467729434600,1.7974345703125,0.33884960412979126,-0.20988571643829346,0.6925161480903625
1772094467739383800,1.8073837890625,0.14184585213661194,-0.15590506792068481,0.7121123671531677
1772094467749333500,1.81733349609375,-0.03832444176077843,0.05190166458487511,0.5321356654167175
1772094467759282700,1.82728271484375,-0.17326532304286957,0.37587279081344604,0.17001551389694214
1772094467769232600,1.837232666015625,-0.26754122972488403,0.6233563423156738,-0.28019559383392334
1772094467779181800,1.847181884765625,-0.36618244647979736,0.617434024810791,-0.7235225439071655
1772094467789131500,1.857131591796875,-0.4884013235569,0.26990747451782227,-1.0984314680099487
1772094467799081500,1.86708154296875,-0.6452046036720276,-0.3026144206523895,-1.3593894243240356
1772094467809030700,1.87703076171875,-0.8016141653060913,-0.8794468641281128,-1.440217137336731
1772094467818980600,1.886980712890625,-0.9357033371925354,-1.2318050861358643,-1.351999282836914
1772094467828929500,1.896929443359375,-1.0099602937698364,-1.2194322347640991,-1.1268194913864136
1772094467838879500,1.90687939453125,-0.9797688722610474,-0.7428069114685059,-0.835763692855835
1772094467848828700,1.91682861328125,-0.8366772532463074,0.05198128521442413,-0.5825577974319458
1772094467858778600,1.926778564453125,-0.6384168863296509,0.8695926070213318,-0.4239509701728821
1772094467868727800,1.936727783203125,-0.460957407951355,1.4630892276763916,-0.3855836093425751
1772094467878677500,1.946677490234375,-0.3840489089488983,1.6811057329177856,-0.49233293533325195
1772094467888627700,1.956627685546875,-0.4146102964878082,1.5756930112838745,-0.7085637450218201
1772094467898576600,1.96657666015625,-0.4960522949695587,1.3244026899337769,-0.947496771812439
1772094467908526600,1.976526611328125,-0.5826729536056519,0.9724048972129822,-1.1344823837280273
1772094467918475500,1.9864755859375,-0.6435369253158569,0.6026307940483093,-1.205460786819458
1772094467928425500,1.996425537109375,-0.6512480974197388,0.3137665390968323,-1.1900397539138794
1772094467938374700,2.006374755859375,-0.6063057780265808,0.12560535967350006,-1.0910545587539673
1772094467948324600,2.01632470703125,-0.5404013395309448,0.09440615028142929,-0.9506242871284485
1772094467958273500,2.0262734375,-0.483289897441864,0.15429727733135223,-0.8260262608528137
1772094467968223500,2.036223388671875,-0.447461873292923,0.24701470136642456,-0.7591196894645691
1772094467978172700,2.046172607421875,-0.40351787209510803,0.3700239956378937,-0.7102187871932983
1772094467988122600,2.05612255859375,-0.33684003353118896,0.43677958846092224,-0.6615934371948242
1772094467998071600,2.066071533203125,-0.25240853428840637,0.3882397413253784,-0.5564236044883728
1772094468008021500,2.076021484375,-0.14582057297229767,0.28945618867874146,-0.37904804944992065
1772094468017971700,2.0859716796875,-0.03689906373620033,0.14659537374973297,-0.14637872576713562
1772094468027920600,2.095920654296875,0.05156555399298668,-0.0004164506681263447,0.09583871811628342
1772094468037870600,2.10587060546875,0.12227962911128998,-0.1424446403980255,0.3113479018211365
1772094468047819500,2.115819580078125,0.16896671056747437,-0.24651432037353516,0.46552202105522156
1772094468057769700,2.125769775390625,0.2057807445526123,-0.30592846870422363,0.5727605819702148
1772094468067718700,2.13571875,0.23302380740642548,-0.3075641691684723,0.6653709411621094
1772094468077668600,2.145668701171875,0.2658390402793884,-0.2910436987876892,0.7590765357017517
1772094468087617500,2.155617431640625,0.2872101068496704,-0.23739244043827057,0.8459579348564148
1772094468097567500,2.1655673828125,0.307219535112381,-0.14622265100479126,0.8774945139884949
1772094468107517700,2.175517578125,0.3195294737815857,-0.06649451702833176,0.8188141584396362
1772094468117466600,2.185466552734375,0.3151847720146179,0.002129556378349662,0.6815633177757263
1772094468127416600,2.19541650390625,0.279757022857666,0.0676417201757431,0.5210495591163635
1772094468137365500,2.205365478515625,0.22638587653636932,0.13476331532001495,0.36741340160369873
1772094468147315700,2.215315673828125,0.14903675019741058,0.1769842654466629,0.25035470724105835
1772094468157264600,2.2252646484375,0.06948062032461166,0.18049995601177216,0.19787144660949707
1772094468167214600,2.235214599609375,-0.010593971237540245,0.12678399682044983,0.20576399564743042
1772094468177163500,2.24516357421875,-0.08281046897172928,0.04840139299631119,0.2635864019393921
1772094468187113700,2.25511376953125,-0.13455301523208618,-0.05979432165622711,0.30380386114120483
1772094468197062700,2.265062744140625,-0.15532629191875458,-0.18142320215702057,0.29749205708503723
1772094468207012600,2.2750126953125,-0.16381698846817017,-0.21656173467636108,0.2512148320674896
1772094468216961500,2.28496142578125,-0.17378048598766327,-0.17082904279232025,0.17291390895843506
1772094468226911700,2.294911865234375,-0.1841047704219818,-0.028218375518918037,0.08487299084663391
1772094468236861700,2.30486181640625,-0.19491280615329742,0.07314673066139221,0.014165598899126053
1772094468246810600,2.314810546875,-0.21703381836414337,0.10984695702791214,-0.00865396298468113
1772094468256760600,2.324760498046875,-0.26663345098495483,0.08202237635850906,0.019928880035877228
1772094468266709500,2.33470947265625,-0.3236573338508606,0.0981033444404602,0.05923181027173996
1772094468276659700,2.34465966796875,-0.33478695154190063,0.2580927610397339,0.07074584811925888
1772094468286608600,2.354608642578125,-0.2902301251888275,0.4966976046562195,0.03282137215137482
1772094468296558600,2.36455859375,-0.20774291455745697,0.6340814828872681,-0.05416944622993469
1772094468306507500,2.374507568359375,-0.12148577719926834,0.570212185382843,-0.11731859296560287
1772094468316457700,2.384457763671875,-0.06301241368055344,0.3175945281982422,-0.11361663043498993
1772094468326407700,2.39440771484375,-0.026967598125338554,-0.08781048655509949,-0.0561181902885437
1772094468336356600,2.404356689453125,0.02171132154762745,-0.6164478659629822,0.06692607700824738
1772094468346306600,2.414306640625,0.09997736662626266,-1.184071660041809,0.29440903663635254
1772094468356255700,2.424255859375,0.21765682101249695,-1.5870931148529053,0.6551297903060913
1772094468366205700,2.434205810546875,0.3000161349773407,-1.7771368026733398,1.109022855758667
1772094468376154600,2.444154541015625,0.3034031391143799,-1.5897951126098633,1.5552899837493896
1772094468386104600,2.4541044921875,0.23258598148822784,-1.1026315689086914,1.7666640281677246
1772094468396053500,2.464053466796875,0.1340520828962326,-0.5533148050308228,1.5811493396759033
1772094468406003700,2.474003662109375,-0.01643463969230652,-0.0715942531824112,1.104532241821289
1772094468415953700,2.48395361328125,-0.2370845377445221,0.2285906970500946,0.5209818482398987
1772094468425902600,2.493902587890625,-0.5492600202560425,0.3826409876346588,-0.020548507571220398
1772094468435852800,2.503852783203125,-0.8723196983337402,0.39647969603538513,-0.4308793544769287
1772094468445801700,2.5138017578125,-1.1562963724136353,0.3343838155269623,-0.7081602811813354
1772094468455751700,2.523751708984375,-1.373000979423523,0.24512536823749542,-0.8302274942398071
1772094468465700600,2.53370068359375,-1.4899307489395142,0.20156671106815338,-0.8073445558547974
1772094468475650600,2.543650634765625,-1.501853346824646,0.197536900639534,-0.6417620182037354
1772094468485599700,2.553599853515625,-1.4220008850097656,0.2666834890842438,-0.3428831398487091
1772094468495549700,2.5635498046875,-1.262945294380188,0.3519994020462036,-0.0032275072298943996
1772094468505498600,2.57349853515625,-1.0523995161056519,0.3733297288417816,0.29462334513664246
1772094468515448600,2.583448486328125,-0.8313772678375244,0.30098333954811096,0.4967101216316223
1772094468525398800,2.593398681640625,-0.631159245967865,0.16318340599536896,0.6306942701339722
1772094468535347700,2.60334765625,-0.4651966094970703,0.024609945714473724,0.7337867021560669
1772094468545297700,2.613297607421875,-0.347721129655838,-0.06783423572778702,0.7966018915176392
1772094468555246600,2.62324658203125,-0.28169548511505127,-0.17503102123737335,0.8159083724021912
1772094468565196800,2.63319677734375,-0.24751751124858856,-0.2989332675933838,0.796707272529602
1772094468575145700,2.643145751953125,-0.22909651696681976,-0.383444607257843,0.778678834438324
1772094468585095700,2.653095703125,-0.2165793925523758,-0.3967883884906769,0.7727844715118408
1772094468595044600,2.663044677734375,-0.19853533804416656,-0.3402692377567291,0.7798455953598022
1772094468604994800,2.672994873046875,-0.1740393191576004,-0.21483197808265686,0.782478392124176
1772094468614944800,2.68294482421875,-0.14167554676532745,-0.06652651727199554,0.7619866728782654
1772094468624893700,2.692893798828125,-0.09540151804685593,0.05987296625971794,0.7182788252830505
1772094468634843600,2.70284375,-0.052683375775814056,0.17257116734981537,0.644450843334198
1772094468644792600,2.71279248046875,-0.03646445646882057,0.23470324277877808,0.5465341210365295
1772094468654742800,2.72274267578125,-0.03970609977841377,0.29455918073654175,0.4415002763271332
1772094468664691700,2.732691650390625,-0.05252229422330856,0.3739086091518402,0.34405043721199036
1772094468674641700,2.7426416015625,-0.07449241727590561,0.4048265516757965,0.25492623448371887
1772094468684591900,2.752591796875,-0.11357829719781876,0.33608636260032654,0.15663908421993256
1772094468694540800,2.762540771484375,-0.13551940023899078,0.23851317167282104,0.05228428915143013
1772094468704490800,2.77249072265625,-0.08964803814888,0.17759470641613007,-0.005406968295574188
1772094468714439700,2.782439697265625,0.053369782865047455,0.21296578645706177,0.0038128290325403214
1772094468724389600,2.7923896484375,0.24920132756233215,0.3223804235458374,0.11391456425189972
1772094468734338800,2.8023388671875,0.46073323488235474,0.4718092679977417,0.2788175344467163
1772094468744288800,2.812288818359375,0.6406334638595581,0.572288453578949,0.4199773371219635
1772094468754237700,2.82223779296875,0.7943897843360901,0.48952221870422363,0.5071590542793274
1772094468764187600,2.832187744140625,0.9106758832931519,0.21304215490818024,0.5289953947067261
1772094468774136800,2.84213671875,0.9688875675201416,-0.212750643491745,0.4981379806995392
1772094468784086800,2.852086669921875,0.9695498943328857,-0.6744276881217957,0.4331784248352051
1772094468794036700,2.86203662109375,0.910815417766571,-0.9649439454078674,0.3946763873100281
1772094468803985700,2.871985595703125,0.8436896800994873,-0.9077054262161255,0.3629016876220703
1772094468813935900,2.881935791015625,0.8004679083824158,-0.5935524106025696,0.3025294542312622
1772094468823884800,2.891884765625,0.7626473307609558,-0.1365712732076645,0.17168115079402924
1772094468833834800,2.901834716796875,0.7002245187759399,0.18348227441310883,-0.06629838049411774
1772094468843783700,2.91178369140625,0.5989711284637451,0.23938627541065216,-0.35928845405578613
1772094468853734000,2.92173388671875,0.45598119497299194,0.006774489767849445,-0.6550164222717285
1772094468863683600,2.93168359375,0.26985180377960205,-0.37660858035087585,-0.9137046933174133
1772094468873632800,2.9416328125,0.046042587608098984,-0.7634092569351196,-1.1086986064910889
1772094468883582700,2.951582763671875,-0.17372706532478333,-0.993140459060669,-1.251764178276062
1772094468893531600,2.96153173828125,-0.3523592948913574,-0.9852550625801086,-1.3761286735534668
1772094468903481600,2.971481689453125,-0.47217410802841187,-0.7572045922279358,-1.5202871561050415
1772094468913430800,2.9814306640625,-0.49614033102989197,-0.3806301951408386,-1.6688032150268555
1772094468923380700,2.991380615234375,-0.472154825925827,0.12758801877498627,-1.8005942106246948
1772094468933329700,3.00132958984375,-0.4443543255329132,0.5743094086647034,-1.9603540897369385
1772094468943279600,3.011279541015625,-0.47270315885543823,0.8402944803237915,-2.156299591064453
1772094468953229600,3.0212294921875,-0.5610081553459167,0.8863478899002075,-2.384465456008911
1772094468963178800,3.0311787109375,-0.643177330493927,0.778130054473877,-2.577630043029785
1772094468973128400,3.04112841796875,-0.6458756327629089,0.5783483982086182,-2.6852407455444336
1772094468983078000,3.051077880859375,-0.5667030215263367,0.3429388105869293,-2.6729109287261963
1772094468993027600,3.061027587890625,-0.42967167496681213,0.10000509768724442,-2.4563064575195312
1772094469002976800,3.070976806640625,-0.25874361395835876,-0.05287420004606247,-2.022409677505493
1772094469012926500,3.080926513671875,-0.12524697184562683,-0.08660215884447098,-1.4114214181900024
1772094469022876700,3.090876708984375,-0.08562979102134705,0.0518992617726326,-0.716548502445221
1772094469032825600,3.10082568359375,-0.1385217159986496,0.3060809075832367,-0.024402828887104988
1772094469042775600,3.110775634765625,-0.22252021729946136,0.5379133224487305,0.5595167875289917
1772094469052724500,3.120724365234375,-0.2482874095439911,0.6460201144218445,0.9375286102294922
1772094469062674700,3.1306748046875,-0.22644415497779846,0.6548314690589905,1.0960743427276611
1772094469072623600,3.14062353515625,-0.19957058131694794,0.5956711769104004,1.0717415809631348
1772094469082573600,3.150573486328125,-0.15948069095611572,0.4749484956264496,0.9305034279823303
1772094469092523500,3.1605234375,-0.08798936754465103,0.30635833740234375,0.7527700662612915
1772094469102472700,3.17047265625,-0.011716701090335846,0.12298823893070221,0.63707035779953
1772094469112422700,3.180422607421875,0.07079124450683594,0.01071427296847105,0.6136893033981323
1772094469122371600,3.19037158203125,0.13350549340248108,-0.10721449553966522,0.6524710655212402
1772094469132321500,3.200321533203125,0.15555262565612793,-0.2784605920314789,0.7361509799957275
1772094469142270200,3.210270263671875,0.15495793521404266,-0.39395788311958313,0.8640367388725281
1772094469152220200,3.22022021484375,0.15598535537719727,-0.4082184135913849,1.0130767822265625
1772094469162169300,3.23016943359375,0.1591385453939438,-0.3511596620082855,1.117513656616211
1772094469172119000,3.240119140625,0.15387257933616638,-0.25715139508247375,1.1264762878417969
1772094469182069000,3.250069091796875,0.15432798862457275,-0.16183288395404816,1.0260907411575317
1772094469192018200,3.26001806640625,0.18880663812160492,-0.04980466142296791,0.8273260593414307
1772094469201968000,3.269968017578125,0.2515150308609009,0.0988074541091919,0.5911390781402588
1772094469211917000,3.2799169921875,0.31232672929763794,0.2865850627422333,0.36579063534736633
1772094469221867000,3.289866943359375,0.3554914891719818,0.46288126707077026,0.19431982934474945
1772094469231816000,3.29981591796875,0.36290276050567627,0.5408850312232971,0.09791252762079239
1772094469241766100,3.30976611328125,0.3083292543888092,0.5192319750785828,0.08557011187076569
1772094469251716000,3.319716064453125,0.22805924713611603,0.477363646030426,0.12873578071594238
1772094469261665000,3.3296650390625,0.16813679039478302,0.4290051758289337,0.22928902506828308
1772094469271615200,3.339615234375,0.1539916694164276,0.5272070169448853,0.3679232895374298
1772094469281564200,3.349564208984375,0.19456759095191956,0.7702236771583557,0.4624548554420471
1772094469291514000,3.35951416015625,0.29727622866630554,1.1026055812835693,0.4589850604534149
1772094469301463000,3.369463134765625,0.41227152943611145,1.3808296918869019,0.3170982301235199
1772094469311413000,3.3794130859375,0.5191388130187988,1.563157081604004,0.05234357342123985
1772094469321363200,3.38936328125,0.5930209755897522,1.6205400228500366,-0.24752011895179749
1772094469331312000,3.39931201171875,0.6191052198410034,1.5335029363632202,-0.470331072807312
1772094469341262000,3.409261962890625,0.5842471122741699,1.2357364892959595,-0.5693844556808472
1772094469351211000,3.4192109375,0.46316978335380554,0.7781516909599304,-0.5367111563682556
1772094469361161200,3.4291611328125,0.29255011677742004,0.2975060045719147,-0.43011897802352905
1772094469371110100,3.439110107421875,0.14766456186771393,-0.13708849251270294,-0.33901846408843994
1772094469381060000,3.44906005859375,0.06973141431808472,-0.47088590264320374,-0.3161075711250305
1772094469391010000,3.459010009765625,0.048780690878629684,-0.6354265809059143,-0.3489825129508972
1772094469400959200,3.468959228515625,0.0733313038945198,-0.6936196088790894,-0.3509601950645447
1772094469410909200,3.4789091796875,0.10712192952632904,-0.6744203567504883,-0.23530910909175873
1772094469420858000,3.488858154296875,0.13625957071781158,-0.6062785983085632,0.0104276854544878
1772094469430808000,3.49880810546875,0.15699933469295502,-0.5049747824668884,0.3337387144565582
1772094469440757200,3.50875732421875,0.16768740117549896,-0.4346305727958679,0.6076123118400574
1772094469450707200,3.518707275390625,0.16556920111179352,-0.43902257084846497,0.7198304533958435
1772094469460657200,3.5286572265625,0.1331321746110916,-0.5505608320236206,0.6688525080680847
1772094469470606000,3.538606201171875,0.06964557617902756,-0.7985643148422241,0.5158294439315796
1772094469480556300,3.548556396484375,0.00596832949668169,-1.1351271867752075,0.3726382255554199
1772094469490505200,3.558505126953125,-0.04698222503066063,-1.438991904258728,0.2746584415435791
1772094469500455200,3.568455078125,-0.11168451607227325,-1.6098380088806152,0.13989023864269257
1772094469510404000,3.578404052734375,-0.16802933812141418,-1.6604167222976685,-0.10334940999746323
1772094469520354300,3.588354248046875,-0.22820453345775604,-1.625467300415039,-0.4157818853855133
1772094469530304300,3.59830419921875,-0.27487173676490784,-1.5417206287384033,-0.7207655310630798
1772094469540253200,3.608253173828125,-0.31341275572776794,-1.4842076301574707,-0.9491808414459229
1772094469550203100,3.618203125,-0.34429916739463806,-1.4289299249649048,-1.089699387550354
1772094469560152000,3.628152099609375,-0.33327287435531616,-1.3566821813583374,-1.173095464706421
1772094469570102300,3.638102294921875,-0.29080384969711304,-1.2016165256500244,-1.1923185586929321
1772094469580051200,3.64805126953125,-0.2302262783050537,-0.9631732106208801,-1.1003295183181763
1772094469590001200,3.658001220703125,-0.18416868150234222,-0.6909120678901672,-0.902643620967865
1772094469599951400,3.667951416015625,-0.15475966036319733,-0.4322262108325958,-0.622390627861023
1772094469609900300,3.677900390625,-0.11702306568622589,-0.17029432952404022,-0.27364858984947205
1772094469619850200,3.687850341796875,-0.023171402513980865,0.0875348150730133,0.1204015240073204
1772094469629799200,3.697799072265625,0.10967548936605453,0.3541627526283264,0.4985133707523346
1772094469639749000,3.7077490234375,0.25815364718437195,0.6004199385643005,0.7931990623474121
1772094469649698300,3.7176982421875,0.43338218331336975,0.7764703035354614,0.9759596586227417
1772094469659648300,3.727648193359375,0.5587877631187439,0.8550604581832886,1.0646001100540161
1772094469669598200,3.73759814453125,0.6168811917304993,0.9300072193145752,1.1239674091339111
1772094469679547100,3.747547119140625,0.6259170174598694,1.0156166553497314,1.1703526973724365
1772094469689497300,3.757497314453125,0.6078797578811646,1.0498358011245728,1.1755871772766113
1772094469699446300,3.7674462890625,0.5768155455589294,0.9872899651527405,1.1419634819030762
1772094469709396200,3.777396240234375,0.5632773041725159,0.884087085723877,1.0896143913269043
1772094469719345200,3.78734521484375,0.5313624739646912,0.9196328520774841,1.0321670770645142
1772094469729295400,3.79729541015625,0.5499742031097412,1.0042668581008911,1.0247811079025269
1772094469739245000,3.8072451171875,0.5831612348556519,1.0551766157150269,1.0374817848205566
1772094469749194200,3.8171943359375,0.6115928292274475,1.0537490844726562,1.0424363613128662
1772094469759144200,3.827144287109375,0.6498251557350159,1.1185959577560425,0.9932836890220642
1772094469769093400,3.83709326171875,0.6497798562049866,1.1557718515396118,0.8480932116508484
1772094469779043000,3.84704296875,0.5848953723907471,1.1903008222579956,0.6415618658065796
1772094469788993000,3.856992919921875,0.4921835660934448,1.1100066900253296,0.4350401759147644
1772094469798942200,3.866942138671875,0.3823372423648834,0.8678328394889832,0.28845101594924927
1772094469808892200,3.87689208984375,0.2540309429168701,0.6264503002166748,0.27782386541366577
1772094469818841300,3.88684130859375,0.09967200458049774,0.4067418873310089,0.3469217121601105
1772094469828791000,3.896791015625,-0.06408140063285828,0.12236174941062927,0.4241274297237396
1772094469838740200,3.906740234375,-0.18451887369155884,-0.0357181690633297,0.44171813130378723
1772094469848690200,3.916690185546875,-0.21216872334480286,0.012484055012464523,0.34637948870658875
1772094469858640100,3.92664013671875,-0.1345229297876358,0.19662512838840485,0.14689646661281586
1772094469868589000,3.936589111328125,0.05065353587269783,0.3538539409637451,-0.08462776988744736
1772094469878539000,3.9465390625,0.2273944765329361,0.3673042356967926,-0.2339962273836136
1772094469888488000,3.956488037109375,0.3247927725315094,0.27309659123420715,-0.23789432644844055
1772094469898438100,3.966438232421875,0.3564921021461487,0.17236971855163574,-0.11185169219970703
1772094469908387000,3.976386962890625,0.36089447140693665,0.06682398915290833,0.015608467161655426
1772094469918337000,3.9863369140625,0.35921213030815125,-0.008235872723162174,0.06699256598949432
1772094469928287200,3.996287353515625,0.3618624806404114,-0.1280970424413681,0.029822546988725662
1772094469938236200,4.006236083984375,0.3255558907985687,-0.4506932199001312,-0.08720207959413528
1772094469948186000,4.01618603515625,0.1856139451265335,-1.0931758880615234,-0.2870897948741913
1772094469958135000,4.026135009765625,-0.06807451695203781,-1.926100492477417,-0.5455247759819031
1772094469968085000,4.0360849609375,-0.41577446460723877,-2.7433886528015137,-0.7193664312362671
1772094469978035200,4.04603515625,-0.8391963243484497,-3.040774345397949,-0.7603726983070374
1772094469987984100,4.055984130859375,-1.1611536741256714,-2.6684107780456543,-0.7308197021484375
1772094469997934000,4.06593408203125,-1.3173729181289673,-1.8470877408981323,-0.7430808544158936
1772094470007883000,4.075883056640625,-1.3204931020736694,-0.8057512640953064,-0.8172748684883118
1772094470017833200,4.085833251953125,-1.2536407709121704,0.21027658879756927,-0.931350827217102
1772094470027782100,4.0957822265625,-1.1490662097930908,1.0120584964752197,-1.02147376537323
1772094470037732000,4.105732177734375,-1.0349231958389282,1.4811091423034668,-1.0590413808822632
1772094470047682000,4.11568212890625,-0.9300076365470886,1.5925136804580688,-1.0239057540893555
1772094470057631200,4.12563134765625,-0.8221874237060547,1.4104636907577515,-0.8984179496765137
1772094470067581200,4.135581298828125,-0.6527906656265259,0.9864000082015991,-0.6844125986099243
1772094470077530000,4.145530029296875,-0.448205828666687,0.42511484026908875,-0.3641951382160187
1772094470087480000,4.15547998046875,-0.2332247644662857,-0.11871936172246933,0.06612461805343628
1772094470097429200,4.16542919921875,-0.05380707606673241,-0.4825787842273712,0.5687658786773682
1772094470107379200,4.175379150390625,0.04912867024540901,-0.6517742276191711,1.0566024780273438
1772094470117329200,4.1853291015625,0.0660242959856987,-0.6873375773429871,1.41188383102417
1772094470127278000,4.195278076171875,0.037024807184934616,-0.6871131658554077,1.5382174253463745
1772094470137228300,4.205228271484375,0.01611180230975151,-0.6372010111808777,1.4568649530410767
1772094470147177200,4.21517724609375,-0.002507468219846487,-0.532273530960083,1.2464022636413574
1772094470157127400,4.22512744140625,-0.021446004509925842,-0.40718647837638855,0.9660096764564514
1772094470167077400,4.235077392578125,-0.03069579228758812,-0.31830301880836487,0.6914290189743042
1772094470177026300,4.2450263671875,-0.02172679826617241,-0.2830933928489685,0.4827149510383606
1772094470186976500,4.2549765625,-0.017349138855934143,-0.3162878751754761,0.36157140135765076
1772094470196925400,4.264925537109375,-0.028557585552334785,-0.38945287466049194,0.3616718053817749
1772094470206875400,4.27487548828125,-0.0401327908039093,-0.38426899909973145,0.4573948085308075
1772094470216824300,4.28482421875,-0.050863731652498245,-0.33577364683151245,0.6012265086174011
1772094470226774300,4.294774169921875,-0.06639298051595688,-0.31551921367645264,0.7399560213088989
1772094470236724500,4.304724365234375,-0.059759847819805145,-0.28518426418304443,0.8520714044570923
1772094470246673400,4.31467333984375,-0.017401253804564476,-0.201654851436615,0.9098244905471802
1772094470256623400,4.324623291015625,0.03065841645002365,-0.10075939446687698,0.8697681427001953
1772094470266572300,4.334572265625,0.03820997476577759,0.010815318673849106,0.717221200466156
1772094470276522500,4.3445224609375,-0.0014788503758609295,0.15446488559246063,0.4753260016441345
1772094470286472400,4.354472412109375,-0.061970215290784836,0.31539496779441833,0.2124750018119812
1772094470296421400,4.36442138671875,-0.1288805454969406,0.3783334493637085,-0.022425122559070587
1772094470306371300,4.374371337890625,-0.18759289383888245,0.32017260789871216,-0.19946962594985962
1772094470316320500,4.384320556640625,-0.21572546660900116,0.16837963461875916,-0.2915668189525604
1772094470326270500,4.3942705078125,-0.22544553875923157,0.00204767775721848,-0.2993720769882202
1772094470336219400,4.404219482421875,-0.21725152432918549,-0.18902267515659332,-0.24717701971530914
1772094470346169300,4.41416943359375,-0.21949727833271027,-0.40925872325897217,-0.17103366553783417
1772094470356119300,4.424119384765625,-0.24112747609615326,-0.6253223419189453,-0.12012308090925217
1772094470366068500,4.434068359375,-0.24091820418834686,-0.7964534759521484,-0.09759166836738586
1772094470376018200,4.44401806640625,-0.21906617283821106,-0.9047373533248901,-0.08622715622186661
1772094470385967400,4.45396728515625,-0.18886494636535645,-0.8901256322860718,-0.07174310833215714
1772094470395917300,4.463917236328125,-0.17832042276859283,-0.737840473651886,-0.05932638794183731
1772094470405867300,4.4738671875,-0.1979585438966751,-0.43566545844078064,-0.05160494148731232
1772094470415816200,4.483816162109375,-0.25435709953308105,0.015618659555912018,-0.10322179645299911
1772094470425766100,4.49376611328125,-0.32434698939323425,0.43903544545173645,-0.22862136363983154
1772094470435715300,4.50371533203125,-0.36724627017974854,0.7790330052375793,-0.3622151017189026
1772094470445665300,4.513665283203125,-0.36576518416404724,1.0109320878982544,-0.4325689971446991
1772094470455615200,4.523615234375,-0.3355654776096344,1.0497063398361206,-0.4280325770378113
1772094470465564200,4.533564208984375,-0.2964371144771576,0.9362310171127319,-0.37212541699409485
1772094470475514400,4.543514404296875,-0.23429809510707855,0.7126194834709167,-0.30730247497558594
1772094470485463300,4.55346337890625,-0.14350032806396484,0.43412062525749207,-0.2954960763454437
1772094470495413200,4.563413330078125,-0.048806045204401016,0.14180888235569,-0.3638242781162262
1772094470505362200,4.573362060546875,0.027921324595808983,-0.1739872395992279,-0.4531030058860779
1772094470515312400,4.5833125,0.0575585812330246,-0.3750289976596832,-0.4371269941329956
1772094470525262300,4.593262451171875,0.15571589767932892,-0.6281864047050476,-0.3150389790534973
1772094470535211300,4.603211181640625,0.2903168499469757,-0.8781195282936096,-0.09771517664194107
1772094470545161200,4.6131611328125,0.3684525489807129,-0.8227112293243408,0.17000344395637512
1772094470555110100,4.623110107421875,0.35157743096351624,-0.597809374332428,0.3855213522911072
1772094470565060400,4.633060302734375,0.2792321741580963,-0.347044438123703,0.4942609965801239
1772094470575010300,4.64301025390625,0.18019695580005646,-0.08664774149656296,0.5052537322044373
1772094470584959200,4.652959228515625,0.07502633333206177,0.12455930560827255,0.4254169464111328
1772094470594909400,4.662909423828125,0.007807879243046045,0.2482716590166092,0.2668563425540924
1772094470604858400,4.6728583984375,-0.0013675265945494175,0.3263651132583618,0.1046835258603096
1772094470614808300,4.682808349609375,0.042231615632772446,0.3778858184814453,-0.018898066133260727
1772094470624757200,4.69275732421875,0.12066857516765594,0.297569215297699,-0.10002747923135757
1772094470634707200,4.702707275390625,0.18700897693634033,0.08131705224514008,-0.17706261575222015
1772094470644657400,4.712657470703125,0.1795375645160675,-0.28241926431655884,-0.3001748323440552
1772094470654606300,4.7226064453125,0.0716790109872818,-0.7165001630783081,-0.4594726264476776
1772094470664556300,4.732556396484375,-0.10794651508331299,-1.073966145515442,-0.664189875125885
1772094470674505200,4.742505126953125,-0.30102062225341797,-1.2349275350570679,-0.9084646105766296
1772094470684455400,4.752455322265625,-0.4639103412628174,-1.1829630136489868,-1.1577816009521484
1772094470694405400,4.7624052734375,-0.577892541885376,-1.0546008348464966,-1.3420145511627197
1772094470704354300,4.772354248046875,-0.6534544229507446,-0.9663520455360413,-1.3885596990585327
1772094470714304500,4.782304443359375,-0.6833971738815308,-0.9522373080253601,-1.279953122138977
1772094470724253400,4.79225341796875,-0.6508346796035767,-1.0077595710754395,-1.0471841096878052
1772094470734203400,4.802203369140625,-0.5645948648452759,-1.015560507774353,-0.733506977558136
1772094470744153300,4.8121533203125,-0.43981078267097473,-0.9288535714149475,-0.40376511216163635
1772094470754102300,4.822102294921875,-0.31088370084762573,-0.8017009496688843,-0.13903971016407013
1772094470764052500,4.832052490234375,-0.22973565757274628,-0.6015989780426025,0.03478347882628441
1772094470774001400,4.84200146484375,-0.1695665866136551,-0.29331204295158386,0.14571158587932587
1772094470783951400,4.851951416015625,-0.11562424898147583,0.033670905977487564,0.20422670245170593
1772094470793901600,4.861901611328125,-0.0631895437836647,0.3319454789161682,0.21964268386363983
1772094470803850500,4.8718505859375,0.0011998610571026802,0.534454345703125,0.19417160749435425
1772094470813800400,4.881800537109375,0.06961727142333984,0.6013859510421753,0.15497946739196777
1772094470823749400,4.891749267578125,0.12775681912899017,0.5575932264328003,0.13799796998500824
1772094470833699300,4.90169921875,0.1797768771648407,0.43624255061149597,0.17345023155212402
1772094470843648500,4.9116484375,0.2347124218940735,0.3284367620944977,0.23016241192817688
1772094470853598500,4.921598388671875,0.2745833992958069,0.30723506212234497,0.2652549147605896
1772094470863548200,4.931548095703125,0.3045097887516022,0.3597787916660309,0.26914095878601074
1772094470873497300,4.941497314453125,0.3436174988746643,0.43238985538482666,0.2163829505443573
1772094470883447300,4.951447265625,0.3506709635257721,0.516625165939331,0.1157471165060997
1772094470893396500,4.961396484375,0.33230045437812805,0.5614056587219238,0.02758396975696087
1772094470903346200,4.97134619140625,0.34132251143455505,0.6372296214103699,-0.000244789756834507
1772094470913296100,4.981296142578125,0.3751257359981537,0.6885228753089905,0.0675467699766159
1772094470923245300,4.991245361328125,0.3595249056816101,0.6616286039352417,0.21709156036376953
1772094470933195300,5.0011953125,0.23458749055862427,0.6773258447647095,0.3801089823246002
1772094470943144400,5.01114453125,0.055061228573322296,0.7762892246246338,0.49750301241874695
1772094470953094100,5.02109423828125,-0.0991472452878952,0.8680130243301392,0.5316609740257263
1772094470963044400,5.03104443359375,-0.20772194862365723,0.9181993007659912,0.5066582560539246
1772094470972993300,5.0409931640625,-0.2593185603618622,0.9701157808303833,0.4853644371032715
1772094470982943200,5.050943115234375,-0.27149340510368347,1.0945502519607544,0.5262007713317871
1772094470992892200,5.06089208984375,-0.25432106852531433,1.266523838043213,0.6261827945709229
1772094471002842400,5.07084228515625,-0.2236701101064682,1.4160363674163818,0.7362468838691711
1772094471012792300,5.080792236328125,-0.16260036826133728,1.4662095308303833,0.7838828563690186
1772094471022741200,5.0907412109375,-0.09466084837913513,1.297850251197815,0.7083234190940857
1772094471032691200,5.100691162109375,-0.07164473831653595,0.7195405960083008,0.4828413128852844
1772094471042640400,5.110640380859375,-0.16960623860359192,-0.24346290528774261,0.15297092497348785
1772094471052590300,5.12059033203125,-0.39971402287483215,-1.3392186164855957,-0.20613476634025574
1772094471062540300,5.130540283203125,-0.694908082485199,-2.340386152267456,-0.5362297892570496
1772094471072489200,5.1404892578125,-0.9726536870002747,-3.0754544734954834,-0.8027291297912598
1772094471082439400,5.150439453125,-1.1712894439697266,-3.3687973022460938,-0.9774793982505798
1772094471092388400,5.160388427734375,-1.2271662950515747,-3.068835496902466,-1.0616374015808105
1772094471102338300,5.17033837890625,-1.1699367761611938,-2.3315916061401367,-1.0253230333328247
1772094471112287200,5.180287353515625,-1.017458200454712,-1.267838716506958,-0.899691641330719
1772094471122237400,5.190237548828125,-0.8080416321754456,-0.14944328367710114,-0.7274917960166931
1772094471132187400,5.2001875,-0.5906621813774109,0.7745897173881531,-0.5506619215011597
1772094471142135800,5.2101357421875,-0.43733644485473633,1.266729712486267,-0.4291711747646332
1772094471152086000,5.2200859375,-0.37644779682159424,1.2930939197540283,-0.37644296884536743
1772094471162035000,5.230034912109375,-0.3601272404193878,1.005592942237854,-0.36198049783706665
1772094471171985000,5.23998486328125,-0.32298094034194946,0.5856150984764099,-0.3465772867202759
1772094471181935000,5.24993505859375,-0.26608383655548096,0.1316099613904953,-0.2847406268119812
1772094471191884000,5.259884033203125,-0.20307451486587524,-0.22626136243343353,-0.16124741733074188
1772094471201834000,5.269833984375,-0.13727141916751862,-0.4001799523830414,0.022118739783763885
1772094471211783000,5.279782958984375,-0.05320155993103981,-0.3841570317745209,0.2290213257074356
1772094471221732900,5.28973291015625,0.04578056558966637,-0.24394591152668,0.41316935420036316
1772094471231683000,5.29968310546875,0.15309716761112213,-0.05019189789891243,0.5274487733840942
1772094471241632000,5.309632080078125,0.22666801512241364,0.1360127329826355,0.5716553330421448
1772094471251582000,5.31958203125,0.26792144775390625,0.30500441789627075,0.5414921045303345
1772094471261531000,5.32953076171875,0.2825566530227661,0.42580652236938477,0.4758332073688507
1772094471271481000,5.339481201171875,0.279807448387146,0.4466281831264496,0.39792802929878235
1772094471281431000,5.34943115234375,0.2672174870967865,0.3608856201171875,0.3398803174495697
1772094471291380000,5.3593798828125,0.24353134632110596,0.2513580620288849,0.3167494237422943
1772094471301330000,5.369329833984375,0.2113969773054123,0.1782420128583908,0.316556453704834
1772094471311279000,5.379279052734375,0.16478127241134644,0.12477506697177887,0.3008699119091034
1772094471321229000,5.38922900390625,0.14907515048980713,0.12506859004497528,0.25441962480545044
1772094471331179000,5.399178955078125,0.15553759038448334,0.24572309851646423,0.20542599260807037
1772094471341128000,5.4091279296875,0.20482811331748962,0.481200635433197,0.1676190048456192
1772094471351078100,5.419078125,0.28528913855552673,0.7477652430534363,0.1271813064813614
1772094471361027000,5.429027099609375,0.36781612038612366,0.9278286099433899,0.10459857434034348
1772094471370977000,5.43897705078125,0.43907538056373596,0.9322761297225952,0.12770149111747742
1772094471380926700,5.4489267578125,0.4560658037662506,0.7448689937591553,0.19123682379722595
1772094471390876200,5.458876220703125,0.40285399556159973,0.46161144971847534,0.26386892795562744
1772094471400825900,5.468825927734375,0.286871999502182,0.11515923589468002,0.3011164367198944
1772094471410775000,5.478775146484375,0.15025821328163147,-0.23168472945690155,0.23823948204517365
1772094471420725000,5.48872509765625,0.0422656387090683,-0.5084065794944763,0.09357689321041107
1772094471430675000,5.498675048828125,-0.03632371127605438,-0.6802547574043274,-0.102335624396801
1772094471440623900,5.508623779296875,-0.10216493159532547,-0.7654891610145569,-0.27267515659332275
1772094471450573800,5.51857373046875,-0.16253933310508728,-0.8354024887084961,-0.35912638902664185
1772094471460523000,5.52852294921875,-0.2150886207818985,-0.855042040348053,-0.33547136187553406
1772094471470473000,5.538472900390625,-0.244245707988739,-0.7529324293136597,-0.2471788078546524
1772094471480422100,5.548422119140625,-0.24798518419265747,-0.5382261276245117,-0.12401965260505676
1772094471490371800,5.558371826171875,-0.22867542505264282,-0.2516864836215973,-0.01277063600718975
1772094471500321800,5.56832177734375,-0.19262351095676422,0.029109038412570953,0.08501077443361282
1772094471510271000,5.57827099609375,-0.13251569867134094,0.24769596755504608,0.16626542806625366
1772094471520221000,5.588220947265625,-0.06675177812576294,0.3297581672668457,0.2295914888381958
1772094471530169900,5.598169921875,-0.00820697471499443,0.2915300726890564,0.2685106694698334
1772094471540119800,5.608119873046875,0.022837944328784943,0.18694357573986053,0.2850649952888489
1772094471550070000,5.618070068359375,0.03540859743952751,0.10181137174367905,0.2960966229438782
1772094471560019000,5.62801904296875,0.05904830992221832,0.03522416949272156,0.3044283092021942
1772094471569969000,5.637968994140625,0.08125827461481094,-0.020210061222314835,0.3079708516597748
1772094471579917800,5.647917724609375,0.10505220293998718,-0.1325078308582306,0.30667513608932495
1772094471589868000,5.657867919921875,0.12525707483291626,-0.29402825236320496,0.3237529397010803
1772094471599818000,5.66781787109375,0.1250520795583725,-0.5204432606697083,0.38798701763153076
1772094471609767000,5.677766845703125,0.10625573992729187,-0.8081551790237427,0.4866025447845459
1772094471619716900,5.687716796875,0.029632503166794777,-0.9711811542510986,0.5908902883529663
1772094471629665800,5.697665771484375,-0.0704517513513565,-0.8863821029663086,0.614607036113739
1772094471639616000,5.707615966796875,-0.14813123643398285,-0.6073070764541626,0.5143809914588928
1772094471649566000,5.71756591796875,-0.17311035096645355,-0.21608848869800568,0.33242160081863403
1772094471659515000,5.727514892578125,-0.16389942169189453,0.1554577648639679,0.11807329207658768
1772094471669465000,5.737465087890625,-0.15984556078910828,0.38582518696784973,-0.11861781030893326
1772094471679414000,5.7474140625,-0.2014220654964447,0.5182179808616638,-0.33673062920570374
1772094471689364000,5.757364013671875,-0.31412994861602783,0.6067401170730591,-0.5262848138809204
1772094471699314000,5.76731396484375,-0.4704083204269409,0.6187754273414612,-0.7405312061309814
1772094471709262800,5.777262939453125,-0.6274113059043884,0.5288814902305603,-1.0054680109024048
1772094471719213000,5.787213134765625,-0.7301479578018188,0.2735879719257355,-1.2536500692367554
1772094471729162000,5.797161865234375,-0.7792145609855652,-0.11045531928539276,-1.3414347171783447
1772094471739112000,5.80711181640625,-0.7512511014938354,-0.3057139217853546,-1.2089476585388184
1772094471749062100,5.817062255859375,-0.6394034028053284,-0.32330968976020813,-0.9179701209068298
1772094471759011000,5.827010986328125,-0.492506742477417,-0.21763987839221954,-0.583050012588501
1772094471768961000,5.8369609375,-0.3119686543941498,-0.07293356955051422,-0.2682582437992096
1772094471778910000,5.846909912109375,-0.12266089022159576,0.053910646587610245,-0.00404688436537981
1772094471788860000,5.85685986328125,0.05176124349236488,0.08408559113740921,0.1922411322593689
1772094471798810000,5.86681005859375,0.18719860911369324,0.026270253583788872,0.3588055372238159
1772094471808759000,5.876759033203125,0.2862839102745056,-0.10817703604698181,0.4988350570201874
1772094471818709000,5.886708984375,0.3427419364452362,-0.2579619288444519,0.6045525670051575
1772094471828658000,5.896657958984375,0.3519655466079712,-0.3435346186161041,0.651220977306366
1772094471838608100,5.906608154296875,0.3160042464733124,-0.36032766103744507,0.6177892684936523
1772094471848557800,5.916557861328125,0.24424989521503448,-0.29150304198265076,0.5217841863632202
1772094471858507000,5.926507080078125,0.1514599323272705,-0.1432209014892578,0.38546302914619446
1772094471868457000,5.93645703125,0.04773247614502907,0.04412582144141197,0.25412338972091675
1772094471878406100,5.94640625,-0.0009971300605684519,0.20786145329475403,0.14694975316524506
1772094471888356000,5.956356201171875,0.012938393279910088,0.3444054424762726,0.09589987993240356
1772094471898305800,5.966305908203125,0.06295081973075867,0.44488680362701416,0.0683153048157692
1772094471908255000,5.9762548828125,0.11952488124370575,0.4983862638473511,0.04858660697937012
1772094471918205000,5.986204833984375,0.1822054237127304,0.5145502090454102,0.05167854577302933
1772094471928154000,5.996154052734375,0.257008820772171,0.5226001739501953,0.08692121505737305
1772094471938103800,6.006103759765625,0.3255026340484619,0.5060551166534424,0.1680062860250473
1772094471948054000,6.016053955078125,0.3831334412097931,0.4520813226699829,0.2748837471008301
1772094471958003000,6.0260029296875,0.398654967546463,0.3890663981437683,0.4188370704650879
1772094471967953000,6.035952880859375,0.3786218762397766,0.3128605782985687,0.5705799460411072
1772094471977901800,6.04590185546875,0.31836193799972534,0.23333856463432312,0.6979696154594421
1772094471987851800,6.055851806640625,0.2230902761220932,0.1266174465417862,0.7742564082145691
1772094471997802000,6.065802001953125,0.12865512073040009,0.005568060092628002,0.7750412225723267
1772094472007751000,6.0757509765625,0.09868550300598145,-0.12418913841247559,0.7124830484390259
1772094472017700900,6.085700927734375,0.10582384467124939,-0.21824799478054047,0.669670820236206
1772094472027649800,6.09564990234375,0.09035726636648178,-0.24318823218345642,0.7064895629882812
1772094472037600000,6.10560009765625,0.01760759949684143,-0.29455965757369995,0.8078573942184448
1772094472047550000,6.115550048828125,-0.12346456944942474,-0.3468194007873535,0.9329628348350525
1772094472057499000,6.125498779296875,-0.25696060061454773,-0.35777097940444946,1.0032553672790527
1772094472067448800,6.13544873046875,-0.32141655683517456,-0.3539365530014038,0.925596296787262
1772094472077398000,6.14539794921875,-0.3472905457019806,-0.1963629126548767,0.7146822810173035
1772094472087348000,6.155347900390625,-0.372780978679657,0.07216042280197144,0.43634170293807983
1772094472097298000,6.1652978515625,-0.43067386746406555,0.20971247553825378,0.13856351375579834
1772094472107246800,6.175246826171875,-0.5312612056732178,0.12475576996803284,-0.13768911361694336
1772094472117197000,6.185197021484375,-0.6825980544090271,-0.08743234723806381,-0.3797300457954407
1772094472127146000,6.19514599609375,-0.8850553035736084,-0.38924333453178406,-0.6360926032066345
1772094472137096000,6.205095947265625,-1.0607349872589111,-0.6477928161621094,-0.8997403979301453
1772094472147050500,6.215050537109375,-1.1415150165557861,-0.7629737257957458,-1.1600884199142456
1772094472156999400,6.22499951171875,-1.1253114938735962,-0.7544584274291992,-1.3535977602005005
1772094472166949400,6.234949462890625,-1.0270956754684448,-0.6612363457679749,-1.4344109296798706
1772094472176898300,6.244898193359375,-0.8735445141792297,-0.4939531087875366,-1.3769035339355469
1772094472186848500,6.2548486328125,-0.6826984286308289,-0.2528075873851776,-1.2164409160614014
1772094472196798200,6.264798095703125,-0.47421330213546753,-0.024143792688846588,-1.0027899742126465
1772094472206747400,6.274747314453125,-0.27176380157470703,0.16562587022781372,-0.7634063959121704
1772094472216697300,6.284697265625,-0.10339771956205368,0.3161815106868744,-0.5335631966590881
1772094472226647300,6.294647216796875,0.017734836786985397,0.4177355468273163,-0.3396908938884735
1772094472236596200,6.30459619140625,0.1188545674085617,0.460687518119812,-0.18337367475032806
1772094472246546200,6.314546142578125,0.20802518725395203,0.4722467064857483,-0.05682745575904846
1772094472256495400,6.324495361328125,0.2845968008041382,0.4777267873287201,0.04787012189626694
1772094472266445300,6.3344453125,0.3431381285190582,0.4615131914615631,0.11911101639270782
1772094472276395300,6.344395263671875,0.3889425992965698,0.3897758424282074,0.14259080588817596
1772094472286344200,6.35434423828125,0.4242427945137024,0.2797289788722992,0.11657438427209854
1772094472296294100,6.364294189453125,0.4549739956855774,0.15505670011043549,0.06156595051288605
1772094472306243000,6.3742431640625,0.44795018434524536,0.011397001333534718,-0.033648982644081116
1772094472316193300,6.384193359375,0.42271703481674194,-0.13866311311721802,-0.14695683121681213
1772094472326143200,6.394143310546875,0.3906581699848175,-0.25222402811050415,-0.24381333589553833
1772094472336092200,6.404092041015625,0.35622239112854004,-0.2857942283153534,-0.29444214701652527
1772094472346042400,6.41404248046875,0.3222852051258087,-0.26087263226509094,-0.3086245656013489
1772094472355991300,6.4239912109375,0.31487560272216797,-0.1922631561756134,-0.31178537011146545
1772094472365941200,6.433941162109375,0.34412190318107605,-0.0697883665561676,-0.2870384752750397
1772094472375891200,6.44389111328125,0.382550984621048,0.07047225534915924,-0.24297337234020233
1772094472385840000,6.453840087890625,0.4122481346130371,0.19296647608280182,-0.17906950414180756
1772094472395790300,6.463790283203125,0.42777156829833984,0.2790416181087494,-0.106043741106987
1772094472405739300,6.4737392578125,0.4205240309238434,0.28004297614097595,-0.04304267838597298
1772094472415689200,6.483689208984375,0.3968445658683777,0.19076472520828247,-0.013446636497974396
1772094472425639400,6.493639404296875,0.37211179733276367,0.01715910993516445,-0.028737176209688187
1772094472435588400,6.50358837890625,0.3429729640483856,-0.21118855476379395,-0.08207505941390991
1772094472445538300,6.513538330078125,0.3095596134662628,-0.43004927039146423,-0.1299925148487091
1772094472455488300,6.52348828125,0.2867964506149292,-0.5445765256881714,-0.12788599729537964
1772094472465437200,6.533437255859375,0.2587730884552002,-0.550964891910553,-0.07427843660116196
1772094472475387400,6.543387451171875,0.2121638059616089,-0.43480485677719116,0.02522450126707554
1772094472485336300,6.55333642578125,0.15583927929401398,-0.20478124916553497,0.12810693681240082
1772094472495286300,6.563286376953125,0.10499191284179688,0.06497994065284729,0.19326598942279816
1772094472505235200,6.573235107421875,0.07532856613397598,0.28752991557121277,0.20235136151313782
1772094472515185400,6.583185302734375,0.05385514721274376,0.4017394185066223,0.18649956583976746
1772094472525135400,6.59313525390625,0.016626283526420593,0.37599676847457886,0.17155258357524872
1772094472535084300,6.603084228515625,-0.04538067430257797,0.21800380945205688,0.16917194426059723
1772094472545034500,6.613034423828125,-0.1355699598789215,-0.049270231276750565,0.13615593314170837
1772094472554984400,6.622984375,-0.21948081254959106,-0.33432209491729736,0.056236229836940765
1772094472564933400,6.632933349609375,-0.276042103767395,-0.5291986465454102,-0.07585123181343079
1772094472574883300,6.64288330078125,-0.30286476016044617,-0.5683187246322632,-0.22224557399749756
1772094472584832300,6.652832275390625,-0.3013579249382019,-0.4077756106853485,-0.33088549971580505
1772094472594782500,6.662782470703125,-0.26849621534347534,-0.10211659222841263,-0.38688135147094727
1772094472604732200,6.672732177734375,-0.2154013216495514,0.2619737386703491,-0.38253480195999146
1772094472614681300,6.682681396484375,-0.14190614223480225,0.57881760597229,-0.3392138183116913
1772094472624631300,6.69263134765625,-0.09792537242174149,0.8068281412124634,-0.29232993721961975
1772094472634580500,6.70258056640625,-0.06611088663339615,0.8797272443771362,-0.27251169085502625
1772094472644530200,6.7125302734375,-0.031477805227041245,0.8173482418060303,-0.2735420763492584
1772094472654480100,6.722480224609375,-0.03223297372460365,0.6697962880134583,-0.30629947781562805
1772094472664429300,6.73242919921875,-0.04633520916104317,0.43256184458732605,-0.3788098990917206
1772094472674379300,6.742379150390625,-0.036278411746025085,0.1148771196603775,-0.44748014211654663
1772094472684329200,6.7523291015625,0.0173637792468071,-0.20935900509357452,-0.4740278720855713
1772094472694278100,6.762278076171875,0.10790401697158813,-0.36350780725479126,-0.4287005662918091
1772094472704228400,6.772228271484375,0.2326616644859314,-0.2657146751880646,-0.34021517634391785
1772094472714177300,6.78217724609375,0.3757458031177521,0.045888181775808334,-0.2721589505672455
1772094472724127200,6.792127197265625,0.4971452057361603,0.43766263127326965,-0.21508580446243286
1772094472734077200,6.8020771484375,0.5376394391059875,0.6954618096351624,-0.1672901213169098
1772094472744026000,6.812026123046875,0.48737046122550964,0.7015020847320557,-0.13219445943832397
1772094472753976300,6.821976318359375,0.3800968825817108,0.6058351993560791,-0.09302372485399246
1772094472763925200,6.83192529296875,0.29136645793914795,0.5369916558265686,-0.029800815507769585
1772094472773875200,6.841875244140625,0.2325161099433899,0.5038186311721802,0.03425813093781471
1772094472783825400,6.851825439453125,0.24515734612941742,0.44024553894996643,0.09910424053668976
1772094472793774300,6.8617744140625,0.2944808602333069,0.18145966529846191,0.1321449726819992
1772094472803724300,6.871724365234375,0.3201974034309387,-0.30616459250450134,0.13067437708377838
1772094472813673200,6.881673095703125,0.3565550446510315,-0.8184216618537903,0.1312931627035141
1772094472823623200,6.891623046875,0.3832239508628845,-1.1397019624710083,0.19467106461524963
1772094472833573400,6.901573486328125,0.37269720435142517,-1.3419649600982666,0.3427988290786743
1772094472843522300,6.911522216796875,0.2861570119857788,-1.4269344806671143,0.4629209637641907
1772094472853472300,6.92147216796875,0.1563618928194046,-1.4056037664413452,0.42783430218696594
1772094472863422500,6.93142236328125,0.05302644893527031,-1.3208380937576294,0.21477873623371124
1772094472873371400,6.941371337890625,0.014952095225453377,-1.1490224599838257,-0.0868714228272438
1772094472883321300,6.9513212890625,0.03333429619669914,-0.8540995121002197,-0.342309832572937
1772094472893270300,6.961270263671875,0.034276820719242096,-0.5532163381576538,-0.5059045553207397
1772094472903220200,6.97122021484375,-0.0009546671062707901,-0.3343779742717743,-0.5974903702735901
1772094472913170400,6.98117041015625,-0.04501443728804588,-0.18009252846240997,-0.6606102585792542
1772094472923119400,6.991119384765625,-0.06702626496553421,-0.017357945442199707,-0.7282039523124695
1772094472933069300,7.0010693359375,-0.048261336982250214,0.15169687569141388,-0.8001618385314941
1772094472943018200,7.011018310546875,-0.007277416065335274,0.2962316870689392,-0.8618225455284119
1772094472952968400,7.020968505859375,0.018896613270044327,0.3623434901237488,-0.8835377097129822
1772094472962918400,7.03091845703125,0.022196538746356964,0.3602997660636902,-0.8475784063339233
1772094472972867300,7.040867431640625,-0.010884728282690048,0.29015374183654785,-0.7463283538818359
1772094472982817300,7.0508173828125,-0.05495205521583557,0.19102689623832703,-0.5876988172531128
1772094472992767200,7.060767333984375,-0.09563429653644562,0.1160530298948288,-0.3880062401294708
1772094473002716400,7.07071630859375,-0.12449949979782104,0.08020901679992676,-0.17362363636493683
1772094473012666000,7.080666015625,-0.14184878766536713,0.07434333860874176,0.03973568230867386
1772094473022615300,7.090615234375,-0.1374007761478424,0.06996776163578033,0.23692438006401062
1772094473032565200,7.100565185546875,-0.10934492200613022,0.08440295606851578,0.3975495398044586
1772094473042515200,7.11051513671875,-0.054875556379556656,0.14533980190753937,0.5076584815979004
1772094473052464000,7.120464111328125,0.027525227516889572,0.24313610792160034,0.567501425743103
1772094473062414300,7.130414306640625,0.11946899443864822,0.3519984185695648,0.5760813355445862
1772094473072363300,7.14036328125,0.20493735373020172,0.41995173692703247,0.5617244839668274
1772094473082313200,7.150313232421875,0.27893006801605225,0.4043315052986145,0.5752179622650146
1772094473092263200,7.16026318359375,0.3298887312412262,0.33564314246177673,0.6073240041732788
1772094473102212000,7.170212158203125,0.3456570506095886,0.3191610872745514,0.6352086663246155
1772094473112162300,7.180162353515625,0.32466551661491394,0.3732391595840454,0.648270845413208
1772094473122112300,7.1901123046875,0.28932562470436096,0.5008370876312256,0.6330692768096924
1772094473132061200,7.200061279296875,0.276533305644989,0.6222224831581116,0.615577220916748
1772094473142007600,7.210007568359375,0.28037890791893005,0.6531132459640503,0.5912225842475891
1772094473151956500,7.21995654296875,0.26195061206817627,0.5549587607383728,0.5575628876686096
1772094473161906400,7.229906494140625,0.1950852870941162,0.3224235475063324,0.5051960349082947
1772094473171856600,7.239856689453125,0.11735959351062775,0.0016279518604278564,0.4381973147392273
1772094473181805600,7.2498056640625,0.06892015784978867,-0.3403339087963104,0.3725365698337555
1772094473191755500,7.259755615234375,0.03732066601514816,-0.5955157279968262,0.37907204031944275
1772094473201704400,7.269704345703125,0.0022292612120509148,-0.6646884083747864,0.4645475447177887
1772094473211654400,7.279654296875,-0.040058355778455734,-0.5389420390129089,0.6416774392127991
1772094473221604600,7.2896044921875,-0.11061321198940277,-0.3845677077770233,0.8417247533798218
1772094473231553500,7.299553466796875,-0.1944773644208908,-0.23551297187805176,0.9825223684310913
1772094473241503500,7.30950341796875,-0.2780095636844635,-0.08119237422943115,0.9869512319564819
1772094473251453700,7.31945361328125,-0.3622796833515167,0.028018657118082047,0.8071720600128174
1772094473261402600,7.329402587890625,-0.4506761431694031,0.11942154169082642,0.4667697250843048
1772094473271352600,7.3393525390625,-0.5684257745742798,0.18193821609020233,0.008783587254583836
1772094473281301500,7.349301513671875,-0.7379705905914307,0.14197935163974762,-0.5163260102272034
1772094473291251500,7.35925146484375,-0.9400818347930908,-0.04582534730434418,-1.0364218950271606
1772094473301201700,7.36920166015625,-1.119903802871704,-0.29719310998916626,-1.459080696105957
1772094473311150600,7.379150634765625,-1.2166301012039185,-0.44246289134025574,-1.7091649770736694
1772094473321100500,7.3891005859375,-1.1714645624160767,-0.4061853289604187,-1.7563817501068115
1772094473331050800,7.39905078125,-0.9892662763595581,-0.13594047725200653,-1.576970100402832
1772094473340999700,7.408999755859375,-0.7343662977218628,0.24862636625766754,-1.2495259046554565
1772094473350949600,7.41894970703125,-0.47865647077560425,0.5835131406784058,-0.8746205568313599
1772094473360898600,7.428898681640625,-0.26285624504089355,0.7811242341995239,-0.5463500022888184
1772094473370848800,7.438848876953125,-0.10746899992227554,0.8104630708694458,-0.3232062757015228
1772094473380798500,7.448798583984375,-0.009619135409593582,0.6668182611465454,-0.21026454865932465
1772094473390747600,7.45874755859375,0.012185974046587944,0.4057450592517853,-0.17870932817459106
1772094473400697300,7.468697265625,-0.007113421335816383,0.14335894584655762,-0.2037276029586792
1772094473410646500,7.478646484375,0.0026674685068428516,-0.006344470661133528,-0.24048447608947754
1772094473420596500,7.488596435546875,0.059237536042928696,-0.03561554104089737,-0.24570026993751526
1772094473430546400,7.49854638671875,0.11309409141540527,0.005446237046271563,-0.22763711214065552
1772094473440495600,7.50849560546875,0.17197872698307037,0.10004917532205582,-0.2101587951183319
1772094473450445600,7.518445556640625,0.25059235095977783,0.23958545923233032,-0.20231199264526367
1772094473460395500,7.5283955078125,0.3338957726955414,0.38511335849761963,-0.21314360201358795
1772094473470344400,7.538344482421875,0.39143288135528564,0.49770092964172363,-0.23292605578899384
1772094473480294400,7.54829443359375,0.4207441806793213,0.5416891574859619,-0.2765715420246124
1772094473490243300,7.558243408203125,0.4239438474178314,0.5105911493301392,-0.3184240758419037
1772094473500193500,7.568193603515625,0.3919185400009155,0.4355405867099762,-0.34802430868148804
1772094473510143500,7.5781435546875,0.35693177580833435,0.3292294442653656,-0.36925143003463745
1772094473520092400,7.588092529296875,0.34308919310569763,0.20097479224205017,-0.38025107979774475
1772094473530042600,7.598042724609375,0.3521498143672943,0.07616094499826431,-0.3546258807182312
1772094473539992600,7.60799267578125,0.36206182837486267,-0.048988714814186096,-0.28645187616348267
1772094473549941500,7.61794140625,0.34110987186431885,-0.14943066239356995,-0.1915578842163086
1772094473559891500,7.627891357421875,0.3056941032409668,-0.1712624579668045,-0.08887465298175812
1772094473569840400,7.63784033203125,0.30332884192466736,-0.12196660786867142,0.014692647382616997
1772094473579790600,7.64779052734375,0.3216188848018646,-0.05586668848991394,0.12436001747846603
1772094473589740500,7.657740478515625,0.324837327003479,-0.08274292945861816,0.22036154568195343
1772094473599689500,7.667689453125,0.2873932719230652,-0.20069673657417297,0.27588579058647156
1772094473609639700,7.6776396484375,0.2337607592344284,-0.31981149315834045,0.2790910601615906
1772094473619589600,7.687589599609375,0.18621215224266052,-0.4017247259616852,0.23398400843143463
1772094473629538600,7.69753857421875,0.13841581344604492,-0.4285902976989746,0.16710560023784637
1772094473639488500,7.707488525390625,0.0847959965467453,-0.4192716181278229,0.12068216502666473
1772094473649437400,7.7174375,0.0193185955286026,-0.36333945393562317,0.11714299768209457
1772094473659387600,7.7273876953125,-0.05509837716817856,-0.2683711349964142,0.13899901509284973
1772094473669337600,7.737337646484375,-0.14063768088817596,-0.2163952738046646,0.13678036630153656
1772094473679286500,7.74728662109375,-0.19049765169620514,-0.18026389181613922,0.09696850925683975
1772094473689236700,7.75723681640625,-0.23177529871463776,-0.1272551566362381,0.007694455794990063
1772094473699186700,7.767186767578125,-0.276267945766449,-0.06176723539829254,-0.13615459203720093
1772094473709135600,7.777135498046875,-0.2905929684638977,0.07334662228822708,-0.28182247281074524
1772094473719085600,7.78708544921875,-0.28457021713256836,0.26558318734169006,-0.3906586766242981
1772094473729034500,7.797034423828125,-0.26979368925094604,0.3920566737651825,-0.42515504360198975
1772094473738984700,7.806984619140625,-0.26590496301651,0.3932763934135437,-0.34299197793006897
1772094473748934400,7.816934326171875,-0.2663833498954773,0.36671802401542664,-0.1855645775794983
1772094473758883600,7.826883544921875,-0.24850820004940033,0.347372829914093,-0.0055173104628920555
1772094473768833500,7.83683349609375,-0.20175954699516296,0.3394361138343811,0.15209785103797913
1772094473778783500,7.846783447265625,-0.12795935571193695,0.34896916151046753,0.2525128722190857
1772094473788732400,7.856732421875,-0.04636897146701813,0.3460952639579773,0.290720134973526
1772094473798682400,7.866682373046875,0.017649158835411072,0.3016079366207123,0.27821260690689087
1772094473808631600,7.876631591796875,0.07798657566308975,0.24535579979419708,0.2323056310415268
1772094473818581500,7.88658154296875,0.12545450031757355,0.2001531720161438,0.210603266954422
1772094473828531500,7.896531494140625,0.1589255928993225,0.12530960142612457,0.21907870471477509
1772094473838480400,7.90648046875,0.15281124413013458,0.05843229964375496,0.24696332216262817
1772094473848430600,7.9164306640625,0.13127806782722473,0.06264922767877579,0.26569318771362305
1772094473858380500,7.926380615234375,0.12617439031600952,0.14806826412677765,0.25205302238464355
1772094473868329500,7.93632958984375,0.1450481116771698,0.28482159972190857,0.22940513491630554
1772094473878279400,7.946279541015625,0.16897422075271606,0.40000197291374207,0.23638713359832764
1772094473888228600,7.956228515625,0.18245548009872437,0.4564859867095947,0.27184149622917175
1772094473898178600,7.966178466796875,0.21521955728530884,0.45720770955085754,0.33568650484085083
1772094473908128500,7.97612841796875,0.2557261288166046,0.4299298822879791,0.421362042427063
1772094473918077400,7.986077392578125,0.2650272250175476,0.3685581386089325,0.4765206277370453
1772094473928027600,7.996027587890625,0.24747224152088165,0.32124063372612,0.4689405560493469
1772094473937977600,8.0059775390625,0.24876733124256134,0.2888672351837158,0.40481990575790405
1772094473947926500,8.015926513671875,0.2856885492801666,0.24440550804138184,0.3399803042411804
1772094473957876500,8.02587646484375,0.3192704916000366,0.16350239515304565,0.32309800386428833
1772094473967825700,8.03582568359375,0.3412674367427826,0.04065253585577011,0.3842228353023529
1772094473977775600,8.045775634765626,0.3577699661254883,-0.034706663340330124,0.5056228041648865
1772094473987725600,8.0557255859375,0.3446671664714813,0.0064927032217383385,0.613372802734375
1772094473997674500,8.065674560546874,0.3318331241607666,0.10807738453149796,0.60066157579422
1772094474007624700,8.075624755859375,0.3034805953502655,0.19540159404277802,0.41581183671951294
1772094474017574700,8.08557470703125,0.22881409525871277,0.08458000421524048,0.12914201617240906
1772094474027523600,8.095523681640625,0.16689063608646393,-0.2249820977449417,-0.09011895209550858
1772094474037473500,8.1054736328125,0.12623322010040283,-0.534352719783783,-0.07520551234483719
1772094474047422700,8.115422607421875,0.029075419530272484,-0.6543915271759033,0.19111457467079163
1772094474057372700,8.12537255859375,-0.09935792535543442,-0.4364837110042572,0.5364988446235657
1772094474067322400,8.135322265625,-0.16606169939041138,-0.07440950721502304,0.7996754050254822
1772094474077271600,8.145271484375,-0.1005101203918457,0.09383276104927063,0.9062923789024353
1772094474087221500,8.155221435546874,0.07324900478124619,-0.008961668238043785,0.8309429883956909
1772094474097171500,8.16517138671875,0.2243911176919937,-0.19457387924194336,0.6936748623847961
1772094474107120600,8.17512060546875,0.35819095373153687,-0.43932878971099854,0.5402929186820984
1772094474117070300,8.1850703125,0.3299843668937683,-0.7422798275947571,0.3368436396121979
1772094474127019500,8.19501953125,0.12380311638116837,-1.0766524076461792,0.06497173011302948
1772094474136969500,8.204969482421875,-0.15514251589775085,-1.2075343132019043,-0.1888410896062851
1772094474146923500,8.214923583984374,-0.36501309275627136,-1.1209261417388916,-0.40882065892219543
1772094474156872400,8.22487255859375,-0.4451814293861389,-0.8787214756011963,-0.6105154156684875
1772094474166822400,8.234822509765625,-0.3864609897136688,-0.5539628267288208,-0.7844648957252502
1772094474176772600,8.244772705078125,-0.2403639554977417,-0.24912944436073303,-0.8595817685127258
1772094474186721500,8.254721435546875,-0.06050846725702286,-0.05872569978237152,-0.8303041458129883
1772094474196671500,8.26467138671875,0.08698085695505142,0.03908075764775276,-0.7313072681427002
1772094474206620400,8.274620361328125,0.17663554847240448,0.04638845473527908,-0.6203818321228027
1772094474216570600,8.284570556640626,0.17732582986354828,-0.014516707509756088,-0.527188777923584
1772094474226520600,8.2945205078125,0.0992298349738121,-0.06177346408367157,-0.49568215012550354
1772094474236469500,8.304469482421876,0.0093124620616436,-0.014689845032989979,-0.5250656008720398
1772094474246419500,8.31441943359375,-0.013979429379105568,0.1604064553976059,-0.567537784576416
1772094474256369700,8.32436962890625,0.04293764755129814,0.45604345202445984,-0.588232159614563
1772094474266318600,8.334318603515625,0.10687867552042007,0.7727879285812378,-0.5885165929794312
1772094474276268500,8.3442685546875,0.19429054856300354,1.0136545896530151,-0.560962975025177
1772094474286218800,8.35421875,0.3025122582912445,1.2009894847869873,-0.47070685029029846
1772094474296167700,8.364167724609375,0.4089721143245697,1.3358122110366821,-0.33070340752601624
1772094474306117600,8.37411767578125,0.4531860947608948,1.3035049438476562,-0.10846950113773346
1772094474316066600,8.384066650390626,0.38336414098739624,0.7713280916213989,0.237550750374794
1772094474326016500,8.3940166015625,0.3143599033355713,-0.013127273879945278,0.35508716106414795
1772094474335966500,8.403966552734374,0.33774858713150024,-0.5227540135383606,0.2985983192920685
1772094474345915600,8.41391552734375,0.3347817063331604,-0.6085644364356995,0.25710758566856384
1772094474355865600,8.423865478515625,0.25412920117378235,-0.5289351344108582,0.21725043654441833
1772094474365815600,8.433815673828125,0.18204717338085175,-0.3867703974246979,0.1838824450969696
