time,seconds_elapsed,z,y,x
1772045852297953500,0.06595361328125,-1.0679477959424257,0.5994513094015419,0.4904608463939279
1772045852307939600,0.075939697265625,-1.4251216502010822,0.7100818677663803,0.5607664816983043
1772045852317924600,0.085924560546875,-1.6738573415726423,0.800478324136883,0.5539201229348778
1772045852327910700,0.09591064453125,-1.714898961535096,0.9463723574541508,0.4909983142714947
1772045852337895700,0.105895751953125,-1.576446768656373,1.1782929614946245,0.43868594323210414
1772045852347881500,0.115881591796875,-1.338635791403055,1.3465075476914643,0.4375540165927261
1772045852357867500,0.125867431640625,-1.0357570064336061,1.2868966902069747,0.4678618418991565
1772045852367852500,0.1358525390625,-0.7619219451189041,1.1735919441968201,0.48070970609970387
1772045852377838600,0.145838623046875,-0.6795587192088365,1.1346345831625162,0.5173474650800228
1772045852387823600,0.15582373046875,-0.6485965947121382,1.0989598970606922,0.5800863914571702
1772045852397809400,0.165809326171875,-0.6534551406592131,1.094435989895463,0.6074561905503273
1772045852407794400,0.17579443359375,-0.5615571936845779,1.072915647482872,0.6340843774959445
1772045852417780700,0.18578076171875,-0.31960955501794813,0.937118937548995,0.6821691939681768
1772045852427765500,0.195765625,0.011281856992840766,0.7322823013976216,0.6659335139602423
1772045852437751600,0.20575146484375,0.25311668293476103,0.5500000268816948,0.6030227381475269
1772045852447736600,0.215736572265625,0.2381125905483961,0.4483595613107085,0.39489612054005263
1772045852457722600,0.22572265625,0.03769523214399814,0.42056189219430085,0.1537123058527708
1772045852467708700,0.235708740234375,-0.19577157842516899,0.43500002126097675,0.027195757700502872
1772045852477693400,0.245693359375,-0.42966333640813825,0.492120961625874,0.0088578447163105
1772045852487679500,0.255679443359375,-0.6204997965186834,0.5307337470062077,0.1504348185520619
1772045852497664800,0.265664794921875,-0.7569558471441269,0.5876303770959377,0.4326281044978648
1772045852507650600,0.275650634765625,-0.8802548945546149,0.6803595141977071,0.7473316942304372
1772045852517635600,0.285635498046875,-1.0933043555170296,0.6466989443972706,0.9867854702547192
1772045852527621600,0.29562158203125,-1.4102058206200598,0.4108471383877098,0.9750377493157982
1772045852537606400,0.3056064453125,-1.6277034931629895,0.15100202398076654,0.8363358194597065
1772045852547592700,0.3155927734375,-1.5744167241334914,-0.16651085101887583,0.7097222406737506
1772045852557578500,0.32557861328125,-1.2825649446129799,-0.49272404208555814,0.5963859304815531
1772045852567563500,0.3355634765625,-0.850862211331725,-0.707787473218888,0.5976320946177467
1772045852577549600,0.345549560546875,-0.3161854257881641,-0.7226809448376298,0.6770004130281507
1772045852587534600,0.35553466796875,0.2160749462634325,-0.5968729833461344,0.7457651755660772
1772045852597520600,0.365520751953125,0.5632657511681318,-0.4338128573030233,0.8203906468309462
1772045852607505700,0.375505615234375,0.5980038870722055,-0.39677769650295375,0.9206695417251437
1772045852617491500,0.385491455078125,0.3261421716570854,-0.5354455779589712,0.9899005335353315
1772045852627477800,0.395477783203125,0.04446107301712036,-0.7144858018137514,1.0715614563949405
1772045852637462500,0.405462646484375,-0.05406184505522251,-0.8696804551787674,1.135490177078545
1772045852647448600,0.415448486328125,-0.05789163247644901,-0.6087037063933909,0.8676821209684014
1772045852657433600,0.42543359375,-0.11171674616634845,-0.15472922781035303,0.433572216947563
1772045852667419600,0.435419677734375,-0.32136370520889757,0.1274047291636467,0.1981588388878852
1772045852677404700,0.44540478515625,-0.5758978537261485,0.28578035065233703,0.2715808891797438
1772045852687390500,0.455390380859375,-0.7472931157857179,0.37199528355449435,0.4459428190251812
1772045852697375500,0.46537548828125,-0.8100462168186903,0.25180793842375276,0.6147700206950306
1772045852707361800,0.47536181640625,-0.8249795820564031,0.10047843605428934,0.5587012197315693
1772045852717347600,0.48534765625,-0.7508902634948491,0.011289894168823957,0.2791866514757275
1772045852727332600,0.49533251953125,-0.5702893661946058,-0.2799241719700396,0.09753668351396917
1772045852737318400,0.505318359375,-0.2762029594898224,-0.4377519503176212,-0.050591319400444625
1772045852747303400,0.515303466796875,-0.00718085141479969,-0.550553569111228,-0.14770941217616199
1772045852757289700,0.525289794921875,0.2652870131999254,-0.5912257712393999,-0.18254764745384452
1772045852767274500,0.5352744140625,0.48051440272331236,-0.5164363415844738,-0.21002770198844373
1772045852777260500,0.545260498046875,0.6326163507699966,-0.479029570993036,-0.17661496946923433
1772045852787245600,0.55524560546875,0.7031400858044624,-0.4935195763774216,-0.09406776529438793
1772045852797231600,0.565231689453125,0.6860656168848276,-0.5981671148099005,-0.007887465314194559
1772045852807217700,0.5752177734375,0.5526040719002485,-0.6933848538570105,0.03259469413459301
1772045852817202700,0.58520263671875,0.31886428960859775,-0.7718557485036551,0.05439940644651651
1772045852827188500,0.5951884765625,0.21487375378012655,-0.7698615059465169,0.10302220225296914
1772045852837173800,0.605173828125,0.16119944673776626,-0.6437484240286052,0.02893324901759624
1772045852847159600,0.61515966796875,0.04273088822364807,-0.40545594686865805,-0.08855017091669141
1772045852857144600,0.62514453125,-0.12859189312160013,-0.2198237774029374,-0.18788783943802118
1772045852867130600,0.635130615234375,-0.3354255483090877,-0.17356427666172383,-0.24501433276087045
1772045852877115400,0.645115478515625,-0.4564052128612995,-0.2324194934733212,-0.2601203511517495
1772045852887101700,0.655101806640625,-0.509487983751297,-0.38865722615048287,-0.28550613682083786
1772045852897087500,0.66508740234375,-0.5403805501431227,-0.5770177976667881,-0.4347714732021093
1772045852907072500,0.675072509765625,-0.5465601155608892,-0.5942731761112808,-0.6642215224105864
1772045852917058800,0.685058837890625,-0.5539204151958227,-0.42208617915213104,-0.8579594030510633
1772045852927043600,0.695043701171875,-0.5683540142178535,-0.2443890404693782,-1.07474483567141
1772045852937029600,0.705029541015625,-0.6224421627581119,-0.16057488509863613,-1.4276786412075162
1772045852947014700,0.7150146484375,-0.5446691872477532,-0.210614196639508,-1.6654079315267503
1772045852957000400,0.72500048828125,-0.419395040372014,-0.2647062907025218,-1.7624493788696824
1772045852966985700,0.73498583984375,-0.3053203329026699,-0.2817028720803559,-1.6757754501536488
1772045852976971500,0.744971435546875,-0.1489490369737148,-0.2750838923320174,-1.391294491662085
1772045852986957600,0.75495751953125,-0.028116087415814398,-0.24109014505445955,-1.044772379799187
1772045852996942600,0.764942626953125,-0.011309914043545722,-0.14531389534175396,-0.7262995006609707
1772045853006928600,0.7749287109375,0.04363280549943447,0.030637860978394747,-0.46585291322954
1772045853016913700,0.78491357421875,0.1377080965131521,0.16499474736750125,-0.25015118419267235
1772045853026899500,0.7948994140625,0.16878654086589812,0.3039249330215156,-0.08923026213534176
1772045853036884500,0.804884521484375,0.1962812815129757,0.41928047408163543,0.048792307154461735
1772045853046870500,0.81487060546875,0.27897067063748837,0.4652838081046939,0.12195625449940561
1772045853056855600,0.82485546875,0.3875233998149633,0.41245939588993785,0.17710107248574494
1772045853066841600,0.834841552734375,0.484357049626112,0.3172675219364464,0.2166859177686274
1772045853076827600,0.84482763671875,0.5328945783019066,0.24502163928449153,0.24629370504692194
1772045853086812400,0.8548125,0.5557634127140045,0.19061624148860573,0.2695592106264084
1772045853096798700,0.864798828125,0.5734767640590668,0.11611541951671242,0.24774251561574637
1772045853106783700,0.87478369140625,0.566902061843872,0.04198386924862861,0.24152342190518974
1772045853116769500,0.88476953125,0.4863625442296266,-0.06005713994726538,0.24763131032623348
1772045853126754600,0.894754638671875,0.3505067975848913,-0.14991525165736674,0.24604922876656055
1772045853136740600,0.90474072265625,0.16234160251021384,-0.19760493133217094,0.2466031363222748
1772045853146725600,0.9147255859375,-0.054203299352526664,-0.1880089815996587,0.23123254871107637
1772045853156711700,0.924711669921875,-0.30267186422049996,-0.18926570366248488,0.18145228996518997
1772045853166697500,0.934697509765625,-0.5210580100357532,-0.22826281218528746,0.09865502001941204
1772045853176682500,0.9446826171875,-0.6265209565043449,-0.21045980979539453,0.05784271530080586
1772045853186668500,0.95466845703125,-0.6674106007754802,-0.16318872085884212,0.0378879782371223
1772045853196653600,0.964653564453125,-0.6768763482570648,-0.1515021555226296,0.02306088638547808
1772045853206639600,0.9746396484375,-0.6459446188986301,-0.1984356100026518,0.008621332546696066
1772045853216624400,0.984624267578125,-0.5603168382346629,-0.2556245010372251,0.004571253438293933
1772045853226610700,0.994610595703125,-0.4189385287761688,-0.3044887043841183,0.005026595990359783
1772045853236595700,1.004595703125,-0.3152145349293947,-0.27981537783332167,0.031047756953537464
1772045853246581500,1.01458154296875,-0.19568974536061287,-0.13864062812291084,0.09320373234357684
1772045853256567600,1.024567626953125,-0.08909399546980858,0.00912672478556633,0.18118088914528488
1772045853266552600,1.034552490234375,0.009178747233748435,0.09002090105637907,0.27160679080598055
1772045853276538600,1.04453857421875,0.09436696743667125,0.10646883557550609,0.32267551845982667
1772045853286523600,1.054523681640625,0.12731529731452465,0.0965444576062262,0.32677783921211956
1772045853296509400,1.064509521484375,0.11390227351188659,0.061300271876156325,0.3035490854464471
1772045853306494500,1.074494384765625,0.07845452803373336,0.058939534094184634,0.2544180843895301
1772045853316480500,1.08448046875,0.03174363026320934,0.04036035970002413,0.176636341050826
1772045853326465500,1.094465576171875,0.0013069909453392028,0.02235474741011858,0.11202950190994888
1772045853336451600,1.10445166015625,-0.0392395389765501,0.02756765975281596,0.08233736081644892
1772045853346437600,1.114437744140625,-0.02839431983530521,0.024556202977150676,0.028807284550368784
1772045853356422700,1.124422607421875,0.04159925384521484,0.02898980151042342,-0.03272854964733123
1772045853366408700,1.13440869140625,0.14940847117900846,-0.013459931684285402,-0.12384495432283729
1772045853376393200,1.144393310546875,0.23056056773364542,-0.050530748319625854,-0.1986381468374282
1772045853386379500,1.154379638671875,0.25280104111433027,-0.054315235294401645,-0.26443130968604234
1772045853396364500,1.164364501953125,0.2083580882757902,-0.07639832615628839,-0.2930066486440599
1772045853406350300,1.174350341796875,0.1862111383974552,-0.019720599514245984,-0.31337946498934177
1772045853416335400,1.18433544921875,0.10518237596154212,-0.02620031692236662,-0.2616495700130239
1772045853426321400,1.1943212890625,0.010080079987645148,-0.030258506271988152,-0.13656546581666915
1772045853436307500,1.204307373046875,-0.06059738430380821,-0.005055529823899269,-0.04380914844702929
1772045853446292500,1.21429248046875,-0.10893676005899905,0.019774375528097153,0.013139504090882837
1772045853456278300,1.2242783203125,-0.12117664842903614,0.05593816032111645,0.05176639106180519
1772045853466263600,1.234263671875,-0.11481588122546672,0.07428191852420568,0.08331972291730344
1772045853476249300,1.244249267578125,-0.0907873553842306,0.05741276291832328,0.09851513662468642
1772045853486234400,1.254234375,0.002809212201833725,0.015015782824158668,0.08999185762498527
1772045853496220400,1.264220458984375,0.08766074779629707,-0.009168371970206498,0.07460698576010763
1772045853506205400,1.274205322265625,0.15530863513350485,-0.0215434310272336,0.0373499623702839
1772045853516191500,1.28419140625,0.1941372552216053,-0.06351940923035145,-0.005074965176731348
1772045853526177300,1.29417724609375,0.19186112698316574,-0.07030877710953354,-0.012342910353094339
1772045853536162300,1.304162353515625,0.1386754802405834,-0.025914777979254722,0.011913725155591965
1772045853546148600,1.314148681640625,0.07492343129813671,0.0005037117384374142,0.02686429725643247
1772045853556133600,1.324133544921875,0.04279518563151359,0.0000732113666832447,0.02948368597459048
1772045853566119400,1.334119384765625,0.018457447710633276,-0.0037920857593417164,0.04458225171137601
1772045853576104400,1.3441044921875,0.020804303097724915,-0.0011848258703947066,0.04897562783211469
1772045853586090200,1.35409033203125,0.053015550872683524,0.007211538814008236,0.026500724641047416
1772045853596076500,1.36407666015625,0.08171908278763294,0.00017228782698512076,0.007280548929609358
1772045853606061600,1.3740615234375,0.08988777619600295,-0.015176818604767321,-0.008177534301951526
1772045853616047400,1.38404736328125,0.06436053622961044,-0.011741875720024109,-0.037086525661125774
1772045853626032400,1.394032470703125,0.023615853387117386,0.005961684883385897,-0.05294570050686598
1772045853636018400,1.404018310546875,0.0003267477363348007,0.04138604948595166,-0.059077426461223506
1772045853646003500,1.41400341796875,0.03361351578831673,0.07425532277822494,-0.006948376099485904
1772045853655989500,1.423989501953125,0.04975274968445301,0.06792889623567462,0.036013580933678895
1772045853665974300,1.433974365234375,0.07812076603472233,0.01046381860822439,0.051790831383317706
1772045853675960600,1.443960693359375,0.0900643018066883,-0.0492659890808165,0.03428480264600366
1772045853685945600,1.453945556640625,0.08046411429047584,-0.0959963222041726,0.026895222117658702
1772045853695931400,1.463931396484375,0.0572515810072422,-0.09051584496647119,0.04165688405027613
1772045853705917400,1.47391748046875,0.04765080896914005,-0.05770239351466298,0.06701919751223176
1772045853715902200,1.483902099609375,0.04525251565575599,-0.06623524406030774,0.10741329508507623
1772045853725888500,1.493888427734375,0.07540975351035595,-0.06397153691202402,0.1394857189112343
1772045853735873500,1.50387353515625,0.09849310745596886,-0.055291240719705814,0.1569824135646224
1772045853745859300,1.513859375,0.0728542238086462,-0.05085618088170886,0.1604092462081462
1772045853755844400,1.52384423828125,0.03904021701216698,-0.03146583623513579,0.15882882688259706
1772045853765830400,1.533830322265625,0.026938860329985617,-0.051138797215372324,0.14644956657448782
1772045853775816400,1.54381640625,0.039701895791292185,-0.07935878339707851,0.1279647559328936
1772045853785801500,1.553801513671875,0.038565585237741465,-0.09091258919909596,0.13839503759769722
1772045853795787300,1.563787353515625,0.05883037463128567,-0.11706015302091836,0.14620353765785693
1772045853805772300,1.573772216796875,0.05438099400699138,-0.12165551798716187,0.1594272676997818
1772045853815758600,1.583758544921875,0.008701777371764183,-0.11103124812021851,0.1758957883492112
1772045853825743400,1.593743408203125,-0.016282441759109496,-0.08815291522741317,0.1796996558778919
1772045853835729400,1.6037294921875,-0.03350947089195251,-0.074477148835361,0.17715649246741086
1772045853845714400,1.61371435546875,-0.045782677009701726,-0.07340718151628971,0.16884223484219982
1772045853855700500,1.623700439453125,-0.04722819964289665,-0.07015753207057714,0.14315472628017886
1772045853865685500,1.633685546875,-0.003350479471683502,-0.060064300340414045,0.094164485400822
1772045853875671300,1.64367138671875,0.057462593409419054,-0.03754018771275878,0.07506028248555958
1772045853885657300,1.6536572265625,0.11414835722744464,-0.019851824678480623,0.06073370576826855
1772045853895642600,1.663642578125,0.1434983703523874,-0.018648878629505632,0.05765985128087923
1772045853905628400,1.67362841796875,0.10696049154996871,-0.007322597973048687,0.07326346219666302
1772045853915613400,1.683613525390625,0.019351766201853752,0.00748275697082281,0.07102547401152551
1772045853925599200,1.69359912109375,-0.04471534003913402,0.016356237647682428,0.04773837765473872
1772045853935584300,1.703584228515625,-0.07270341716110706,0.023737872331589457,0.016518789531942454
1772045853945570600,1.713570556640625,-0.08343582357764244,0.024124387431144714,-0.006660973992850631
1772045853955555300,1.723555419921875,-0.06072773268520832,0.010782675299048423,-0.020254706390947102
1772045853965541400,1.733541259765625,-0.035927637949585915,0.029174072036147115,-0.0257857082394883
1772045853975527400,1.74352734375,0.0016156185030937193,0.039485622692108154,-0.003441116897203028
1772045853985512400,1.753512451171875,0.015974983245134352,0.026510698045790194,0.009563344370853155
1772045853995498500,1.76349853515625,-0.015233224967122077,0.022661036880314348,0.0003242087193764746
1772045854005483300,1.773483154296875,-0.04924713824987411,0.018677374071627853,-0.02983277340689674
1772045854015469300,1.78346923828125,-0.044022097077965734,-0.0007386895380914211,-0.036270514836814254
1772045854025454600,1.79345458984375,-0.014798925203084946,-0.033969343488663435,-0.03548482608553022
1772045854035440400,1.8034404296875,0.022581834164261818,-0.0408266620375216,-0.038531244576722384
1772045854045425400,1.81342529296875,0.05653378812670708,-0.0339076764293015,-0.04491122793741524
1772045854055411500,1.823411376953125,0.09384148225784301,-0.040053485707938666,-0.05081648819213733
1772045854065397500,1.8333974609375,0.15239830064475535,-0.050919016984850164,-0.07482523162066936
1772045854075382500,1.843382568359375,0.19321254159212112,-0.05379208820313215,-0.04918450307613238
1772045854085368300,1.853368408203125,0.20696166548132897,-0.060753305517882106,0.015509959549270569
1772045854095353300,1.863353271484375,0.18551906448006628,-0.0657739101588726,0.05745908627808094
1772045854105339600,1.873339599609375,0.13420681039392948,-0.05985562602579593,0.08649121082657947
1772045854115324400,1.883324462890625,0.0863391438037157,-0.04364522658959031,0.0985629943544045
1772045854125310500,1.893310546875,0.06627133828699588,-0.05509045745059848,0.09647873542625457
1772045854135295500,1.90329541015625,0.023375614890456198,-0.055734016051143406,0.10705105591025203
1772045854145281300,1.91328125,-0.005859831944108009,-0.06541589050143956,0.0774134397492744
1772045854155267600,1.923267578125,-0.016043372306227682,-0.07156696047708391,0.046562721471488475
1772045854165252400,1.93325244140625,-0.03844517372846603,-0.08689780059978365,0.04846053618313744
1772045854175238400,1.94323828125,-0.021941782695055007,-0.029204467174410817,0.06090055023515597
1772045854185223400,1.953223388671875,0.006375964772701263,-0.021730331901460884,0.03209416073393077
1772045854195209500,1.96320947265625,0.02470481766760349,-0.050427287945151326,0.014221874233800917
1772045854205194500,1.973194580078125,0.015506781211495398,-0.029865561431646346,0.028252847271692007
1772045854215180300,1.98318017578125,-0.0093283848375082,-0.02692147080376744,0.020285503388009964
1772045854225165300,1.993165283203125,-0.049393268722295755,-0.05689750687256455,0.06404312257720157
1772045854235151600,2.003151611328125,-0.07219722120463848,-0.028659254381805655,0.09047489190157502
1772045854245137400,2.013137451171875,-0.06183540166616439,0.028232845663279292,0.08453313556136563
1772045854255122400,2.023122314453125,-0.036062662506103516,0.09836860429346561,0.07056191162038594
1772045854265108200,2.033108154296875,-0.010676876837015152,0.08431129123792051,0.042104390355758366
1772045854275093200,2.04309326171875,0.02107669029831886,0.06427431925088167,0.020998382631409913
1772045854285079600,2.05307958984375,0.04555938964784145,0.047257060411199925,-0.02290980574330315
1772045854295064600,2.063064697265625,0.05903086563944816,0.05561243549808859,-0.0520797313272953
1772045854305050400,2.07305029296875,0.07177578092217445,0.03769976218864322,-0.07813800943046807
1772045854315035400,2.083035400390625,0.041810850769281385,0.014380042203888296,-0.07048075440926477
1772045854325021400,2.093021484375,0.005364741903543472,0.016734277179837227,-0.08070086392210796
1772045854335007500,2.103007568359375,-0.00613514175415039,0.01904825321063399,-0.09440983846401794
1772045854344992500,2.112992431640625,0.017073299875855444,0.011696575273573397,-0.07521397520992905
1772045854354978300,2.122978271484375,0.048534606066346166,0.011498495418205856,-0.04794584639295935
1772045854364963600,2.132963623046875,0.08120879517793655,0.009379311307147144,-0.013679839778970927
1772045854374949400,2.142949462890625,0.09418401208519935,0.02434891690202057,0.02745141296200454
1772045854384935000,2.152934814453125,0.1093313123345375,0.0370441478241235,0.07372433944037184
1772045854394920700,2.162920654296875,0.10645663368105887,0.03411211296021938,0.1147944183123298
1772045854404905700,2.17290576171875,0.09313830242455005,0.026942294396087526,0.11848781120385973
1772045854414891800,2.182891845703125,0.06336509545147419,0.019434037657827138,0.08229777772473171
1772045854424877800,2.1928779296875,0.040892566880583764,0.01995543118342757,0.027387864472810178
1772045854434862800,2.20286279296875,0.021394670206308364,0.01169949788302183,-0.014674257643800228
1772045854444849000,2.212848876953125,0.020446575701236723,0.0015367080479860304,-0.012584116964135318
1772045854454833700,2.222833740234375,0.03416530445218086,-0.00631181349530816,0.00834315492613241
1772045854464820000,2.232820068359375,0.022012509843707083,-0.02106938377469778,0.030856472165137528
1772045854474805000,2.242804931640625,-0.00722702864408493,0.0044548605170100924,0.03535829536272213
1772045854484790800,2.252790771484375,-0.021554244682192802,0.006406213780492544,0.034713786914106454
1772045854494775800,2.26277587890625,-0.0221685771882534,-0.004816021979600191,0.01606994978589937
1772045854504761900,2.272761962890625,-0.02075344969332218,-0.01649301576986909,0.040357455356884744
1772045854514747000,2.282746826171875,-0.03947334773242473,0.039538229662179944,0.07804065000321715
1772045854524733000,2.29273291015625,0.00835632493495941,0.06024411388672888,0.03904173311581835
1772045854534718700,2.30271875,0.050990767046809195,0.03208382200300693,0.006663202482555061
1772045854544703700,2.312703857421875,0.05703063173294067,-0.0010557926632463932,0.015496698208898305
1772045854554689800,2.322689697265625,0.04066051169037819,-0.005792758057266473,0.03872400893615559
1772045854564674800,2.3326748046875,0.048995209315419196,0.012550050297752023,0.018941614498384295
1772045854574660900,2.342660888671875,0.047885786768794056,-0.00162190211340785,-0.009236943694390355
1772045854584645600,2.352645751953125,0.05266834487020969,-0.004511486075073481,-0.021994152203109116
1772045854594632000,2.3626318359375,0.07207914778292179,-0.011185995402932166,-0.017683869522251188
1772045854604617000,2.372616943359375,0.0712163934737444,-0.033331191715598105,-0.003112706926744431
1772045854614602800,2.382602783203125,0.037135844695568083,-0.026284415009245277,0.009590597703959793
1772045854624588800,2.3925888671875,-0.042160394859313964,0.000024915245547890663,0.02853524440964684
1772045854634573800,2.40257373046875,-0.11242810930609702,0.013743351735547185,0.033381807657983154
1772045854644560000,2.412559814453125,-0.13621756569445131,-0.02003974846601486,0.037975455591175704
1772045854654545000,2.422544921875,-0.09964695366621017,-0.052670390696823596,0.023042090353462844
1772045854664530700,2.43253076171875,-0.009189853149652481,-0.04964030228592455,0.010151282060332596
1772045854674515700,2.442515625,0.06383388200700282,-0.0217938986569643,0.022952822901122272
1772045854684501800,2.452501708984375,0.1199491524606943,0.01269552318304777,0.055895179695915426
1772045854694486800,2.46248681640625,0.1715764638453722,-0.010170973141491412,0.07212808322487399
1772045854704472800,2.472472900390625,0.1818804157167673,-0.04420432177707553,0.07151565041495486
1772045854714459000,2.482458984375,0.16291151135265827,-0.056369902801886196,0.08777790790256113
1772045854724444000,2.49244384765625,0.10200433044731616,-0.03343275239393115,0.09511658022757619
1772045854734430000,2.502429931640625,0.037140520870685576,0.00020209844335913657,0.10253471099697054
1772045854744414700,2.512414794921875,-0.018206687819957733,0.02676087341457605,0.10387918440848588
1772045854754400800,2.52240087890625,-0.030623686322569846,0.0010111498039215802,0.08003257273910566
1772045854764386000,2.532385986328125,-0.0267436300188303,-0.010998802267760038,0.056545058439392594
1772045854774371800,2.542371826171875,-0.021378303593397138,-0.04234115825369954,0.03856492765061557
1772045854784356900,2.55235693359375,-0.023225392764806747,-0.009661708445101976,0.025166352498438207
1772045854794342700,2.5623427734375,0.012485387563705444,0.01565429992340505,0.02229211223637685
1772045854804329000,2.572328857421875,0.014369301614165305,0.026026202464476227,0.03713891343548894
1772045854814314000,2.58231396484375,0.02193652199804783,0.020516718327999114,0.018092340725287794
1772045854824299800,2.5922998046875,0.0429781409829855,0.015821327053382992,-0.022467468803282827
1772045854834284800,2.602284912109375,0.039056583625078196,0.03382511271238327,-0.026503007929679006
1772045854844270800,2.612270751953125,0.04366670776903629,0.043216406718268985,-0.012485625025723129
1772045854854255900,2.622255859375,0.052177931004762645,0.02861870317570865,0.014613905758690088
1772045854864242000,2.632241943359375,0.039166473740339276,0.01952230046316981,0.018099501118436456
1772045854874226700,2.642226806640625,0.0270703777551651,0.0329409502889961,0.0040029885636642575
1772045854884212700,2.652212646484375,0.034438860696554184,0.03340557212606072,-0.01152247908199206
1772045854894198800,2.66219873046875,0.035624271088838574,0.01794284925200045,-0.011449066785909234
1772045854904183800,2.672183837890625,0.013273907592892646,-0.0014044599704444408,-0.016334208478964864
1772045854914169900,2.682169921875,0.012493570870161055,-0.00483991431184113,-0.029791856874618678
1772045854924155000,2.69215478515625,0.010109306082129477,-0.0069717387087643145,-0.041001872473955155
1772045854934141000,2.702140869140625,0.014745149189233779,0.002314487487450242,-0.023158410209510476
1772045854944126000,2.7121259765625,0.03494038047790527,-0.004393631849065422,-0.0015289448666386306
1772045854954111700,2.72211181640625,0.06492576889693737,-0.012629983666166663,0.024851386531442404
1772045854964096800,2.7320966796875,0.06697685620784759,-0.025066417521610856,0.03583424231139943
1772045854974083000,2.7420830078125,0.048071080207824704,-0.01019998004026711,0.03539701993791386
1772045854984068900,2.75206884765625,0.025392215409874914,0.006422434262931346,0.02552544986810535
1772045854994054000,2.762053955078125,0.010315057787299155,0.025049831712990998,0.036218565453868354
1772045855004039700,2.772039794921875,-0.012714520144462584,0.04007993532344699,0.05327285010199993
1772045855014024700,2.782024658203125,0.007646130838990211,0.011667641440033912,0.04989719965644181
1772045855024011000,2.792010986328125,0.045239071652293204,-0.02775397610515356,0.03927667438285425
1772045855033995800,2.801995849609375,0.06760989341437816,-0.01949285517297685,0.0181420068196021
1772045855043981800,2.81198193359375,0.05929448501169681,-0.008380582593381404,0.009571801671944559
1772045855053966800,2.821966796875,0.026616204246878623,-0.012647373192384839,0.0154190298628062
1772045855063953000,2.831952880859375,0.0014227262794971466,0.01012552656456828,0.011189210273325442
1772045855073939000,2.84193896484375,-0.025282325294613838,0.03193615716062486,0.018208112592063844
1772045855083923700,2.851923828125,-0.03676876494884491,0.018298750017583368,0.017695669557899234
1772045855093909800,2.86190966796875,-0.022713936111330983,0.015339242624863981,0.014784677482023834
1772045855103895000,2.87189501953125,-0.00001052139401435852,0.004078428420051932,-0.005406443887110799
1772045855113880800,2.881880859375,0.03233049024045467,-0.010344503077492117,-0.030159027952887114
1772045855123865900,2.891865966796875,0.047844870236516,0.0009239099118858575,-0.016207659489847717
1772045855133851600,2.9018515625,0.026131051078438758,0.04064801753498613,0.013372180335596203
1772045855143836700,2.911836669921875,0.009371054935455321,0.052973903688043354,0.03830043149553239
1772045855153823000,2.921822998046875,0.01821370208263397,0.029381869567930697,0.050623066245578226
1772045855163807700,2.931807861328125,0.018517653465270994,0.024866584100574254,0.05604658913165331
1772045855173793800,2.941793701171875,0.024649872609972954,0.012976897407695651,0.04681770087955519
1772045855183779800,2.95177978515625,0.03706336398124695,0.021775632347911595,0.054402475186437364
1772045855193764900,2.961764892578125,0.037647301349043844,0.024299305606633424,0.06478815052453428
1772045855203751000,2.9717509765625,0.06296119082570076,0.010373729171976447,0.04575319518689066
1772045855213736000,2.98173583984375,0.07021744556427001,0.0001632277376949787,0.028378501211665567
1772045855223721700,2.9917216796875,0.06898293533325195,-0.016444573518261313,0.02582194859664887
1772045855233707000,3.00170703125,0.06730769559741019,-0.027282120809704064,0.05235637457789853
1772045855243692800,3.01169287109375,0.02564940504133701,-0.03446830598674715,0.06472560668233782
1772045855253677800,3.021677734375,-0.03259703222215175,-0.038923897156119346,0.06353373001664876
1772045855263663900,3.031663818359375,-0.07790624650120735,-0.0404675464015454,0.06286116451732814
1772045855273650000,3.04164990234375,-0.07136135490238667,-0.00036459552869200706,0.09044168375171721
1772045855283635000,3.051635009765625,-0.01966857706606388,0.01588584365695715,0.1218579269577749
1772045855293620700,3.061620849609375,0.010636544826626777,-0.0063525838971138,0.131313463572599
1772045855303605800,3.071605712890625,0.018760230049490928,-0.03057356357052922,0.11401357013294472
1772045855313592000,3.081592041015625,-0.0058282677620649335,-0.057839829223975535,0.08740865446506067
1772045855323576800,3.091576904296875,-0.07021160034537315,-0.07494410875998438,0.07449452009527012
1772045855333563000,3.10156298828125,-0.10585106900334358,-0.04591200247779488,0.0699054570056498
1772045855343548000,3.1115478515625,-0.09820902981758117,-0.001238748014718294,0.06730800612466409
1772045855353533700,3.12153369140625,-0.08977730155885219,0.010938523447886109,0.051352019840944556
1772045855363520000,3.13152001953125,-0.04248597355186939,0.02104191124588251,0.03801942259706557
1772045855373504800,3.1415048828125,0.029666823989152907,0.033414851411059494,0.017464929541945458
1772045855383490600,3.151490478515625,0.09533727377355099,0.030833821941912174,0.021346702878735958
1772045855393475600,3.1614755859375,0.14467910456955432,0.04035502593778074,0.02359623537119478
1772045855403461400,3.17146142578125,0.16048633003234863,0.036175548296049236,0.04281626495216041
1772045855413446400,3.1814462890625,0.1425625508069992,0.03744885616749525,0.05345452681183815
1772045855423432400,3.191432373046875,0.11226444317698478,0.019727686842158434,0.05802267497759312
1772045855433417500,3.20141748046875,0.07930091572999953,-0.000002849544212222099,0.07165515021719038
1772045855443403500,3.211403564453125,0.05769640216529369,-0.00419547892846167,0.07070581360310316
1772045855453389300,3.221389404296875,0.030666940942406653,-0.003966273282468319,0.06125109897218644
1772045855463374300,3.231374267578125,0.0067798693984746925,0.010395721808075905,0.05357322128806263
1772045855473360600,3.241360595703125,0.029047815307974813,0.03090308778584003,0.059465457664430135
1772045855483345400,3.251345458984375,0.06096972474753856,0.0346374520085752,0.07318221365399659
1772045855493331500,3.26133154296875,0.10365326669812201,0.015543606090545654,0.08881517852842807
1772045855503316500,3.27131640625,0.14812836824059486,0.006577405628934502,0.08619089443944394
1772045855513302500,3.281302490234375,0.17166940282583235,0.003912716464325785,0.07995020995158701
1772045855523287600,3.29128759765625,0.15683482178747654,-0.002665492882207036,0.08816416727378965
1772045855533273300,3.3012734375,0.1076449666827917,0.0002906535096466541,0.0994109164206311
1772045855543258400,3.31125830078125,0.060710197028517716,0.009107873954623938,0.10742615456664933
1772045855553244400,3.321244384765625,0.006382979035377502,0.02087590702921152,0.1188409537567757
1772045855563230500,3.33123046875,-0.014949147328734397,0.014374343115463852,0.09256928863124922
1772045855573215500,3.341215576171875,-0.0164303257972002,0.0018661591980606317,0.06516334051247685
1772045855583201500,3.351201416015625,-0.007905658558011055,-0.0022295856829732657,0.04019979884345084
1772045855593186300,3.361186279296875,0.004185176730155945,-0.007050429968163371,0.025825309597514567
1772045855603172600,3.371172607421875,-0.02042494839131832,-0.007277443657070398,0.040066947977710515
1772045855613157600,3.38115771484375,-0.05051964240372181,-0.003389423242583871,0.05045552765894681
1772045855623143400,3.391143310546875,-0.08135609469413757,0.02525448743961751,0.04580167397111654
1772045855633128400,3.40112841796875,-0.061218731072545045,0.0573879207380116,0.03368422467065975
1772045855643114500,3.411114501953125,0.034143677142262456,0.057528059861063956,0.0052759128426201635
1772045855653100500,3.4211005859375,0.15187223094403743,0.04646240290217101,-0.010100647851638495
1772045855663085600,3.43108544921875,0.2690536722570658,0.021628259766474364,0.010473536284640431
1772045855673071400,3.4410712890625,0.3261293121755123,-0.013909355952218174,0.05797688134079799
1772045855683056400,3.451056396484375,0.3379991981893778,-0.06519019198678433,0.11213349200738593
1772045855693042400,3.46104248046875,0.2545803257465362,-0.1311948421616107,0.16318572518415747
1772045855703027500,3.47102734375,0.1253957274287939,-0.1767841154910624,0.18592693289490417
1772045855713013500,3.481013427734375,-0.02828326067626476,-0.2216072267536074,0.17768314669001847
1772045855722998300,3.490998291015625,-0.1546978097587824,-0.2403701602168381,0.16570505106132477
1772045855732984600,3.500984619140625,-0.2589221543431282,-0.25352102595195175,0.1647135558059439
1772045855742970400,3.510970458984375,-0.3242377993404865,-0.21708982239440083,0.15550750044016168
1772045855752955400,3.520955322265625,-0.30375206067264077,-0.1798692220248282,0.1257186209739186
1772045855762941400,3.53094140625,-0.2101841346591711,-0.13611702792942523,0.10239661770053207
1772045855772926500,3.540926513671875,-0.0693862554371357,-0.08408464287519454,0.08682628799984231
1772045855782912500,3.55091259765625,0.08696692031323909,-0.03621821839399635,0.09892375395819544
1772045855792897500,3.5608974609375,0.22131518500447273,-0.01188581423535943,0.12246540959794074
1772045855802883300,3.57088330078125,0.291315772947669,0.0005201514165848494,0.17319666719203813
1772045855812868400,3.580868408203125,0.24629414343833922,0.000375336118414998,0.20487430128064005
1772045855822854400,3.5908544921875,0.1387333479076624,-0.030362331972643732,0.18796563564827665
1772045855832840400,3.60084033203125,-0.037816812697052955,-0.06421886273659766,0.12360117216221987
1772045855842825500,3.610825439453125,-0.22533844917118548,-0.05751987655460834,0.04192611117940396
1772045855852811500,3.6208115234375,-0.3903302739292383,-0.044382527888193725,-0.031165172788128255
1772045855862796500,3.630796630859375,-0.45977088990211484,-0.01128054181858897,-0.10987177588678895
1772045855872782600,3.640782470703125,-0.40044484070837494,0.025022359184175728,-0.17673907077293843
1772045855882767400,3.650767333984375,-0.29493162535727024,0.07030877710953354,-0.20482227883245796
1772045855892753400,3.66075341796875,-0.15326163947582244,0.10588606725148857,-0.1929592609507963
1772045855902738700,3.67073876953125,0.018555062866210937,0.09301547976247966,-0.17032182414177804
1772045855912724500,3.680724365234375,0.1552455067694187,0.09628339551724494,-0.13286664783135055
1772045855922710500,3.69071044921875,0.2568640527695417,0.13239442720972,-0.09297028891388326
1772045855932695300,3.7006953125,0.3186620450347662,0.146359166610986,-0.05333554007466882
1772045855942681600,3.710681640625,0.33776948108673094,0.14961751081980765,0.003709923901222646
1772045855952666600,3.72066650390625,0.3054647098094225,0.13774638269692657,0.05170969243850559
1772045855962652400,3.73065234375,0.23918168108463286,0.1001785032596439,0.10213109863214194
1772045855972637400,3.740637451171875,0.1526104820907116,0.05782631215527653,0.128881925576739
1772045855982623500,3.75062353515625,0.03656067515611648,0.024652649088948965,0.10553798446618019
1772045855992608500,3.7606083984375,-0.08826572795212269,0.033075901780277486,0.08262333815097808
1772045856002594600,3.770594482421875,-0.1784118628233671,0.04208455314412713,0.04991393159553408
1772045856012579300,3.780579345703125,-0.19782851095497608,0.0547308303579688,0.014767507151514292
1772045856022565400,3.7905654296875,-0.14646423442065715,0.07134228487573564,-0.016079283869825302
1772045856032551400,3.800551513671875,-0.06625614071786404,0.09224997528269886,-0.029629670316539704
1772045856042536400,3.810536376953125,0.04262859689295292,0.0951578255534172,-0.04395089500527829
1772045856052522500,3.8205224609375,0.1289379300802946,0.09377871921993791,-0.03241783973034471
1772045856062507300,3.83050732421875,0.18970716381967068,0.10089768437966704,-0.044860703326575456
1772045856072493600,3.84049365234375,0.21249884134232996,0.13797843788713215,-0.046334904064983126
1772045856082478600,3.850478515625,0.18933540789783,0.16495295405238866,-0.05454977470263839
1772045856092464400,3.86046435546875,0.15596213060617445,0.1849715866651386,-0.057021827371977266
1772045856102449400,3.870449462890625,0.12615735945105552,0.18211225171126424,-0.04127184852175414
1772045856112435500,3.880435546875,0.09722586399912833,0.16938699097707866,-0.035919271980039774
1772045856122421500,3.89042138671875,0.0655734191507101,0.15941124814674257,-0.049955323051847515
1772045856132406500,3.900406494140625,0.025695582270622252,0.147034289393574,-0.06429656761530786
1772045856142392300,3.910392333984375,-0.0360632470279932,0.13408566823229193,-0.07782068710960448
1772045856152377300,3.92037744140625,-0.06754091983139515,0.13953969585448503,-0.10056293599996716
1772045856162363600,3.93036376953125,-0.06047755731642246,0.14604688579142092,-0.10666728075705469
1772045856172348400,3.940348388671875,-0.01687865408658981,0.13567198757566512,-0.09835457576811313
1772045856182334500,3.95033447265625,0.04308627753257751,0.11334456656388937,-0.06370488533247262
1772045856192319500,3.960319580078125,0.07471241889595985,0.07705934734828769,-0.02381415243819356
1772045856202305500,3.970305419921875,0.07546060691475867,0.05201908718124032,-0.006840513544529676
1772045856212291600,3.98029150390625,0.10929098032414912,0.012519801289960742,-0.022132629092037677
1772045856222276400,3.9902763671875,0.14134791432023047,-0.016041618740558622,0.0035027108913287517
1772045856232262400,4.000262451171875,0.156339731746912,0.0004451864842325449,0.03558547344841063
1772045856242247700,4.01024755859375,0.09970072968006133,0.05072495571747422,0.032064240519702435
1772045856252233500,4.0202333984375,-0.026634324425458905,0.12644384824223814,0.013380509772524236
1772045856262218500,4.030218505859375,-0.13015607369840143,0.13963504598774015,0.01901172059252858
1772045856272204300,4.040204345703125,-0.15343991865217685,0.07828545507714152,0.06011150048300624
1772045856282189300,4.050189208984375,-0.15243687908947468,-0.010555004023015499,0.0971487071096897
1772045856292175600,4.060175537109375,-0.17078677477240561,-0.08006196323037147,0.11307999734357
1772045856302161400,4.070161376953125,-0.16714695696532725,-0.0895120747514069,0.10959354346729815
1772045856312146400,4.080146484375,-0.12411094831526279,-0.06395940808281302,0.09194945796616374
1772045856322132200,4.09013232421875,-0.05505845487713813,-0.01732493654936552,0.07659271621722727
1772045856332117500,4.100117431640625,0.018639818540215493,0.027714374747127294,0.09214779354985803
1772045856342103600,4.110103515625,0.06769640265405177,0.06190247555300593,0.13423446558583527
1772045856352088600,4.120088623046875,0.13493863179981708,0.06432838752567768,0.16548041199259458
1772045856362074400,4.130074462890625,0.16895429864823816,0.048286184263229365,0.12966525797415523
1772045856372059400,4.140059326171875,0.19928630854785442,0.0186911834012717,0.05019260240644216
1772045856382045400,4.15004541015625,0.1978133133858442,-0.030860783014073967,-0.025213461309485135
1772045856392030500,4.160030517578125,0.16791443420648575,-0.0809620538752526,-0.08634886148013174
1772045856402016500,4.1700166015625,0.14860767619013784,-0.08515665602087974,-0.1551779579585418
1772045856412002600,4.18000244140625,0.06060907474160194,-0.12283179522491991,-0.17372366847451776
1772045856421987600,4.189987548828125,-0.01741758326888084,-0.07892112263217568,-0.1612517979795113
1772045856431973600,4.1999736328125,0.004805938977003097,0.008349383737519383,-0.1607434831311926
1772045856441958700,4.209958740234375,0.08777823669612407,0.04639474449343979,-0.12059291199063882
1772045856451944700,4.21994482421875,0.14195932421684265,0.06667655808702111,-0.07287150373701005
1772045856461929500,4.229929443359375,0.165584529954195,0.0980249054223299,-0.01568453066488728
1772045856471915500,4.23991552734375,0.21734452780783176,0.1656560608204454,0.003684332802239805
1772045856481900800,4.24990087890625,0.26570786896049975,0.1842228871896863,0.02209518315847963
1772045856491886600,4.259886474609375,0.3105266693741083,0.1131252977900207,0.05841060571609996
1772045856501872600,4.26987255859375,0.3257470348596573,0.005525047031790018,0.08939222036455757
1772045856511857400,4.279857421875,0.24368191511332987,-0.07859663991816342,0.10239214245481416
1772045856521843700,4.28984375,0.11044307296872138,-0.12288337928168475,0.12603831791495904
1772045856531828700,4.299828857421875,-0.04293021018803119,-0.10636946685425937,0.12963293574028648
1772045856541814500,4.309814453125,-0.1527577816069126,-0.042435777734592554,0.1481553841116838
1772045856551799600,4.319799560546875,-0.21793840204775333,-0.0032977263711392877,0.1891224044679664
1772045856561785600,4.32978564453125,-0.237855400916934,-0.017396686611324548,0.2299144518498331
1772045856571770600,4.3397705078125,-0.21168986304700374,-0.07277772450633346,0.25205767540112134
1772045856581756700,4.349756591796875,-0.19284195471405982,-0.11545797852128743,0.25640721238013353
1772045856591742500,4.359742431640625,-0.1603437066912651,-0.13053900860138237,0.24788440830446778
1772045856601727500,4.3697275390625,-0.1600035149514675,-0.11795301020741462,0.2402527443822473
1772045856611713500,4.379713623046875,-0.17314415155351162,-0.11996551907360553,0.2105024981596507
1772045856621698600,4.389698486328125,-0.16339432643353938,-0.13938063283525406,0.17623258255552499
1772045856631684600,4.3996845703125,-0.13373393218517302,-0.15030680825822054,0.13422986247595398
1772045856641669600,4.409669677734375,-0.13012860116958616,-0.14327033375017345,0.12358375523653813
1772045856651655700,4.41965576171875,-0.11064122588932514,-0.1128140398837626,0.10890077543016523
1772045856661640700,4.429640625,-0.03462181604802608,-0.07881042879931628,0.0950492414792534
1772045856671626500,4.43962646484375,0.05943067861199378,-0.04058211269192397,0.09249492648709565
1772045856681611500,4.449611572265625,0.12591536738872527,-0.021942440282180904,0.06962573588197118
1772045856691597800,4.459597900390625,0.1840063218295574,-0.02278385954238474,0.06162453996103722
1772045856701583600,4.46958349609375,0.18743395819067954,-0.029054756505414843,0.06448571067897137
1772045856711568600,4.479568603515625,0.1587397786259651,-0.03757913148365915,0.07148609552690759
1772045856721554400,4.489554443359375,0.11207388904094695,-0.05495711339451372,0.06532502931363414
1772045856731539500,4.49953955078125,0.07420271580815314,-0.0603711743324995,0.056962927658436815
1772045856741525800,4.50952587890625,0.050502691268920895,-0.043392713133245706,0.04913432095858734
1772045856751510500,4.519510498046875,0.05699497589766979,-0.037479397436231375,0.05149112235095817
1772045856761496600,4.52949658203125,0.03920739027261734,-0.02165463631674647,0.05887719574796501
1772045856771481600,4.539481689453125,-0.0012707505881786347,-0.007074176169931888,0.09554521743580699
1772045856781467600,4.549467529296875,-0.06791852097213268,-0.04698357723206281,0.21104323570653796
1772045856791453700,4.55945361328125,-0.15797054781913755,-0.14444230013899503,0.35034137789011
1772045856801438500,4.5694384765625,-0.23509470403194427,-0.09975216760635375,0.18399477752223609
1772045856811424500,4.579424560546875,-0.2525169634759426,-0.017476254653558135,-0.023648289785417727
1772045856821409800,4.589409912109375,-0.25454057825803755,0.021285364612936973,-0.13532255308348684
1772045856831395600,4.5993955078125,-0.2687526434838772,0.06044146308973431,-0.06831679957471788
1772045856841380600,4.609380615234375,-0.29520927325487134,0.0686072338886559,0.07891910420502536
1772045856851366400,4.619366455078125,-0.3539081304609775,0.06655687723010778,0.1933184496520087
1772045856861351400,4.629351318359375,-0.32793314672708507,0.10716872747316956,0.21627198493918404
1772045856871337700,4.639337646484375,-0.21068740800619123,0.1334143448419869,0.2160940528227016
1772045856881323500,4.649323486328125,-0.06309679990410805,0.11551482327505945,0.1398763804629445
1772045856891308500,4.65930859375,0.12708850282132625,0.09665127898156642,0.03425249867844395
1772045856901294600,4.669294677734375,0.29030338103473186,0.08854118389263749,-0.0184577673710417
1772045856911279600,4.679279541015625,0.3954705594271421,-0.07113529106155038,0.073169189775642
1772045856921265700,4.689265625,0.5241407784819603,0.06637713674902916,0.01731326437788084
1772045856931250700,4.699250732421875,0.5301128386288881,0.06431216704323887,-0.14708393722157925
1772045856941236500,4.709236572265625,0.48286534976363177,0.10227934799641371,-0.1539650567711331
1772045856951221800,4.7192216796875,0.4597475090265274,0.09409574927985667,-0.17077822613976895
1772045856961207600,4.72920751953125,0.37604105181396,0.05182707174047827,-0.20329196399264035
1772045856971192600,4.739192626953125,0.31737960400879384,0.04281052933111787,-0.2010400568800047
1772045856981178600,4.7491787109375,0.23987375500202177,-0.0011073767200112342,-0.17310674215257166
1772045856991164700,4.75916455078125,0.21586861003637312,0.027609745328873395,-0.15952501071952283
1772045857001149700,4.769149658203125,0.172921448713541,0.024764000508934257,-0.10409492778470739
1772045857011135500,4.779135498046875,0.12883446970582008,0.05488353670164942,-0.03814901292663999
1772045857021120500,4.78912060546875,0.1151782847970724,0.06846972511410712,-0.010587463254202156
1772045857031106600,4.7991064453125,0.11757190193533897,0.08086845730766654,0.015610597778996451
1772045857041091600,4.809091552734375,0.10799684886038302,0.0668209349937737,0.06001393099320121
1772045857051077600,4.81907763671875,0.06446575016975402,0.013868658615648746,0.06784722756789997
1772045857061063400,4.8290634765625,0.0034328970581293103,0.007492986103892326,0.04930182757917791
1772045857071048400,4.83904833984375,-0.03652677288651466,0.012872487185150385,0.0524311203145422
1772045857081034800,4.84903466796875,-0.08593523917794227,-0.019964637403190134,0.036003808458335694
1772045857091019500,4.85901953125,-0.12773907568454743,-0.013814371145144104,0.005166534184012562
1772045857101005600,4.869005615234375,-0.12779343622028827,-0.003251256880909204,-0.028607524194568395
1772045857110990600,4.878990478515625,-0.10104688359200954,-0.0004771890576928854,-0.03513581171846017
1772045857120976600,4.8889765625,-0.06615852556228638,-0.004723667521029711,-0.024558741994109002
1772045857130961700,4.898961669921875,-0.041458968591690064,-0.025934432527795433,0.02023841284327209
1772045857140947500,4.908947509765625,0.0018377368211746215,-0.034585648756101726,0.053888333385530854
1772045857150932500,4.918932373046875,0.03250000158846378,-0.040178500327095384,0.08828211283134296
1772045857160918500,4.92891845703125,0.045423196047544474,-0.01140643322058022,0.08423636283818632
1772045857170904600,4.938904541015625,0.07347440153360367,-0.01610175142996013,0.05876306328242644
1772045857180889600,4.9488896484375,0.061576458469033236,-0.03630275487229228,0.043707587768696245
1772045857190875600,4.958875732421875,0.042212417307496065,-0.035741540792956945,0.01835742140226066
1772045857200860400,4.9688603515625,0.03825812672376633,-0.005903671085834503,-0.02270721410959959
1772045857210846700,4.9788466796875,0.02428571547269821,-0.008396876141056418,-0.04240498073752969
1772045857220831700,4.988831787109375,0.004991232416033745,-0.018242270589992404,-0.00824108279114589
1772045857230817500,4.998817626953125,-0.031215806996822356,-0.03220218768566847,0.0494363954779692
1772045857240802600,5.008802490234375,-0.11503975310921669,0.021160496124252675,0.1011438776930794
1772045857250788600,5.01878857421875,-0.20165362220108507,0.06181691616140306,0.10112992223296313
1772045857260773600,5.028773681640625,-0.2436941900730133,0.043656551701202986,0.09002093758899718
1772045857270759700,5.038759765625,-0.25602643290162086,0.006593626111373305,0.06553779984805733
1772045857280745500,5.048745361328125,-0.13907821582257746,0.04872939798608422,-0.022578089570906013
1772045857290730500,5.05873046875,-0.02774433149397373,0.026557825123146174,-0.05726654111435637
1772045857300716500,5.068716552734375,0.07659925555586815,0.037686610446125264,-0.023895967236440628
1772045857310701600,5.07870166015625,0.12304828751981257,0.05076674903258681,0.03251298893420026
1772045857320687600,5.0886875,0.12806056272387503,0.02540690152235329,0.0968921020001173
1772045857330672400,5.09867236328125,0.09070318423211574,0.0743994804892689,0.09809459139136598
1772045857340658700,5.10865869140625,0.018044190734624863,0.09019881490655243,0.002012919858144596
1772045857350643700,5.118643798828125,-0.02112812822461128,0.09043832275085151,-0.04220821605641394
1772045857360629500,5.12862939453125,-0.0565454785645008,0.06730280022658407,-0.002111302198702469
1772045857370615600,5.138615478515625,-0.05108429054915905,-0.03386164533048868,0.11423287543943152
1772045857380600300,5.148600341796875,0.057769467401504515,-0.7876995796497911,0.7397783562414347
1772045857390586400,5.15858642578125,0.31601474539637564,-0.3438024045754224,0.8612146785199641
1772045857400571400,5.1685712890625,0.4183797258496284,0.43577151709012685,0.3437072736378759
1772045857410557200,5.17855712890625,0.35981413963437076,0.7036867599017917,-0.1424317183684092
1772045857420542200,5.188542236328125,0.24931086091101168,0.8038989462353289,-0.41720381393805145
1772045857430528500,5.198528564453125,0.08982757044136523,0.775035474518314,-0.5701268325766549
1772045857440513300,5.20851318359375,-0.036516251492500304,0.48420222439058125,-0.5570869529353455
1772045857450499300,5.218499267578125,-0.06488485236465931,0.03520933361239731,-0.3355697060201317
1772045857460484400,5.228484375,0.016738368833065034,-0.16235774992741644,-0.1330904831824824
1772045857470470100,5.23847021484375,0.0605669891655445,-0.20809709925204514,-0.016089074611477554
1772045857480456400,5.24845654296875,0.03336100233197212,-0.1802265840951353,0.08594316675607115
1772045857490441200,5.258441162109375,0.011036942321062088,-0.14572963653579354,0.14250424474850296
1772045857500427300,5.26842724609375,-0.011824293306469917,-0.14989435499981044,0.13973105370812117
1772045857510412300,5.278412353515625,0.005966214928030967,-0.17477562521286308,0.10026806297292933
1772045857520398300,5.2883984375,0.08436930503547191,-0.1733919157695025,0.028889921332523227
1772045857530383400,5.29838330078125,0.15705051036477088,-0.18551796850152313,0.02407758914735168
1772045857540369200,5.308369140625,0.2423474516391754,-0.19236615389585493,-0.013477394275739789
1772045857550354200,5.318354248046875,0.30631460463702676,-0.23485278503485021,-0.028425043767131862
1772045857560340500,5.328340576171875,0.29485739107728004,-0.27812267550602554,0.015350056279823183
1772045857570325200,5.3383251953125,0.1428536427080631,-0.2725085619512945,0.13447795548550784
1772045857580311300,5.348311279296875,0.022851298755407333,-0.19950996123589573,0.26500183958299456
1772045857590296300,5.35829638671875,-0.16639000111818314,-0.39630043438002466,0.22133023644313216
1772045857600282000,5.3682822265625,-0.3997422453969717,-0.35121523811519145,0.2359024402182549
1772045857610267400,5.378267333984375,-0.49315819571912284,-0.31898462805263694,0.34680217091329396
1772045857620253400,5.38825341796875,-0.4729541966021061,-0.4850033847056329,0.6036686348356306
1772045857630238200,5.39823828125,-0.3048959700107574,0.031163784548640248,0.38111240026149895
1772045857640224300,5.408224365234375,-0.2658674434363842,0.360933645183593,0.004293824736401439
1772045857650210300,5.418210205078125,-0.30220424670875073,0.08311616316922009,0.004404116710461676
1772045857660195300,5.4281953125,-0.15803952140212058,-0.10072386218272149,0.07355986959366127
1772045857670181400,5.438181396484375,0.056307578155398365,-0.10617409041263162,0.025454247795417904
1772045857680166100,5.448166259765625,0.19205927990376948,-0.11430369391962886,-0.018484244386013596
1772045857690152400,5.45815234375,0.3250520383328199,-0.068372986741364,-0.01120647193538025
1772045857700137500,5.468137451171875,0.36368835071921346,0.02423946517817676,0.05824303973000496
1772045857710123300,5.478123291015625,0.25571780534386634,0.1070480967681855,0.16913946422310544
1772045857720108300,5.4881083984375,0.06698503951430321,0.15412804704681038,0.21833041530633343
1772045857730094000,5.498093994140625,-0.12907879985570908,0.1694438357308507,0.15454873841060324
1772045857740080400,5.508080322265625,-0.1904986064583063,0.16142485299147666,0.007041223748400807
1772045857750065400,5.5180654296875,-0.14501286656856535,0.11703626068867742,-0.12352061773929744
1772045857760051200,5.52805126953125,-0.045270051312446595,0.08340623215697705,-0.1873009977270849
1772045857770036200,5.5380361328125,0.10214520022273063,0.10346526984535157,-0.2024972516846843
1772045857780022300,5.548022216796875,0.2263186923801899,0.12718655636832119,-0.1948087064760737
1772045857790007300,5.55800732421875,0.33630992992818354,0.14372662615031004,-0.13715316604413091
1772045857799993300,5.567993408203125,0.3711766606479883,0.16029014987312257,-0.03714161684922874
1772045857809978400,5.577978271484375,0.2574807233631611,0.1094616607159376,0.03622473946632817
1772045857819964400,5.58796435546875,0.08901683858036995,0.04467435044161975,0.05241020539067685
1772045857829949400,5.597949462890625,-0.06002046119868755,0.04153466417640447,0.044595640915911644
1772045857839935200,5.607935302734375,-0.171727855014801,0.037607407730072734,0.02333701817942783
1772045857849921300,5.61792138671875,-0.21004326488375663,0.01720679006241262,0.033324634110648184
1772045857859906300,5.62790625,-0.17381284459531307,-0.0037210663497447964,0.028985107068996874
1772045857869892400,5.637892333984375,-0.08570376850962638,-0.033992724364250895,0.006348473977576941
1772045857879877400,5.64787744140625,-0.011602759510278702,-0.036861630864068864,-0.008459109455998986
1772045857889863200,5.65786328125,0.06171791276633739,-0.02339088552482426,0.01424390340251848
1772045857899848200,5.66784814453125,0.1094359417527914,-0.0029818653549998995,0.07057882622256875
1772045857909834500,5.67783447265625,0.0738777216374874,0.020442410982772708,0.10743592704199253
1772045857919819300,5.6878193359375,0.001146247425675392,0.03322195918746292,0.12602080052457748
1772045857929805300,5.697805419921875,-0.08353051612377166,0.021568054011836646,0.09369668522598221
1772045857939791000,5.707791015625,-0.11435995415151119,0.017561375653743744,0.04118115629730746
1772045857949776400,5.7177763671875,-0.11346855826973914,-0.004026259841397405,0.006801843768265098
1772045857959762400,5.727762451171875,-0.05722410847842693,-0.011046659997478126,-0.07031750840526074
1772045857969748200,5.737748291015625,0.013123100945353508,0.010952478908002376,-0.08944790520770475
1772045857979733200,5.747733154296875,0.07234276715517043,0.03469451595805585,-0.07930854191402904
1772045857989719300,5.75771923828125,0.12849077083468435,0.08084281140975653,-0.042040284744137894
1772045857999704300,5.767704345703125,0.13688976586759088,0.1018844303946942,0.00931453897524625
1772045858009690400,5.7776904296875,0.1201104805022478,0.12367350674606858,0.030556429772637783
1772045858019676200,5.78767626953125,0.10492752441763878,0.14091419907808303,0.014630847760336473
1772045858029661200,5.7976611328125,0.1116752451121807,0.13352861887142062,0.0032531017781235274
1772045858039647200,5.807647216796875,0.10623626892864703,0.1063487893924117,0.005479710052721202
1772045858049632300,5.81763232421875,0.09414134198725223,0.0692026424985379,-0.009255666661169379
1772045858059618300,5.827618408203125,0.0857335791260004,0.04952157127708196,-0.03785886174049228
1772045858069603300,5.837603271484375,0.09028349751532078,0.06388992304317653,-0.05986078625810332
1772045858079589400,5.84758935546875,0.07153612694740295,0.07735730738155544,-0.07108808178580366
1772045858089574400,5.857574462890625,0.04446750275790691,0.0763788177382201,-0.03245408008750528
1772045858099560200,5.867560302734375,0.021010639324784277,0.07259849548190832,0.023715788363944737
1772045858109545200,5.877545166015625,-0.02787818700671196,0.07366415195204318,0.06993962413673288
1772045858119531500,5.887531494140625,-0.040758126845955846,0.07975077838934957,0.07727052414724603
1772045858129517300,5.897517333984375,-0.03874620250165462,0.06270465878136455,0.06602805844987743
1772045858139502300,5.90750244140625,-0.019826982498168944,0.0454402202475816,0.0690953461991623
1772045858149488000,5.917488037109375,-0.005693827727437019,0.020255363978073,0.05009951729550957
1772045858159473200,5.92747314453125,0.00395487510561943,-0.008527224522456526,0.03503413230911828
1772045858169459500,5.93745947265625,-0.003771335232257843,-0.031338045137003064,0.02285342678041197
1772045858179444200,5.9474443359375,0.021403438034653662,-0.018126242994889616,0.0311204111977946
1772045858189430300,5.95743017578125,0.06467442448437213,0.002458937459439039,0.08061310344026423
1772045858199415300,5.967415283203125,0.07315642162561416,-0.0006720540426671505,0.11212452324964105
1772045858209401300,5.9774013671875,0.06285071618855,-0.007651756862178444,0.09988068935684859
1772045858219387400,5.987387451171875,0.039703649356961246,-0.005474120562151074,0.08296019628937355
1772045858229372200,5.9973720703125,-0.002762450450658798,0.008314166293665767,0.0738280920757912
1772045858239358200,6.007358154296875,-0.013125439032912254,0.006197539465874433,0.07405410111770033
1772045858249343500,6.017343505859375,-0.003919803792238235,-0.010424290315434336,0.09133579218038357
1772045858259329300,6.027329345703125,0.00905658215880394,-0.014580898538231848,0.08338294261293486
1772045858269314300,6.037314208984375,0.023727497068047523,-0.012112097271904348,0.09611761049628258
1772045858279300000,6.047300048828125,0.0150666362285614,-0.0009255173470824956,0.0867124340955168
1772045858289285000,6.05728515625,0.01611760658621788,0.0070906158480793235,0.044593385026743634
1772045858299271400,6.067271484375,-0.007993921363353728,-0.004884118779748678,0.007830099970614537
1772045858309257200,6.07725732421875,-0.026386487144231793,-0.01209529226757586,-0.01943593735396862
1772045858319242200,6.0872421875,0.0006178396373987198,0.011243570809066294,-0.05476763697071001
1772045858329228300,6.097228271484375,0.035191140368580814,0.036266003058478234,-0.04250681997707579
1772045858339213300,6.10721337890625,0.06974807448685169,0.03488243974559009,-0.013702439769846387
1772045858349199400,6.117199462890625,0.10959610075056553,0.025042598254606127,0.018384231777372768
1772045858359184400,6.127184326171875,0.11673135945796966,0.04310366705879569,0.033548209166876036
1772045858369170200,6.137170166015625,0.10438742619156836,0.0689069474875927,0.037211544846859755
1772045858379155200,6.1471552734375,0.07343582308888436,0.13979162478893994,0.028929399392963386
1772045858389141000,6.15714111328125,0.024569208589196204,0.1543293417725712,0.04212241006963886
1772045858399126000,6.1671259765625,-0.005442483314871788,0.08608648421689867,0.0629928463392891
1772045858409112000,6.177112060546875,0.012062193715572357,-0.015247326557710767,0.09132275916887447
1772045858419098000,6.18709814453125,0.07370470315814018,-0.0837819336015731,0.08305392985427752
1772045858429083100,6.197083251953125,0.0766191293001175,0.005488660544157028,-0.00913559764518868
1772045858439069000,6.20706884765625,0.04626841470003128,0.009281038564443587,0.009271307188295759
1772045858449054000,6.217053955078125,0.04150865295231342,-0.005560191410407423,0.08560745026199147
1772045858459040300,6.227040283203125,0.031516835770010944,-0.00935761093199253,0.1370538703881204
1772045858469025000,6.23702490234375,-0.007672434324026108,-0.018630539255216717,0.13273240872612221
1772045858479011000,6.247010986328125,-0.03839724293351173,-0.016350319363549352,0.11329726595659739
1772045858488996000,6.25699609375,-0.07113631397485733,-0.011025324948504566,0.10446121294698678
1772045858498982000,6.26698193359375,-0.07315875971317291,-0.029697730584070086,0.09204331026207656
1772045858508968200,6.27696826171875,-0.005676876592636108,-0.03644749710522592,0.06385732681467197
1772045858518953000,6.286952880859375,0.06234685831964015,-0.04973229141831398,0.04160003472992684
1772045858528939000,6.29693896484375,0.10705343053042889,-0.05430127983428538,0.054011713170027356
1772045858538924000,6.306924072265625,0.13432196120619774,-0.04649192125760018,0.0739557142105652
1772045858548910000,6.31691015625,0.12695581635236738,-0.005608852857723832,0.10193656244073063
1772045858558895000,6.32689501953125,0.07149345684945584,0.0006625555619597435,0.13683765208786353
1772045858568881200,6.336881103515625,0.05183949283063411,0.02356565756984055,0.12866369798248634
1772045858578866000,6.346865966796875,0.04310147510170936,0.007155424712598324,0.10731166134150698
1772045858588852000,6.35685205078125,0.021343232280015945,-0.019444412921369076,0.08731281114146112
1772045858598838000,6.366838134765625,-0.0029898294657468793,-0.03275478006713092,0.05625596213259268
1772045858608823000,6.376822998046875,0.011530278795957565,-0.04648227664642036,0.06308904585591517
1772045858618809000,6.38680908203125,0.025008769050240517,-0.03763714528121054,0.05332548903811257
1772045858628793900,6.3967939453125,0.010506780967116356,-0.03505501983352005,0.04988810760111082
1772045858638780200,6.4067802734375,-0.008497194710373877,-0.035169001602008934,0.060764046107605094
1772045858648765200,6.41676513671875,-0.018411270481348038,-0.04074621721245348,0.06220347692673094
1772045858658751000,6.4267509765625,-0.01624561688005924,-0.034412264950573444,0.05041279819549527
1772045858668736000,6.436736083984375,0.005358896684646606,-0.03198350343368948,0.051860426020808516
1772045858678722000,6.44672216796875,0.027110125243663786,-0.012038739774748682,0.04304307771166786
1772045858688707000,6.45670703125,0.04409808492362499,0.008413242753967643,0.056451863730605685
1772045858698693000,6.466693115234375,0.018894085562229157,0.012799568079411983,0.06594595139068551
1772045858708679000,6.476678955078125,0.01223112054169178,0.025246011872217058,0.052734222313808275
1772045858718664000,6.486663818359375,0.02308276942372322,0.03342698024027049,-0.004638455189298838
1772045858728650000,6.49664990234375,0.054444122371077534,0.021306188205257058,-0.037165390450460835
1772045858738635000,6.506635009765625,0.06073065529465675,0.015461334634572266,-0.029933879710792095
1772045858748621000,6.51662109375,0.04654840068519115,0.022940146082639692,-0.0010287653757142833
1772045858758606000,6.526606201171875,0.03958206880390644,0.027997210276499387,0.007050072633492527
1772045858768592100,6.536592041015625,0.018543956950306893,0.00033515023849904537,0.011894552380952517
1772045858778577200,6.5465771484375,0.017581249397993087,-0.007514905674755573,0.024345341272023504
1772045858788563000,6.55656298828125,0.014813538250327109,0.01568418360501528,0.01882328192340792
1772045858798549000,6.566549072265625,0.022346271842718122,0.0299786664173007,0.015950463008519728
1772045858808534300,6.5765341796875,0.04916998136043548,0.006366247096285224,0.021016918368521147
1772045858818520000,6.58652001953125,0.06540507684648036,-0.0068085109710693354,0.030962983013223856
1772045858828505000,6.596505126953125,0.06504968753755093,-0.021517054476961492,0.037117345491074955
1772045858838491000,6.606490966796875,0.04288286391496658,-0.004100567186623811,0.0248769890468684
1772045858848476000,6.616475830078125,0.026805589339137077,-0.007211465748772025,0.014745825042668729
1772045858858462200,6.626462158203125,0.029357611909508703,-0.0015190262608230113,-0.0033240252895979207
1772045858868447000,6.636447021484375,0.04312894763052463,0.006302168884128332,-0.018333079262159296
1772045858878433000,6.64643310546875,0.06350128905177116,-0.012228563258424401,-0.02836601162285078
1772045858888419000,6.656419189453125,0.07709259203076362,-0.01610102077759802,-0.039294698663312005
1772045858898404000,6.666404052734375,0.07934241678416729,0.0026193887181580064,-0.03148444503748324
1772045858908390100,6.67639013671875,0.06650280895531177,0.012115019881352782,-0.004177854794336599
1772045858918375000,6.686375,0.04774491699337959,-0.006142886669188738,0.04552862461681943
1772045858928361000,6.69636083984375,0.05612871445715427,0.015419614384695886,0.0780674192791339
1772045858938346200,6.70634619140625,0.011740122154355048,0.030347426664456723,0.10607033777721225
1772045858948332000,6.71633203125,-0.03458674473464489,0.027694501002877948,0.11089938363516702
1772045858958317000,6.726317138671875,-0.079490300822258,0.02171228478811681,0.0816408116533421
1772045858968302800,6.736302734375,-0.12076046884357929,-0.010441752906888722,0.029359931730758397
1772045858978287900,6.746287841796875,-0.11114917541146278,-0.02306852170266211,-0.027228091350814793
1772045858988274200,6.756274169921875,-0.059009822851419445,-0.04560980466082692,-0.056680347857391455
1772045858998260000,6.766260009765625,-0.011864625316858292,-0.066543433226645,-0.023847228157310746
1772045859008245000,6.776244873046875,0.028548049092292783,-0.04062514811605215,0.026366891961195505
1772045859018231000,6.78623095703125,0.06480769547522068,-0.009972601025179028,0.0476666641253978
1772045859028216000,6.796216064453125,0.0722311234742403,0.0171215959969908,0.06505019442762713
1772045859038202000,6.8062021484375,0.07043313414156437,0.03560140166990459,0.07671717371395789
1772045859048187100,6.816187255859375,0.025870938837528227,0.047938174543157214,0.08462675039526074
1772045859058173000,6.8261728515625,-0.0311310513228178,0.04789747720658779,0.09830639837798662
1772045859068158200,6.836158203125,-0.05557166509628295,0.03345569487810135,0.07111232574449386
1772045859078144000,6.84614404296875,-0.027418752801418304,0.019023484095558523,0.03940248358645476
1772045859088130000,6.856130126953125,0.020179449197649954,-0.011064853241294621,0.009808607244148152
1772045859098115000,6.866114990234375,0.066754153367877,-0.03211173292323947,0.0004139505249302601
1772045859108101000,6.87610107421875,0.10185118571221828,-0.02007438138797879,0.009108624585761572
1772045859118086100,6.886086181640625,0.10859013857841492,0.025671616873145103,0.028591609672806224
1772045859128072000,6.896072021484375,0.08771627737581729,0.05293408313430845,0.07867730393894017
1772045859138057000,6.906056884765625,0.05581891785562038,0.06894099588766693,0.08561278402423486
1772045859148043300,6.916043212890625,0.036680502143502235,0.06556340921334922,0.07191622143932618
1772045859158028000,6.926028076171875,-0.015412673187255858,0.045600671506300566,0.03761990645204205
1772045859168014000,6.93601416015625,-0.05152268196642398,0.05509279553815722,0.018981456743361193
1772045859177999000,6.9459990234375,-0.051152679610252376,0.048273470912128684,0.006679054213879862
1772045859187985000,6.95598486328125,-0.054120881766080854,0.048477030660212035,-0.01989600859679049
1772045859197971200,6.96597119140625,-0.03151566672623157,0.055998512206226585,-0.02577799985706806
1772045859207956000,6.9759560546875,-0.02312836213111877,0.074138199204579,-0.014845731478388188
1772045859217942000,6.98594189453125,-0.045594460961222646,0.08578443253040313,-0.008210715052345767
1772045859227927000,6.995927001953125,-0.07336451141834259,0.09728373166620731,0.0011776997265755197
1772045859237913000,7.0059130859375,-0.08552373576760292,0.11045746682025491,-0.007552198627975303
1772045859247898000,7.015898193359375,-0.06025660804212093,0.10556165760271251,-0.019527828304946888
1772045859257884000,7.0258837890625,-0.008150573229789734,0.10186287615001201,-0.03946042431876994
1772045859267869000,7.035868896484375,0.06260287890732288,0.09765336869619787,-0.03272191441056784
1772045859277855200,7.045855224609375,0.15509528464376926,0.1033695543859154,-0.05011537245176732
1772045859287841000,7.055841064453125,0.20238076743185518,0.08370989127866924,-0.04722583415587432
1772045859297826000,7.065825927734375,0.21124504188895224,0.06990501861423254,-0.023757609078520908
1772045859307812000,7.07581201171875,0.14510112937390804,0.06337620136737823,-0.020147464890498668
1772045859317796900,7.085796875,0.08827274221479892,0.06520107870697975,-0.03424310979559086
1772045859327783200,7.095783203125,0.011678747355937958,0.07739398613013326,-0.04747153427894227
1772045859337768200,7.105768310546875,0.01047521678507328,0.1801291881352663,-0.026460118636023253
1772045859347754000,7.11575390625,0.016557167047262192,0.26349881460890173,0.014952928454708306
1772045859357739000,7.125739013671875,0.030117490366101264,0.27403438327908514,0.04618779634502716
1772045859367725000,7.13572509765625,0.1450549521446228,0.5146368909470737,0.28692396772950884
1772045859377711000,7.145711181640625,0.06111760878562927,-0.6199030727345496,1.2894358532957733
1772045859387696400,7.1556962890625,0.16741700607836246,-0.5508863812621683,1.494274681404233
1772045859397682400,7.165682373046875,0.13357611127495764,0.2482010730382055,0.8258299152754247
1772045859407667700,7.175667724609375,-0.1677764870405197,0.35637590881399805,0.3351297071676701
1772045859417653500,7.185653564453125,-0.4160328704625368,0.2745546808261424,0.017698628699965774
1772045859427638500,7.195638427734375,-0.6753378866434097,0.07141805352568625,-0.15512759774448348
1772045859437624600,7.20562451171875,-0.735791478562355,-0.10192015929520129,-0.28486491630785166
1772045859447609600,7.215609619140625,-0.5606587835401297,-0.1663957732718438,-0.4517080680210143
1772045859457595600,7.225595703125,-0.2080009454011917,-0.12475662580765783,-0.6110647364363074
1772045859467580700,7.23558056640625,0.2103705971419811,-0.06906045754887163,-0.6853712048798799
1772045859477566500,7.24556640625,0.4922942723661661,-0.17489406396076082,-0.6899276991404593
1772045859487552800,7.255552734375,0.4376829767346382,-0.16612229009270668,-0.5054219033561647
1772045859497537500,7.26553759765625,0.1491676481604576,-0.13827858987748623,-0.2632334964699112
1772045859507523600,7.275523681640625,-0.15745090785920618,-0.0944854792498052,-0.08954807764654979
1772045859517508600,7.285508544921875,-0.1868774933516979,0.05121507732197642,0.013165149988792835
1772045859527494400,7.295494384765625,-0.008143558967113494,0.21147731627486646,0.1614370366196148
1772045859537479700,7.305479736328125,0.08406827626228332,0.2153748351700604,0.31508652463555337
1772045859547465500,7.315465576171875,0.06074760642945766,0.14270517414808273,0.3672590122802183
1772045859557450500,7.325450439453125,-0.014809446597099303,0.05718414179421961,0.3287439516533166
1772045859567436500,7.3354365234375,0.04929039286971092,0.025911709239333867,0.2698395254051313
1772045859577421600,7.345421630859375,0.14550854113101958,0.05529635528624057,0.16425927269980312
1772045859587407600,7.35540771484375,0.198638073772192,0.03955035849139094,0.07070961299538613
1772045859597393400,7.365393310546875,0.13587094421386717,-0.015883651699870823,0.028626703819073736
1772045859607378400,7.37537841796875,0.09306932884156703,-0.052362639921903605,0.10578900008518248
1772045859617364700,7.38536474609375,0.1030225675791502,-0.11031345523968339,0.1653609137987718
1772045859627349500,7.395349609375,0.039352351701259614,-0.10948270350396633,0.15162084999885408
1772045859637335600,7.40533544921875,0.009577391162514687,-0.053001668477803465,0.12659246293269097
1772045859647320600,7.415320556640625,-0.040166590693593025,0.5722020679481327,0.49586193825248626
1772045859657306400,7.425306396484375,-0.08835106814801692,0.8988223785109818,0.5890210642693564
1772045859667291600,7.435291748046875,0.017893968608975408,0.9613184360429644,0.4529691009327769
1772045859677277400,7.44527734375,0.061540802633762354,0.900128346543014,0.44058688148260117
1772045859687263500,7.455263427734375,0.08646715409755706,0.6655142656348645,0.5018699099630117
1772045859697248500,7.46524853515625,0.1348369249910116,0.4782505494445562,0.5042375158771872
1772045859707234600,7.475234619140625,0.21714520584344862,0.3740599609993398,0.41366657972261306
1772045859717219600,7.485219482421875,0.2387579027146101,0.2546522219389677,0.20020919554643332
1772045859727205600,7.49520556640625,0.26268822887837884,0.2283575047314167,-0.18126228381842374
1772045859737190400,7.5051904296875,0.3148381028324365,-0.22671455982998012,-0.4445710557479411
1772045859747176700,7.5151767578125,0.41177345945239063,-0.7582903106182813,-0.6108361153122037
1772045859757161700,7.52516162109375,0.4831429976612329,-1.0658933476306498,-0.7722861758101731
1772045859767147500,7.5351474609375,0.4884153851062059,-1.3129017768181859,-1.055088022108376
1772045859777133600,7.545133544921875,0.43261751003861426,-1.4546721543341874,-1.3554390421658753
1772045859787118300,7.555118408203125,0.2321305935293436,-0.8786105614136904,-0.988829470237717
1772045859797104600,7.565104736328125,0.060230304557085036,-0.1860882426701486,-0.3244998112775385
1772045859807089700,7.575089599609375,-0.05940203703939914,0.2886759990286082,0.27508959142044187
1772045859817075500,7.585075439453125,-0.2182049440294504,0.5755934639520943,0.6520934238519519
1772045859827060500,7.595060546875,-0.5040262112140655,0.43281317874118685,0.8036646260228008
1772045859837046500,7.605046630859375,-0.8245306692451239,-0.2155290028184652,0.9504976206906139
1772045859847031600,7.615031494140625,-0.8923293632298708,-0.15361973219849168,0.5590219761185348
1772045859857017600,7.625017578125,-0.8373445581108331,-0.12595584552958608,0.08257255781181157
1772045859867002400,7.63500244140625,-0.5843605616450309,-0.11214797719046472,-0.2151432914365083
1772045859876988700,7.64498876953125,-0.31196634678840635,-0.1556200391702354,-0.2823403662662953
1772045859886974500,7.654974365234375,-0.13140987315177916,-0.2066358675930649,-0.18000658466890454
1772045859896959500,7.66495947265625,0.07309329326152801,-0.14488069155626,0.06579867927394807
1772045859906945500,7.674945556640625,0.2688216170668602,-0.004705401211977005,0.27362193002067503
1772045859916930600,7.6849306640625,0.315516148224473,0.07909457950294017,0.32007593042068183
1772045859926916600,7.69491650390625,0.26801322329342364,0.09400200658179819,0.3198091692432761
1772045859936901600,7.704901611328125,0.19741876111030576,0.10466361278444528,0.2220164651416242
1772045859946887400,7.714887451171875,0.09768296011686324,0.10803045886904,0.11651347892358899
1772045859956872400,7.72487255859375,0.06094400578439235,0.10067585832253098,0.014830781646072863
1772045859966858800,7.734858642578125,0.12495908957719802,0.1186063595496118,-0.10376827137991786
1772045859976844500,7.744844482421875,0.26152970649302004,0.06580803162418306,-0.1635024629831314
1772045859986829600,7.75482958984375,0.36120413268804547,0.027072861973196267,-0.13219079439640044
1772045859996815400,7.7648154296875,0.3520323997169733,0.020457316290959714,-0.08367854629233479
1772045860006800600,7.774800537109375,0.3467477373123169,0.01615954603180289,-0.04654489355385303
1772045860016786700,7.78478662109375,0.314039061409235,0.06656871379837394,0.04343932875394821
1772045860026771500,7.794771484375,0.23254969572424888,0.16933898711688816,-0.0031540801167488095
1772045860036757500,7.804757568359375,0.16322072343230246,0.21433409394547343,-0.15675532681047916
1772045860046742500,7.814742431640625,0.12829086434841155,0.20534948104433715,-0.22881343180537222
1772045860056728600,7.824728515625,0.1508843889504671,0.06867576908022165,-0.10297259095758199
1772045860066713600,7.834713623046875,0.19478782808482645,-0.1724346150446683,0.10780687924623489
1772045860076699400,7.844699462890625,0.16203122138679027,-0.5062007057089358,0.3490985382221639
1772045860086685700,7.854685791015625,0.15878654037714005,-0.33385756834000346,0.43350525265857576
1772045860096670700,7.864670654296875,0.07292904261052609,0.022169819297268984,0.2787063206128776
1772045860106656500,7.874656494140625,-0.17671558029949663,0.17970599428713321,0.0860164877206087
1772045860116641500,7.8846416015625,-0.42751054228842256,0.20015425048880278,0.04664923071116209
1772045860126627300,7.89462744140625,-0.5290677134901285,0.01855111734345555,0.054899757184088224
1772045860136612600,7.904612548828125,-0.461094831982255,-0.3842907745692879,0.3146364427804947
1772045860146598700,7.9145986328125,-0.28340193108320233,-0.11790522554293274,0.20316709550395606
1772045860156583400,7.92458349609375,-0.05291384406387806,0.02849003529474139,0.009714169284701347
1772045860166569500,7.934569580078125,0.197200149923563,0.0033322862278670072,-0.04508972630947828
1772045860176555500,7.944555419921875,0.3301373787730932,0.02393945931829512,-0.09019976475462317
1772045860186540500,7.95454052734375,0.2973123830139637,-0.2733173210509121,0.08981529548168182
1772045860196526600,7.964526611328125,0.3220172006815672,-0.1579234207417816,0.12405220386534929
1772045860206511600,7.97451171875,0.3801426419138908,0.08425612698458135,0.06879369637146591
1772045860216497700,7.98449755859375,0.36999417286515235,0.25868045454174277,-0.03438099302947521
1772045860226482700,7.994482666015625,0.2462175710707903,0.30580870094150303,-0.15484364797025918
1772045860236468500,8.004468505859375,0.17086919235885142,0.10048881131783127,-0.07221008068621158
1772045860246453500,8.01445361328125,0.17458616705536842,-0.011606047445908188,-0.0554423396281898
1772045860256439600,8.024439453125,0.18025486034154892,-0.2820582613892853,0.012295564080029726
1772045860266424600,8.034424560546874,0.18458850563168525,0.09993972606770693,-0.21555676760822534
1772045860276410600,8.04441064453125,0.11437924337387084,0.0334587636180222,-0.26663667424321175
1772045860286396400,8.054396484375,0.05439911418557167,0.01514554668366909,-0.07012041493058205
1772045860296381400,8.06438134765625,0.07482698518633842,0.001342865976318717,-0.04248933455273509
1772045860306367700,8.07436767578125,-0.097205990254879,-0.0920098829165101,-0.042889585916697975
1772045860316352500,8.0843525390625,-0.19747019903659818,-0.2756542395658791,0.2644824188187718
1772045860326338600,8.094338623046875,-0.06756780783832073,0.10296703799962997,0.41035438643470407
1772045860336323600,8.104323486328125,-0.04238368222117424,0.28911745918579396,0.24390198760479687
1772045860346309600,8.1143095703125,-0.0987479589998722,0.10302563631907105,0.23981486442163585
1772045860356294700,8.124294677734374,-0.09678513449430465,-0.11568988758102058,0.395153748562932
1772045860366280400,8.134280517578125,-0.055664604076743125,-0.09554711713194847,0.28116686550751324
1772045860376265500,8.144265380859375,0.021827216404676435,-0.11260448878630995,0.0646789545290172
1772045860386252000,8.154251953125,0.040756957802176474,-0.1456539409510791,-0.06606207945048809
1772045860396237800,8.16423779296875,0.005409750089049339,-0.12232421102896332,-0.12639584438204765
1772045860406222800,8.174222900390625,-0.010572831940650939,-0.05208031584918499,-0.12422931399792432
1772045860416209000,8.184208984375,0.006956979531049728,0.010485299787670373,-0.07510273338779806
1772045860426194000,8.19419384765625,0.041596915757656096,0.03033295974768698,-0.018298165495693682
1772045860436180000,8.204179931640626,0.024035540103912352,0.051461161037534474,0.041338410951942205
1772045860446164700,8.214164794921874,0.04671089777052402,0.07957330293059349,0.09033478931114076
1772045860456151000,8.224151123046875,0.1241623862415552,0.08428966392800212,0.16305603438988328
1772045860466136000,8.234135986328125,0.16744447860717773,0.06828691589310765,0.15656696463152767
1772045860476121900,8.244121826171876,0.1519517259210348,0.025185221595689655,0.09783537419959902
1772045860486108000,8.25410791015625,0.1048696567505598,0.021579086862504482,0.04055690518543124
1772045860496093000,8.264093017578125,0.016072598400712013,0.019908377171307803,0.002866056955605745
1772045860506079000,8.274078857421875,-0.03428337787389755,0.05851838607266545,-0.03167173407077789
1772045860516064000,8.28406396484375,-0.07567103479504585,0.04196173048205674,-0.017917641745507716
1772045860526049800,8.2940498046875,-0.030676293292641637,0.03482135720811784,-0.03828559925258159
1772045860536034800,8.304034912109374,0.021402853512763977,-0.002731982247158885,0.015987550465762616
1772045860546020900,8.314020751953125,0.0016325696378946303,-0.025084391569718718,0.05564020028784871
1772045860556006000,8.324005859375,0.028758476972579956,0.003490983920916915,0.04659267821833491
1772045860565992000,8.333991943359376,0.11633797622621059,0.023188275624811648,0.09851941094100475
1772045860575977000,8.34397705078125,0.045647652453184126,-0.014830050993710755,0.11729615373387932
1772045860585963000,8.353962890625,-0.0944651671141386,0.02335354918912053,0.08253799795508385
1772045860595949000,8.363948974609375,-0.08794424091279505,0.018113675774261356,0.10888532213270663
1772045860605933800,8.373933837890625,0.07100128941833972,-0.03349887643270194,0.11783785939514636
1772045860615919900,8.383919921875,0.2211409974813461,-0.11805153867844491,0.1273420391909778
1772045860625905200,8.3939052734375,0.13650339689850807,-0.14193977926615625,0.09744052966311574
1772045860635891000,8.403890869140625,0.13144202185571194,-0.10590046110302209,0.07841331924051045
1772045860645876000,8.4138759765625,0.0818950238764286,-0.09227434253897518,0.10097104187682271
1772045860655861800,8.42386181640625,0.0735118109345436,-0.02862261216584593,0.09028189008012413
1772045860665846800,8.4338466796875,0.1035275944918394,-0.025359774444997308,0.11693462694510817
1772045860675833000,8.4438330078125,-0.03520283080637455,-0.0028019056782126427,0.13229045537859202
1772045860685817900,8.45381787109375,-0.15840309401750563,0.00809168264940381,0.13354907713755965
1772045860695804000,8.463803955078125,-0.1717068122267723,-0.09252484670132398,0.0798218708641827
1772045860705789700,8.473789794921874,-0.1809656389594078,-0.17403138271681964,-0.03874035728275776
1772045860715775000,8.48377490234375,-0.08411445349156856,-0.08450469491817057,-0.10067293571308254
1772045860725761000,8.493760986328125,0.06430091499686241,-0.010189093320071696,0.014664192907512186
1772045860735745800,8.503745849609375,0.12878595438897608,0.03560034222397953,0.09451543599665164
1772045860745731800,8.51373193359375,0.1445540168851614,0.10881324327718465,0.14068550488874315
1772045860755717000,8.523717041015624,0.14015841227471829,0.06311791575737297,0.1668292693182826
1772045860765703000,8.533702880859375,0.014013327783346175,-0.014852445488609372,0.10487316388189792
1772045860775688000,8.54368798828125,-0.05677051949203014,-0.06158719905875623,-0.012531857053935527
1772045860785674000,8.553674072265625,-0.130436644205451,-0.10808178719747812,-0.03548091709539294
1772045860795658800,8.56365869140625,-0.09807868143618106,-0.12283194135539233,-0.07540916898846625
1772045860805645000,8.57364501953125,-0.08546645262241363,-0.23052319486532358,0.1458244752123952
1772045860815630800,8.583630859375,0.16093290475606917,0.16441698401216417,0.15583558161705732
1772045860825616000,8.593615966796875,0.29407354722321033,0.23718239702619612,-0.051896045323461294
1772045860835602000,8.603601806640626,0.3872270472168922,-0.01977510618045926,0.14987404286414385
1772045860845587000,8.6135869140625,0.24094635266959666,0.035768209604173894,0.13983356423452495
1772045860855573000,8.623572998046875,0.14544365920126437,0.0033333091411739584,-0.011012100140750408
1772045860865558000,8.63355810546875,0.06816694277524948,-0.033045963299740105,-0.06965761972442269
1772045860875543800,8.643543701171875,-0.030471710631251335,-0.09651124945636838,-0.06369681162387132
1772045860885528800,8.65352880859375,-0.1073924532264471,-0.02455344476448372,-0.04004208753108978
1772045860895515000,8.663514892578124,-0.007799860095977783,-0.013077051580231636,0.04389774004593491
1772045860905500000,8.6735,0.05791968952715396,0.0016036175380460917,0.08960296790525317
1772045860915486000,8.68348583984375,0.034540567505359644,-0.028609953613672405,0.08673325768783688
1772045860925472000,8.693471923828126,-0.061308747443556785,-0.04547560208821669,0.08112623146101831
1772045860935457000,8.70345703125,-0.11602174988389015,-0.0564080611214973,0.05032558113634586
1772045860945442800,8.71344287109375,-0.15322189198732375,-0.07818846097607166,0.06138020524457097
1772045860955427800,8.723427734375,-0.07827215720415115,-0.09047036185692996,0.03322685455828905
1772045860965414000,8.733413818359375,-0.09400631743073463,-0.050810807370021936,0.06276230725273489
1772045860975399000,8.74339892578125,-0.008292027527093886,0.01076543190330267,0.08899024283438921
1772045860985385000,8.753385009765625,0.12641688717007638,0.007394530698098242,0.13514423737451434
1772045860995370000,8.763369873046875,0.033250527694821355,0.018615460417093707,0.20188640804365277
1772045861005355800,8.773355712890625,-0.09322013548910617,0.016660262095555663,0.13094400920569896
1772045861015342000,8.783342041015626,-0.21179273889958858,-0.02968566568694077,0.05611702401936054
1772045861025326800,8.793326904296874,-0.2758393868744373,-0.057698676320770755,-0.02516644382998347
1772045861035313000,8.80331298828125,-0.30682898389995095,-0.06466601284905336,-0.06016103871315717
1772045861045298000,8.8132978515625,-0.24097440972030162,-0.03291527699162252,-0.05674143952801823
1772045861055284000,8.823283935546876,-0.08635901754796504,0.020907142417691645,-0.004743687395751476
1772045861065269000,8.83326904296875,0.08132511503398418,0.04634090454750694,0.08624693547561764
1772045861075255000,8.843255126953125,0.19253975689709185,0.022711935950489714,0.10877338619083166
1772045861085239800,8.85323974609375,0.15457681372761725,0.014579601630289107,0.04930997435301542
1772045861095225900,8.863225830078125,0.10120645806789398,0.038870459068985654,-0.0026506606392562387
1772045861105211100,8.873211181640626,0.06716974843144416,0.06053051134636625,-0.0016918986096978188
1772045861115197000,8.883197021484374,0.0789408502459526,0.07912985174572094,0.05183540117740631
1772045861125183000,8.893182861328125,0.10660101058781146,0.06620728747430257,0.10853913904353976
1772045861135167700,8.903167724609375,0.11540683285593986,0.034371339285140856,0.09651099372804164
1772045861145154000,8.913154052734376,0.07876841628849506,-0.004898174704564735,0.036041473587602374
1772045861155139000,8.92313916015625,0.07800210809111595,-0.0543208704507444,-0.037598493771255015
1772045861165124900,8.933124755859374,0.0766968707114458,-0.08944281804063357,-0.048675037450343364
1772045861175110000,8.94310986328125,0.014764438411593436,-0.0686203171325149,-0.012018208443373441
1772045861185096000,8.953095947265625,-0.04607259986698627,0.033706861194153316,0.01901975776851177
1772045861195081000,8.9630810546875,-0.01676759492754936,0.07607530474700033,0.09219459183365106
1772045861205067000,8.97306689453125,0.02465337974131107,0.05235613254930358,0.13033435287475587
1772045861215052800,8.983052734375,0.030883798563480374,0.03161780735987704,0.10774740414395928
1772045861225037800,8.993037841796875,0.038084523722529406,0.022480901390302458,0.06653714961633085
1772045861235024000,9.00302392578125,0.043700610038638114,0.036365552159526845,0.0597284925147891
1772045861245009000,9.0130087890625,0.04666472054123878,0.03159859805261949,0.06710252841413021
1772045861254995000,9.022994873046875,-0.010989596047997475,0.0165678437049035,0.04882672088071704
1772045861264979700,9.032979736328125,-0.12356032869517802,0.007631049717578571,-0.020954671353846786
1772045861274966000,9.042966064453125,-0.23343057021200656,0.02475227353852242,-0.07811725890338421
1772045861284951000,9.052950927734376,-0.23512860630154608,0.06105545766907744,-0.08524827982708812
1772045861294936800,9.062936767578124,-0.1530453663766384,0.04017523065777495,-0.03979395798891783
1772045861304921900,9.072921875,0.02343406707942486,0.014266681489907205,0.015082272189110516
1772045861314908000,9.082907958984375,0.19214169749021529,-0.029010711867711505,0.05553060243353247
1772045861324894000,9.09289404296875,0.2875514519780874,-0.016115373529936187,0.07864756638780236
1772045861334879000,9.10287890625,0.2537456284880638,0.0026989202277734876,0.1163002745643258
1772045861344864800,9.11286474609375,0.07349135266840458,0.028967295134381853,0.07063128706216812
1772045861354849800,9.122849853515625,-0.12968436453342436,0.056500205517513676,0.005990618716925382
1772045861364836000,9.132836181640625,-0.22640637066364286,0.05207487705566454,-0.04985197227522731
1772045861374820900,9.14282080078125,-0.18701836312711237,0.04292488555894233,-0.03574818972945213
1772045861384806400,9.152806396484374,-0.05668342573046684,0.025182031841471324,0.00561579405516386
1772045861394791400,9.16279150390625,0.08220657404363155,-0.00024377302746288478,0.021200462808459997
1772045861404777500,9.172777587890625,0.1240057343751192,-0.004918479990365449,0.01042816277295351
1772045861414763500,9.182763427734375,0.09506605561673641,0.017685330826975404,0.003267331232875585
1772045861424748500,9.19274853515625,0.053822191080451005,0.03783020190158859,0.030127427238225934
1772045861434734300,9.202734375,0.11365911240577697,0.04709343081470579,0.06631488516777753
1772045861444719400,9.21271923828125,0.1778156504958868,0.06681606702241115,0.10865589729100465
1772045861454705400,9.222705322265625,0.18212533038854598,0.08160488182343542,0.13676394753083587
1772045861464690400,9.2326904296875,0.13640695078670978,0.04456937396349385,0.11647943052351474
1772045861474676500,9.242676513671874,0.04385024764239788,0.020181175363855434,0.054361704784631724
1772045861484661200,9.2526611328125,-0.041114685198664666,0.018731844205223024,0.0005944587618112564
1772045861494647600,9.2626474609375,-0.09384382034540176,0.005770646690158173,-0.006785568486899137
1772045861504633300,9.27263330078125,-0.11215221497416496,0.025760002976073882,-0.011337971094250679
1772045861514618400,9.282618408203126,-0.027374329137802123,0.014530111349199432,-0.0440049998126924
1772045861524604400,9.2926044921875,0.04594868122637272,-0.036918201623205096,-0.04701104976087808
1772045861534589400,9.30258935546875,0.005819499933719634,0.0372790388588095,0.030274872884899377
1772045861544575500,9.312575439453125,0.08799509431719779,0.03127613833233481,-0.01023103276565671
1772045861554560500,9.322560546875,0.08780454018115996,0.027225223540293518,-0.008818535619229078
1772045861564545300,9.332545166015626,0.07061082879602909,0.015695481317164375,0.021468758355826137
1772045861574531300,9.34253125,0.01023731637597084,0.034700167097419035,0.12040434888228774
1772045861584516600,9.3525166015625,0.025712533405423163,0.0320004408687586,0.14344868599176405
1772045861594502400,9.36250244140625,-0.0006570026040077209,0.04778099752033595,0.20534210145547985
1772045861604488400,9.372488525390626,-0.01497603533565998,0.03359814012267161,0.19321634098440407
1772045861614473200,9.38247314453125,-0.04624269573688507,0.047527561615384184,0.11762611634060739
1772045861624459500,9.39245947265625,-0.06864800429046154,0.048024788814107884,0.03461699374243617
1772045861634444500,9.402444580078125,-0.03895370777249336,0.02904217558505479,-0.007122106964886188
1772045861644430300,9.412430419921876,0.018092706051468847,0.002951582668701303,-0.02562441673055291
1772045861654415400,9.422415283203126,0.1022118357181549,-0.014854712794220539,-0.006227788473665714
1772045861664401400,9.4324013671875,0.14505612118840217,-0.002318031722228625,0.05263984942808747
1772045861674387500,9.442387451171875,0.11013210732340813,-0.011548669544240692,0.10669818735197185
1772045861684372500,9.45237255859375,0.027271453285217285,-0.010095295823086053,0.090911566285789
1772045861694358300,9.462358154296876,-0.00867138223350048,-0.016586232169897994,0.07767901361659169
1772045861704343300,9.47234326171875,0.0013408932149410247,-0.034163973294908646,0.08546499131768942
1772045861714329600,9.48232958984375,0.0012128829210996627,-0.031630470478627826,0.07568228684142231
1772045861724314400,9.492314453125,-0.01896890436410904,0.007917992883198895,0.054850949606299396
1772045861734300400,9.502300537109376,-0.042374914392828936,0.016574480083311208,0.055077013447135684
1772045861744286500,9.512286376953124,-0.022104864302277562,0.020831515331636182,0.06695274467989802
1772045861754271500,9.522271484375,0.04572013316750526,0.029367293053306636,0.08936170649528503
1772045861764257500,9.532257568359375,0.10361761086285114,0.011062161243997979,0.10854600717574357
1772045861774242300,9.5422421875,0.13226736676394937,0.021951715000602414,0.10396803173571824
1772045861784228400,9.552228271484376,0.10613105498850345,0.006121190860611386,0.08744462082758546
1772045861794213600,9.562213623046874,0.0001356090784072876,0.015131671138654927,0.009974135395139454
1772045861804199400,9.572199462890625,-0.04727963756918907,0.0031785501210135404,-0.029179478863626717
1772045861814185500,9.582185546875,0.009230185160040856,-0.019133422159880863,-0.038694618444889785
1772045861824170200,9.592170166015626,0.11989654549062251,-0.03803326617603889,-0.006772416744381189
1772045861834156500,9.602156494140624,0.06783844147324562,0.016652460098301524,0.032684418244659896
1772045861844141600,9.6121416015625,0.021190672066807744,0.07574391280158888,0.014058335968852042
1772045861854127400,9.62212744140625,-0.017415829703211785,0.07073468350456096,0.007983838360756635
1772045861864112400,9.6321123046875,0.03517535827755928,0.03701794937036466,-0.00929550548121333
1772045861874098400,9.642098388671876,0.008290858483314513,0.037638647685130124,0.07251753920018672
1772045861884084500,9.65208447265625,-0.029365795215964316,0.08194923828169703,0.06336290349438786
1772045861894069500,9.662069580078125,0.012888707667589186,0.05399067038199864,0.04386719877719879
1772045861904055300,9.67205517578125,0.06988134547770022,0.021061415097373536,0.06380816304385661
1772045861914040300,9.682040283203126,0.08470189799070357,-0.00779294173142407,0.06263327404558658
1772045861924026400,9.6920263671875,0.006619125878810883,-0.011557650860073045,0.020604688872396946
1772045861934012400,9.702012451171875,-0.07415127788186072,0.009299861995922401,0.012388503060489893
1772045861943997400,9.71199755859375,-0.0778121384769678,0.04635079575385898,0.023224662112444637
1772045861953983200,9.721983154296876,-0.04732464575469494,0.05989292582888156,0.041789661850780244
1772045861963968500,9.731968505859374,-0.013140052080154419,0.052257878072909075,0.03509396360442042
1772045861973954600,9.74195458984375,0.019399112474918365,0.027206361292907967,-0.0021313129402697087
1772045861983939300,9.751939208984375,0.029463994893431662,0.02913010503025725,-0.01325549515336752
1772045861993925400,9.76192529296875,0.05329495233595371,0.03610401742979884,0.022452070304751395
1772045862003911400,9.771911376953126,0.04711947857141494,0.04249775075463112,0.03743643507733941
1772045862013896400,9.781896484375,0.0637736762523651,0.03876269241215195,0.056870472735166544
1772045862023882500,9.791882568359375,0.09430325455069541,0.016371088156942278,0.056025692474097014
1772045862033867300,9.8018671875,0.16248948654830456,0.010619826587266288,0.05374430353865027
1772045862043853600,9.811853515625,0.23631460121572015,-0.008643224718095734,0.0701443803280592
1772045862053839400,9.82183935546875,0.29455519326031204,-0.02003885798344854,0.07641440050825477
1772045862063824400,9.831824462890625,0.3728367028146982,-0.04974784518047236,0.06927052010297775
1772045862073810400,9.841810546875,0.42023908998072146,-0.11332851961138657,0.05912526592463255
1772045862083795200,9.851795166015625,0.30107261233031746,-0.0955988016534131,0.07307268886491655
1772045862093781500,9.861781494140626,0.012590601503849028,0.0009513459080830216,0.02737783626914024
1772045862103767300,9.871767333984375,-0.14976152240037918,0.09069676362448371,-0.07012713693231344
1772045862113752300,9.88175244140625,-0.1873573858231306,0.0561005843412131,-0.047114364004880185
1772045862123738600,9.891738525390625,-0.32830899430215355,0.0651508463570848,-0.09669614103659988
1772045862133723400,9.901723388671876,-0.3667541680306196,0.16532967841029167,-0.04907748077139258
1772045862143709400,9.91170947265625,-0.21495383327901363,0.04380155879561789,0.028016426433622836
1772045862153694500,9.921694580078125,-0.14917407790124415,0.008460570760723204,0.06552782644331455
1772045862163680300,9.93168017578125,-0.17073358328044413,0.02233285523871891,0.070329381506145
1772045862173666600,9.94166650390625,-0.1909253074377775,0.047642278602812435,0.03044190001487732
1772045862183651300,9.9516513671875,-0.19444646730124948,0.10794299978129565,-0.04823664603307843
1772045862193637400,9.961637451171875,-0.19149872341156005,0.07863046912252902,-0.07292246673926711
1772045862203622400,9.971622314453125,-0.135229723700881,0.028872550072614103,-0.09230375129655002
1772045862213608400,9.9816083984375,-0.07681143700182437,0.029780221235752104,-0.057841655854880804
