time,seconds_elapsed,z,y,x
1772045852297953500,0.06595361328125,0.31858453154563904,0.14663101732730865,-0.44899073243141174
1772045852307939600,0.075939697265625,0.325166791677475,0.10753235965967178,-0.3219206929206848
1772045852317924600,0.085924560546875,0.34151193499565125,0.059030964970588684,-0.16425442695617676
1772045852327910700,0.09591064453125,0.3585394024848938,0.006711568683385849,0.01615023799240589
1772045852337895700,0.105895751953125,0.34420445561408997,-0.05087415501475334,0.1762687861919403
1772045852347881500,0.115881591796875,0.30910399556159973,-0.14201152324676514,0.2819629907608032
1772045852357867500,0.125867431640625,0.2584514021873474,-0.24210862815380096,0.3195735216140747
1772045852367852500,0.1358525390625,0.21319682896137238,-0.2952656149864197,0.32538291811943054
1772045852377838600,0.145838623046875,0.1718289852142334,-0.2575409710407257,0.31743595004081726
1772045852387823600,0.15582373046875,0.1558620035648346,-0.12217702716588974,0.32100003957748413
1772045852397809400,0.165809326171875,0.17002467811107635,0.06896356493234634,0.3305148184299469
1772045852407794400,0.17579443359375,0.2037711888551712,0.26977232098579407,0.3268074095249176
1772045852417780700,0.18578076171875,0.24240073561668396,0.4174967408180237,0.26653265953063965
1772045852427765500,0.195765625,0.2596263289451599,0.5093638300895691,0.16286061704158783
1772045852437751600,0.20575146484375,0.2607651650905609,0.5737152695655823,0.03871368616819382
1772045852447736600,0.215736572265625,0.22038231790065765,0.6427611708641052,-0.07107459753751755
1772045852457722600,0.22572265625,0.150870680809021,0.7226388454437256,-0.14841343462467194
1772045852467708700,0.235708740234375,0.07800740003585815,0.8030045628547668,-0.18999922275543213
1772045852477693400,0.245693359375,0.01199170108884573,0.8676060438156128,-0.1861603707075119
1772045852487679500,0.255679443359375,-0.015369081869721413,0.9208157658576965,-0.1367587298154831
1772045852497664800,0.265664794921875,0.0031975088641047478,0.964767575263977,-0.046163395047187805
1772045852507650600,0.275650634765625,0.05987197533249855,1.0177983045578003,0.08054927736520767
1772045852517635600,0.285635498046875,0.11750113219022751,1.0442448854446411,0.22487808763980865
1772045852527621600,0.29562158203125,0.17787820100784302,0.9518172144889832,0.359210342168808
1772045852537606400,0.3056064453125,0.22553527355194092,0.7591099143028259,0.4798396825790405
1772045852547592700,0.3155927734375,0.26436948776245117,0.5507588386535645,0.580377995967865
1772045852557578500,0.32557861328125,0.29517310857772827,0.3724289536476135,0.6208760142326355
1772045852567563500,0.3355634765625,0.3172134459018707,0.2041161060333252,0.590661883354187
1772045852577549600,0.345549560546875,0.33467555046081543,0.05749788135290146,0.49781498312950134
1772045852587534600,0.35553466796875,0.3575981557369232,-0.05553519353270531,0.3670005202293396
1772045852597520600,0.365520751953125,0.3775482773780823,-0.15497331321239471,0.22003258764743805
1772045852607505700,0.375505615234375,0.4030344784259796,-0.2767418324947357,0.07929544150829315
1772045852617491500,0.385491455078125,0.4406869411468506,-0.3669968545436859,-0.041892990469932556
1772045852627477800,0.395477783203125,0.48667386174201965,-0.40781059861183167,-0.14998723566532135
1772045852637462500,0.405462646484375,0.47350019216537476,-0.4128430485725403,-0.24251437187194824
1772045852647448600,0.415448486328125,0.395926833152771,-0.4159134030342102,-0.3088923394680023
1772045852657433600,0.42543359375,0.31899720430374146,-0.41428136825561523,-0.32792338728904724
1772045852667419600,0.435419677734375,0.29332566261291504,-0.38014841079711914,-0.2928365170955658
1772045852677404700,0.44540478515625,0.3205502927303314,-0.32388511300086975,-0.22138521075248718
1772045852687390500,0.455390380859375,0.3563855290412903,-0.28406020998954773,-0.1297634094953537
1772045852697375500,0.46537548828125,0.3575327694416046,-0.27411338686943054,-0.03340199589729309
1772045852707361800,0.47536181640625,0.2930150330066681,-0.2577759623527527,0.06317887455224991
1772045852717347600,0.48534765625,0.21325883269309998,-0.22550876438617706,0.14491693675518036
1772045852727332600,0.49533251953125,0.11826679855585098,-0.19872507452964783,0.19337528944015503
1772045852737318400,0.505318359375,0.02703682705760002,-0.18563294410705566,0.22233571112155914
1772045852747303400,0.515303466796875,-0.04506665840744972,-0.20313337445259094,0.22554641962051392
1772045852757289700,0.525289794921875,-0.10676588118076324,-0.2510593831539154,0.21900324523448944
1772045852767274500,0.5352744140625,-0.15471450984477997,-0.3292466104030609,0.20082184672355652
1772045852777260500,0.545260498046875,-0.19477438926696777,-0.4245465397834778,0.17263375222682953
1772045852787245600,0.55524560546875,-0.22601300477981567,-0.5215181112289429,0.14088140428066254
1772045852797231600,0.565231689453125,-0.24646815657615662,-0.5943356156349182,0.10235077887773514
1772045852807217700,0.5752177734375,-0.24973905086517334,-0.630293607711792,0.05726265907287598
1772045852817202700,0.58520263671875,-0.23549164831638336,-0.6115472316741943,-0.011259403079748154
1772045852827188500,0.5951884765625,-0.22831708192825317,-0.5333187580108643,-0.09305892884731293
1772045852837173800,0.605173828125,-0.23003366589546204,-0.4192502796649933,-0.17877094447612762
1772045852847159600,0.61515966796875,-0.23187284171581268,-0.2744978964328766,-0.25234290957450867
1772045852857144600,0.62514453125,-0.2127988040447235,-0.09735439717769623,-0.30174875259399414
1772045852867130600,0.635130615234375,-0.17566634714603424,0.0698750764131546,-0.3376968801021576
1772045852877115400,0.645115478515625,-0.13297416269779205,0.1845308393239975,-0.34421005845069885
1772045852887101700,0.655101806640625,-0.11427237838506699,0.23928676545619965,-0.3287331163883209
1772045852897087500,0.66508740234375,-0.11444628238677979,0.24630525708198547,-0.2934345006942749
1772045852907072500,0.675072509765625,-0.11361031979322433,0.2468927502632141,-0.23500476777553558
1772045852917058800,0.685058837890625,-0.10849365592002869,0.2546769976615906,-0.1720520555973053
1772045852927043600,0.695043701171875,-0.09895794093608856,0.2781229317188263,-0.10178802162408829
1772045852937029600,0.705029541015625,-0.12319919466972351,0.2720470726490021,-0.037645548582077026
1772045852947014700,0.7150146484375,-0.19499269127845764,0.24588871002197266,0.015058937482535839
1772045852957000400,0.72500048828125,-0.28271329402923584,0.21150323748588562,0.038098763674497604
1772045852966985700,0.73498583984375,-0.3640691637992859,0.18148407340049744,0.030102089047431946
1772045852976971500,0.744971435546875,-0.41832199692726135,0.1722405105829239,-0.005738201551139355
1772045852986957600,0.75495751953125,-0.46172913908958435,0.1686154156923294,-0.044033657759428024
1772045852996942600,0.764942626953125,-0.48695307970046997,0.12905225157737732,-0.06464213877916336
1772045853006928600,0.7749287109375,-0.5058788061141968,0.09046170860528946,-0.07213947176933289
1772045853016913700,0.78491357421875,-0.5031574368476868,0.080595962703228,-0.068516306579113
1772045853026899500,0.7948994140625,-0.487962007522583,0.07153322547674179,-0.061469316482543945
1772045853036884500,0.804884521484375,-0.4630000591278076,0.06412091851234436,-0.06147244572639465
1772045853046870500,0.81487060546875,-0.4451369047164917,0.06964777410030365,-0.0772348940372467
1772045853056855600,0.82485546875,-0.42709484696388245,0.07891049236059189,-0.11250360310077667
1772045853066841600,0.834841552734375,-0.40799760818481445,0.09315361082553864,-0.1621505171060562
1772045853076827600,0.84482763671875,-0.39454174041748047,0.11332551389932632,-0.2211409956216812
1772045853086812400,0.8548125,-0.38547980785369873,0.13723403215408325,-0.27619677782058716
1772045853096798700,0.864798828125,-0.3784864842891693,0.14743661880493164,-0.3318149447441101
1772045853106783700,0.87478369140625,-0.37527498602867126,0.15205907821655273,-0.3768575191497803
1772045853116769500,0.88476953125,-0.36796510219573975,0.1634591966867447,-0.39931467175483704
1772045853126754600,0.894754638671875,-0.35610657930374146,0.162947878241539,-0.40585246682167053
1772045853136740600,0.90474072265625,-0.3439770042896271,0.15743178129196167,-0.39336737990379333
1772045853146725600,0.9147255859375,-0.33830368518829346,0.16888098418712616,-0.36926549673080444
1772045853156711700,0.924711669921875,-0.33110862970352173,0.17561885714530945,-0.331506609916687
1772045853166697500,0.934697509765625,-0.32723188400268555,0.15037821233272552,-0.28215292096138
1772045853176682500,0.9446826171875,-0.31779351830482483,0.1263139694929123,-0.21809953451156616
1772045853186668500,0.95466845703125,-0.30319327116012573,0.10138065367937088,-0.15274237096309662
1772045853196653600,0.964653564453125,-0.28315433859825134,0.0901288241147995,-0.0920233428478241
1772045853206639600,0.9746396484375,-0.27274829149246216,0.0717996135354042,-0.03971540182828903
1772045853216624400,0.984624267578125,-0.25781989097595215,0.04904096573591232,0.007163539528846741
1772045853226610700,0.994610595703125,-0.24656562507152557,0.01815149188041687,0.0475839339196682
1772045853236595700,1.004595703125,-0.23483721911907196,-0.010559902526438236,0.0740862637758255
1772045853246581500,1.01458154296875,-0.2138320654630661,-0.033626340329647064,0.08930356800556183
1772045853256567600,1.024567626953125,-0.19492077827453613,-0.046152565628290176,0.09585346281528473
1772045853266552600,1.034552490234375,-0.1673908829689026,-0.06023722514510155,0.08988185971975327
1772045853276538600,1.04453857421875,-0.1519540548324585,-0.061181798577308655,0.08087252825498581
1772045853286523600,1.054523681640625,-0.14013202488422394,-0.05813727527856827,0.06418170034885406
1772045853296509400,1.064509521484375,-0.1306222826242447,-0.047715090215206146,0.05972941219806671
1772045853306494500,1.074494384765625,-0.12482431530952454,-0.02619381807744503,0.055889930576086044
1772045853316480500,1.08448046875,-0.12054330110549927,0.001815516734495759,0.058976348489522934
1772045853326465500,1.094465576171875,-0.11562924087047577,0.03304986655712128,0.060974784195423126
1772045853336451600,1.10445166015625,-0.11419974267482758,0.052535880357027054,0.0653114914894104
1772045853346437600,1.114437744140625,-0.1152769923210144,0.07193354517221451,0.06161954998970032
1772045853356422700,1.124422607421875,-0.11467296630144119,0.08683543652296066,0.05024367570877075
1772045853366408700,1.13440869140625,-0.12103978544473648,0.09441585838794708,0.024796102195978165
1772045853376393200,1.144393310546875,-0.1324741095304489,0.09488807618618011,0.008356542326509953
1772045853386379500,1.154379638671875,-0.1384933888912201,0.0990186408162117,-0.0034465871285647154
1772045853396364500,1.164364501953125,-0.1436309665441513,0.08539028465747833,-0.009561106562614441
1772045853406350300,1.174350341796875,-0.16166535019874573,0.06865817308425903,-0.012836260721087456
1772045853416335400,1.18433544921875,-0.16906175017356873,0.05734346807003021,-0.007952556014060974
1772045853426321400,1.1943212890625,-0.16736744344234467,0.04070643335580826,0.00482688844203949
1772045853436307500,1.204307373046875,-0.163113072514534,0.031174084171652794,0.022459404543042183
1772045853446292500,1.21429248046875,-0.16075484454631805,0.020454326644539833,0.04025464877486229
1772045853456278300,1.2242783203125,-0.15819402039051056,0.013531028293073177,0.05797339975833893
1772045853466263600,1.234263671875,-0.1581689864397049,0.01402611006051302,0.07652737200260162
1772045853476249300,1.244249267578125,-0.15716856718063354,0.013828262686729431,0.0789879858493805
1772045853486234400,1.254234375,-0.16203416883945465,0.014774484559893608,0.0756494477391243
1772045853496220400,1.264220458984375,-0.17349644005298615,0.014250324107706547,0.06551606953144073
1772045853506205400,1.274205322265625,-0.18717791140079498,0.008598830550909042,0.050345901399850845
1772045853516191500,1.28419140625,-0.19758912920951843,0.010247641243040562,0.0334414467215538
1772045853526177300,1.29417724609375,-0.2041064202785492,0.01465597189962864,0.021673738956451416
1772045853536162300,1.304162353515625,-0.20889288187026978,0.01731564663350582,0.017525576055049896
1772045853546148600,1.314148681640625,-0.20510666072368622,0.022494962438941002,0.015392383560538292
1772045853556133600,1.324133544921875,-0.20056335628032684,0.0207950659096241,0.01462450623512268
1772045853566119400,1.334119384765625,-0.19776196777820587,0.0178485456854105,0.008735192008316517
1772045853576104400,1.3441044921875,-0.19449421763420105,0.009834198281168938,0.004492945037782192
1772045853586090200,1.35409033203125,-0.1945621371269226,0.002993868663907051,-0.003706395160406828
1772045853596076500,1.36407666015625,-0.19539794325828552,-0.006467688828706741,-0.01510806567966938
1772045853606061600,1.3740615234375,-0.19249509274959564,-0.006893262267112732,-0.02123812958598137
1772045853616047400,1.38404736328125,-0.19298295676708221,-0.00590515648946166,-0.015009365975856781
1772045853626032400,1.394032470703125,-0.1957790106534958,-0.0003205076209269464,-0.004477629903703928
1772045853636018400,1.404018310546875,-0.18635410070419312,0.005802318919450045,-0.0029511582106351852
1772045853646003500,1.41400341796875,-0.17567481100559235,0.011359269730746746,-0.003776471596211195
1772045853655989500,1.423989501953125,-0.16645118594169617,0.009501423686742783,-0.013670137152075768
1772045853665974300,1.433974365234375,-0.16191981732845306,0.0072912671603262424,-0.018966631963849068
1772045853675960600,1.443960693359375,-0.16609874367713928,0.003854312002658844,-0.01745365746319294
1772045853685945600,1.453945556640625,-0.17094969749450684,0.0049970741383731365,-0.019873671233654022
1772045853695931400,1.463931396484375,-0.17422765493392944,0.005955061409622431,-0.01862388849258423
1772045853705917400,1.47391748046875,-0.17359168827533722,0.0096952049061656,-0.01816476136445999
1772045853715902200,1.483902099609375,-0.16728444397449493,0.004518262110650539,-0.022716570645570755
1772045853725888500,1.493888427734375,-0.16067980229854584,0.0019110273569822311,-0.033016882836818695
1772045853735873500,1.50387353515625,-0.15055546164512634,-0.0036822399124503136,-0.040225088596343994
1772045853745859300,1.513859375,-0.13726414740085602,-0.00291498308070004,-0.0441090427339077
1772045853755844400,1.52384423828125,-0.12211748212575912,-0.0040589808486402035,-0.046837083995342255
1772045853765830400,1.533830322265625,-0.10630682855844498,-0.002468541031703353,-0.046424031257629395
1772045853775816400,1.54381640625,-0.09570588171482086,0.003805527463555336,-0.049651410430669785
1772045853785801500,1.553801513671875,-0.0821879431605339,0.005309148225933313,-0.050070326775312424
1772045853795787300,1.563787353515625,-0.06630700826644897,0.00366537319496274,-0.04925716295838356
1772045853805772300,1.573772216796875,-0.05364927649497986,0.009139500558376312,-0.04533619061112404
1772045853815758600,1.583758544921875,-0.03515652194619179,0.023117706179618835,-0.034920401871204376
1772045853825743400,1.593743408203125,-0.018424944952130318,0.025347571820020676,-0.023537520319223404
1772045853835729400,1.6037294921875,0.0029663043096661568,0.025687245652079582,-0.009089663624763489
1772045853845714400,1.61371435546875,0.023907270282506943,0.0338602215051651,0.0010101089719682932
1772045853855700500,1.623700439453125,0.040619030594825745,0.044665321707725525,0.008130724541842937
1772045853865685500,1.633685546875,0.05389994755387306,0.05017673224210739,0.002516514854505658
1772045853875671300,1.64367138671875,0.065248504281044,0.0607045479118824,-0.014935816638171673
1772045853885657300,1.6536572265625,0.07411150634288788,0.06242042034864426,-0.028995975852012634
1772045853895642600,1.663642578125,0.08248493075370789,0.06270063668489456,-0.04299989715218544
1772045853905628400,1.67362841796875,0.08685171604156494,0.06392621994018555,-0.0450393445789814
1772045853915613400,1.683613525390625,0.09013675153255463,0.06664751470088959,-0.03773439675569534
1772045853925599200,1.69359912109375,0.09285104274749756,0.07308037579059601,-0.02815500646829605
1772045853935584300,1.703584228515625,0.08509170264005661,0.07577121257781982,-0.01694578491151333
1772045853945570600,1.713570556640625,0.08472046256065369,0.07388009876012802,-0.009886011481285095
1772045853955555300,1.723555419921875,0.07733423262834549,0.06597738713026047,-0.008670414797961712
1772045853965541400,1.733541259765625,0.07180178165435791,0.05696365237236023,-0.011526121757924557
1772045853975527400,1.74352734375,0.07159297168254852,0.05010012909770012,-0.015378059819340706
1772045853985512400,1.753512451171875,0.06990319490432739,0.036779530346393585,-0.017892083153128624
1772045853995498500,1.76349853515625,0.06463342905044556,0.029981132596731186,-0.008161388337612152
1772045854005483300,1.773483154296875,0.0509309321641922,0.020237158983945847,-0.00017989519983530045
1772045854015469300,1.78346923828125,0.050096545368433,0.005765638779848814,0.005753812380135059
1772045854025454600,1.79345458984375,0.03778954967856407,-0.0037016323767602444,0.012179221957921982
1772045854035440400,1.8034404296875,0.026818495243787766,-0.007723950780928135,0.01451165322214365
1772045854045425400,1.81342529296875,0.017087038606405258,-0.013555474579334259,0.009185862727463245
1772045854055411500,1.823411376953125,0.006693598814308643,-0.010849895887076855,0.0019601574167609215
1772045854065397500,1.8333974609375,-0.0004079854115843773,-0.009246140718460083,-0.012421444058418274
1772045854075382500,1.843382568359375,-0.00015269126743078232,-0.005824097897857428,-0.02982843667268753
1772045854085368300,1.853368408203125,0.005238877609372139,-0.0016911381389945745,-0.041588954627513885
1772045854095353300,1.863353271484375,0.016908390447497368,0.00269406964071095,-0.04571644961833954
1772045854105339600,1.873339599609375,0.02739192359149456,0.006163902580738068,-0.049185216426849365
1772045854115324400,1.883324462890625,0.03869597613811493,0.005232062190771103,-0.04806642234325409
1772045854125310500,1.893310546875,0.043542928993701935,0.001998718362301588,-0.04345649108290672
1772045854135295500,1.90329541015625,0.04783029481768608,0.005120597779750824,-0.03721862658858299
1772045854145281300,1.91328125,0.05462907999753952,0.008641029708087444,-0.029403313994407654
1772045854155267600,1.923267578125,0.0531415231525898,0.007205270696431398,-0.0178790595382452
1772045854165252400,1.93325244140625,0.0647643581032753,0.0039436970837414265,-0.016644151881337166
1772045854175238400,1.94323828125,0.07096365094184875,0.0036737495101988316,-0.01590600609779358
1772045854185223400,1.953223388671875,0.07418607175350189,0.0021416330710053444,-0.016423191875219345
1772045854195209500,1.96320947265625,0.07460509240627289,-0.00940372608602047,-0.022335346788167953
1772045854205194500,1.973194580078125,0.06854613125324249,-0.020261168479919434,-0.01973343826830387
1772045854215180300,1.98318017578125,0.05641692876815796,-0.025499582290649414,-0.011226565577089787
1772045854225165300,1.993165283203125,0.06230811029672623,-0.040716614574193954,-0.006350050680339336
1772045854235151600,2.003151611328125,0.0694315955042839,-0.024180106818675995,0.002653355011716485
1772045854245137400,2.013137451171875,0.07721388339996338,-0.026455512270331383,0.004942341707646847
1772045854255122400,2.023122314453125,0.07968832552433014,-0.01716509833931923,0.004697927739471197
1772045854265108200,2.033108154296875,0.08015944063663483,-0.012531464919447899,-0.001811636844649911
1772045854275093200,2.04309326171875,0.07660586386919022,-0.006037773098796606,-0.006948172114789486
1772045854285079600,2.05307958984375,0.07035675644874573,-0.009882045909762383,-0.013692360371351242
1772045854295064600,2.063064697265625,0.07030370831489563,-0.004325490444898605,-0.015961745753884315
1772045854305050400,2.07305029296875,0.06733401119709015,-0.005652543157339096,-0.01207832619547844
1772045854315035400,2.083035400390625,0.06352775543928146,-0.009255437180399895,-0.007966306991875172
1772045854325021400,2.093021484375,0.049216996878385544,-0.006524365860968828,-0.005883447825908661
1772045854335007500,2.103007568359375,0.04275453835725784,-0.007071185391396284,-0.0029458769131451845
1772045854344992500,2.112992431640625,0.03457384184002876,-0.007493030279874802,-0.0027472053188830614
1772045854354978300,2.122978271484375,0.029767462983727455,-0.008399328216910362,-0.006046798545867205
1772045854364963600,2.132963623046875,0.024657124653458595,-0.00832688994705677,-0.005894998554140329
1772045854374949400,2.142949462890625,0.02683432027697563,-0.008572820574045181,-0.013062039390206337
1772045854384935000,2.152934814453125,0.03198247402906418,-0.007896111346781254,-0.020435798913240433
1772045854394920700,2.162920654296875,0.035639870911836624,-0.004883228335529566,-0.027820341289043427
1772045854404905700,2.17290576171875,0.03553494065999985,-0.001514329807832837,-0.02506610006093979
1772045854414891800,2.182891845703125,0.0336487852036953,0.010200527496635914,-0.023686615750193596
1772045854424877800,2.1928779296875,0.029114488512277603,0.015838706865906715,-0.01637650467455387
1772045854434862800,2.20286279296875,0.019892802461981773,0.015584615990519524,-0.018936360254883766
1772045854444849000,2.212848876953125,0.010175460949540138,0.012991496361792088,-0.01877310872077942
1772045854454833700,2.222833740234375,0.011592011898756027,0.007825932465493679,-0.020157072693109512
1772045854464820000,2.232820068359375,0.011857263743877411,0.00733378017321229,-0.02145988866686821
1772045854474805000,2.242804931640625,0.0083779226988554,0.002389694331213832,-0.016727734357118607
1772045854484790800,2.252790771484375,0.0038028787821531296,-0.0004388491506688297,-0.012769480235874653
1772045854494775800,2.26277587890625,0.0016122572124004364,0.005534064956009388,-0.007775722537189722
1772045854504761900,2.272761962890625,0.00987737812101841,0.004214734770357609,-0.0025697750970721245
1772045854514747000,2.282746826171875,0.013506824150681496,0.010901350528001785,0.006534460000693798
1772045854524733000,2.29273291015625,0.00824202224612236,0.012839865870773792,0.004787692800164223
1772045854534718700,2.30271875,0.0038036471232771873,0.02459852024912834,0.0023659016005694866
1772045854544703700,2.312703857421875,0.007391191087663174,0.02753838337957859,-0.0010791635140776634
1772045854554689800,2.322689697265625,0.004250245168805122,0.025692110881209373,-0.003846801584586501
1772045854564674800,2.3326748046875,0.0031426362693309784,0.02482285536825657,-0.00015885639004409313
1772045854574660900,2.342660888671875,0.0003699762746691704,0.024326734244823456,-0.0023580719716846943
1772045854584645600,2.352645751953125,-0.0034308871254324913,0.013842135667800903,-0.012518297880887985
1772045854594632000,2.3626318359375,-0.007099569775164127,0.00223496463149786,-0.021301981061697006
1772045854604617000,2.372616943359375,-0.008133675903081894,-0.003009065752848983,-0.027626721188426018
1772045854614602800,2.382602783203125,-0.00781331304460764,-0.011041329242289066,-0.02561025880277157
1772045854624588800,2.3925888671875,-0.009823999367654324,-0.011787813156843185,-0.006650947965681553
1772045854634573800,2.40257373046875,-0.011543712578713894,-0.011619647033512592,0.013454175554215908
1772045854644560000,2.412559814453125,-0.015803173184394836,-0.009038244374096394,0.02805735170841217
1772045854654545000,2.422544921875,-0.019991902634501457,-0.0003269237349741161,0.03262905776500702
1772045854664530700,2.43253076171875,-0.021190857514739037,0.011287654750049114,0.031630903482437134
1772045854674515700,2.442515625,-0.018865881487727165,0.017580268904566765,0.02074204385280609
1772045854684501800,2.452501708984375,-0.014887385070323944,0.019196273759007454,0.007630768232047558
1772045854694486800,2.46248681640625,-0.01135019026696682,0.015920419245958328,-0.00286376615986228
1772045854704472800,2.472472900390625,-0.006385525222867727,0.00874053593724966,-0.010130999609827995
1772045854714459000,2.482458984375,0.0006132768467068672,0.001328328507952392,-0.012596738524734974
1772045854724444000,2.49244384765625,0.006962253712117672,0.00039196107536554337,-0.009862471371889114
1772045854734430000,2.502429931640625,0.018366264179348946,0.004419661592692137,-0.0032711452804505825
1772045854744414700,2.512414794921875,0.017567316070199013,0.011118311434984207,-0.0010191765613853931
1772045854754400800,2.52240087890625,0.01856311783194542,0.01159580610692501,0.0044801789335906506
1772045854764386000,2.532385986328125,0.017683740705251694,0.013775603845715523,0.0039403559640049934
1772045854774371800,2.542371826171875,0.019671544432640076,0.014675922691822052,0.0034205876290798187
1772045854784356900,2.55235693359375,0.017675235867500305,0.01567940041422844,0.005855249240994453
1772045854794342700,2.5623427734375,0.01916339620947838,0.010555042885243893,0.0035387512762099504
1772045854804329000,2.572328857421875,0.01754872128367424,0.0093036238104105,0.005919351242482662
1772045854814314000,2.58231396484375,0.011637301184237003,0.0048478893004357815,0.00858783908188343
1772045854824299800,2.5922998046875,0.008450829423964024,0.004960540682077408,0.003972580190747976
1772045854834284800,2.602284912109375,0.006494535133242607,0.0034925092477351427,0.00005683698691427708
1772045854844270800,2.612270751953125,0.008109742775559425,0.0034086196683347225,0.003995119594037533
1772045854854255900,2.622255859375,0.0058258818462491035,0.004168449901044369,-0.0006617594044655561
1772045854864242000,2.632241943359375,0.007949220947921276,0.0069045815616846085,-0.0004005033988505602
1772045854874226700,2.642226806640625,0.00592768844217062,0.009251280687749386,0.0012153524439781904
1772045854884212700,2.652212646484375,0.005465631373226643,0.00969869177788496,-0.0005934664513915777
1772045854894198800,2.66219873046875,0.0041513144969940186,0.009024669416248798,0.005316377617418766
1772045854904183800,2.672183837890625,-0.0009252019226551056,0.008842509239912033,0.007321737706661224
1772045854914169900,2.682169921875,-0.009241519495844841,0.005003659520298243,0.007305856794118881
1772045854924155000,2.69215478515625,-0.012045029550790787,0.003551970236003399,0.007745544891804457
1772045854934141000,2.702140869140625,-0.017765890806913376,0.004955141339451075,0.007015879265964031
1772045854944126000,2.7121259765625,-0.014551988802850246,0.0014528183965012431,0.0033782673999667168
1772045854954111700,2.72211181640625,-0.016808435320854187,-0.0014750604750588536,0.0003737758379429579
1772045854964096800,2.7320966796875,-0.016127729788422585,-0.00394487613812089,-0.004815126769244671
1772045854974083000,2.7420830078125,-0.018477104604244232,-0.0037265922874212265,-0.008237389847636223
1772045854984068900,2.75206884765625,-0.01530261617153883,-0.0032437609042972326,-0.007359078619629145
1772045854994054000,2.762053955078125,-0.012564857490360737,-0.003785909153521061,-0.002808638382703066
1772045855004039700,2.772039794921875,-0.012901481240987778,-0.010901609435677528,-0.004751947242766619
1772045855014024700,2.782024658203125,-0.011285335756838322,-0.016253547742962837,-0.004355095326900482
1772045855024011000,2.792010986328125,-0.009448287077248096,-0.015429563820362091,-0.009266763925552368
1772045855033995800,2.801995849609375,-0.012978796847164631,-0.023144109174609184,-0.013202646747231483
1772045855043981800,2.81198193359375,-0.01672293432056904,-0.028080279007554054,-0.014424238353967667
1772045855053966800,2.821966796875,-0.013038604520261288,-0.028408892452716827,-0.012674156576395035
1772045855063953000,2.831952880859375,-0.015112407505512238,-0.028993988409638405,-0.013949276879429817
1772045855073939000,2.84193896484375,-0.012803231365978718,-0.0335296168923378,-0.008503199554979801
1772045855083923700,2.851923828125,-0.01287353876978159,-0.03461459279060364,-0.00375931104645133
1772045855093909800,2.86190966796875,-0.01610603742301464,-0.0342596136033535,-0.0024503914173692465
1772045855103895000,2.87189501953125,-0.0197076965123415,-0.03430994600057602,-0.005134858191013336
1772045855113880800,2.881880859375,-0.030093125998973846,-0.03183586895465851,-0.011200299486517906
1772045855123865900,2.891865966796875,-0.03142177686095238,-0.031401775777339935,-0.01970616914331913
1772045855133851600,2.9018515625,-0.032820846885442734,-0.03353404626250267,-0.018006153404712677
1772045855143836700,2.911836669921875,-0.03154226392507553,-0.035617437213659286,-0.01748736947774887
1772045855153823000,2.921822998046875,-0.02639824151992798,-0.03558516502380371,-0.018563857302069664
1772045855163807700,2.931807861328125,-0.026679206639528275,-0.034520965069532394,-0.016464222222566605
1772045855173793800,2.941793701171875,-0.026084352284669876,-0.02925853803753853,-0.01846698299050331
1772045855183779800,2.95177978515625,-0.030469778925180435,-0.028513651341199875,-0.017882151529192924
1772045855193764900,2.961764892578125,-0.029281476512551308,-0.03221331164240837,-0.020879007875919342
1772045855203751000,2.9717509765625,-0.032863691449165344,-0.028147732838988304,-0.022701408714056015
1772045855213736000,2.98173583984375,-0.03381018340587616,-0.02536233328282833,-0.02436082437634468
1772045855223721700,2.9917216796875,-0.035461075603961945,-0.024616381153464317,-0.02477600984275341
1772045855233707000,3.00170703125,-0.03184444084763527,-0.024225549772381783,-0.028279872611165047
1772045855243692800,3.01169287109375,-0.03257281333208084,-0.021340014412999153,-0.016843196004629135
1772045855253677800,3.021677734375,-0.0343557670712471,-0.017965160310268402,-0.009432146325707436
1772045855263663900,3.031663818359375,-0.03038312867283821,-0.01680801622569561,-0.0009094977285712957
1772045855273650000,3.04164990234375,-0.024536803364753723,-0.022787757217884064,0.0008310002740472555
1772045855283635000,3.051635009765625,-0.017388079315423965,-0.03130081668496132,0.0014392661396414042
1772045855293620700,3.061620849609375,-0.014114507474005222,-0.04004114121198654,-0.0031370287761092186
1772045855303605800,3.071605712890625,-0.009723753668367863,-0.04249843955039978,0.0025437602307647467
1772045855313592000,3.081592041015625,-0.012141414918005466,-0.04979920759797096,0.011435011401772499
1772045855323576800,3.091576904296875,-0.015459180809557438,-0.05386478826403618,0.022252507507801056
1772045855333563000,3.10156298828125,-0.02524295076727867,-0.05265774577856064,0.03314857557415962
1772045855343548000,3.1115478515625,-0.026331918314099312,-0.04959191381931305,0.044958360493183136
1772045855353533700,3.12153369140625,-0.032113607972860336,-0.051614247262477875,0.05073012784123421
1772045855363520000,3.13152001953125,-0.03719731792807579,-0.05339829996228218,0.05002358928322792
1772045855373504800,3.1415048828125,-0.043935615569353104,-0.055894121527671814,0.04276914894580841
1772045855383490600,3.151490478515625,-0.043343327939510345,-0.055104225873947144,0.03321186080574989
1772045855393475600,3.1614755859375,-0.04760328307747841,-0.05501917004585266,0.01966569572687149
1772045855403461400,3.17146142578125,-0.04506742209196091,-0.05500851944088936,0.012169696390628815
1772045855413446400,3.1814462890625,-0.04486308619379997,-0.051311612129211426,0.006069892086088657
1772045855423432400,3.191432373046875,-0.04425055906176567,-0.04670168459415436,0.0049572233110666275
1772045855433417500,3.20141748046875,-0.044531725347042084,-0.040183573961257935,0.005102397873997688
1772045855443403500,3.211403564453125,-0.049415163695812225,-0.032733380794525146,0.00947424303740263
1772045855453389300,3.221389404296875,-0.048731256276369095,-0.019244849681854248,0.017374908551573753
1772045855463374300,3.231374267578125,-0.04880023002624512,-0.008565840311348438,0.016976233571767807
1772045855473360600,3.241360595703125,-0.0476294606924057,0.0026563014835119247,0.011646670289337635
1772045855483345400,3.251345458984375,-0.0361243411898613,0.013972338289022446,0.008949421346187592
1772045855493331500,3.26133154296875,-0.03385288640856743,0.026011666283011436,-0.0027496020775288343
1772045855503316500,3.27131640625,-0.031731680035591125,0.036715175956487656,-0.013697058893740177
1772045855513302500,3.281302490234375,-0.026951994746923447,0.03837420791387558,-0.023659266531467438
1772045855523287600,3.29128759765625,-0.02197987213730812,0.041841644793748856,-0.028378121554851532
1772045855533273300,3.3012734375,-0.018285244703292847,0.042023465037345886,-0.03380465880036354
1772045855543258400,3.31125830078125,-0.014114201068878174,0.0405946783721447,-0.03034946881234646
1772045855553244400,3.321244384765625,-0.010964113287627697,0.03993726521730423,-0.021826252341270447
1772045855563230500,3.33123046875,-0.007572045549750328,0.03705386072397232,-0.019348450005054474
1772045855573215500,3.341215576171875,-0.007198278326541185,0.03343360871076584,-0.016969753429293633
1772045855583201500,3.351201416015625,-0.013815434649586678,0.02598368003964424,-0.01918257400393486
1772045855593186300,3.361186279296875,-0.016159407794475555,0.015958160161972046,-0.017713002860546112
1772045855603172600,3.371172607421875,-0.02075868844985962,0.008472015149891376,-0.016575030982494354
1772045855613157600,3.38115771484375,-0.027079137042164803,0.013906002044677734,-0.000010807299986481667
1772045855623143400,3.391143310546875,-0.03251571208238602,0.02723991684615612,0.013082357123494148
1772045855633128400,3.40112841796875,-0.04743844270706177,0.04338061064481735,0.013194904662668705
1772045855643114500,3.411114501953125,-0.06609015166759491,0.06424860656261444,0.0027545145712792873
1772045855653100500,3.4211005859375,-0.07474108785390854,0.0780722126364708,-0.019662102684378624
1772045855663085600,3.43108544921875,-0.07550755143165588,0.08390560001134872,-0.04881226271390915
1772045855673071400,3.4410712890625,-0.06859710812568665,0.08426570147275925,-0.08013462275266647
1772045855683056400,3.451056396484375,-0.05440192669630051,0.07839982211589813,-0.10181169211864471
1772045855693042400,3.46104248046875,-0.033477649092674255,0.06713365763425827,-0.11294052749872208
1772045855703027500,3.47102734375,-0.008406385779380798,0.047664619982242584,-0.11415839195251465
1772045855713013500,3.481013427734375,0.014318873174488544,0.03770580142736435,-0.10442578792572021
1772045855722998300,3.490998291015625,0.03514452651143074,0.014407135546207428,-0.07596591860055923
1772045855732984600,3.500984619140625,0.05229567736387253,-0.004583017900586128,-0.04159014672040939
1772045855742970400,3.510970458984375,0.07110504806041718,-0.018474332988262177,-0.0028504724614322186
1772045855752955400,3.520955322265625,0.08936310559511185,-0.026564722880721092,0.0243806391954422
1772045855762941400,3.53094140625,0.10200246423482895,-0.0321459099650383,0.036440763622522354
1772045855772926500,3.540926513671875,0.10720330476760864,-0.03774148225784302,0.030104218050837517
1772045855782912500,3.55091259765625,0.11322496831417084,-0.048256173729896545,0.006092891562730074
1772045855792897500,3.5608974609375,0.12206383794546127,-0.06870980560779572,-0.028541719540953636
1772045855802883300,3.57088330078125,0.1341678947210312,-0.09337680041790009,-0.05486680194735527
1772045855812868400,3.580868408203125,0.1446780264377594,-0.1169741228222847,-0.07402527332305908
1772045855822854400,3.5908544921875,0.14536325633525848,-0.1490100920200348,-0.07732492685317993
1772045855832840400,3.60084033203125,0.13617673516273499,-0.17016781866550446,-0.06194460391998291
1772045855842825500,3.610825439453125,0.11848615854978561,-0.17614847421646118,-0.028097424656152725
1772045855852811500,3.6208115234375,0.0974610224366188,-0.18095698952674866,0.021693753078579903
1772045855862796500,3.630796630859375,0.06954710185527802,-0.1752397119998932,0.061727721244096756
1772045855872782600,3.640782470703125,0.04230048507452011,-0.16329523921012878,0.0889497697353363
1772045855882767400,3.650767333984375,0.019895309582352638,-0.1506558656692505,0.10029882937669754
1772045855892753400,3.66075341796875,0.0013670632615685463,-0.13559289276599884,0.10221067816019058
1772045855902738700,3.67073876953125,-0.016358936205506325,-0.1205846518278122,0.09477780014276505
1772045855912724500,3.680724365234375,-0.0312788188457489,-0.10567188262939453,0.07778437435626984
1772045855922710500,3.69071044921875,-0.047909993678331375,-0.08948572725057602,0.056419163942337036
1772045855932695300,3.7006953125,-0.051408424973487854,-0.07439064234495163,0.038620129227638245
1772045855942681600,3.710681640625,-0.053700074553489685,-0.06516438722610474,0.021343672648072243
1772045855952666600,3.72066650390625,-0.04954500496387482,-0.05736345425248146,0.005762316286563873
1772045855962652400,3.73065234375,-0.03977467119693756,-0.06235341727733612,-0.0031560775823891163
1772045855972637400,3.740637451171875,-0.03721681237220764,-0.05741846188902855,-0.0011969339102506638
1772045855982623500,3.75062353515625,-0.033565886318683624,-0.04923216998577118,0.00006513809785246849
1772045855992608500,3.7606083984375,-0.0340660959482193,-0.04068998619914055,0.01790069416165352
1772045856002594600,3.770594482421875,-0.032426923513412476,-0.03195348381996155,0.04203026369214058
1772045856012579300,3.780579345703125,-0.032298821955919266,-0.019603876397013664,0.060421522706747055
1772045856022565400,3.7905654296875,-0.03471164405345917,-0.012615474872291088,0.07270295172929764
1772045856032551400,3.800551513671875,-0.038980498909950256,-0.007845268584787846,0.07073074579238892
1772045856042536400,3.810536376953125,-0.03863135725259781,-0.004454264882951975,0.05907808244228363
1772045856052522500,3.8205224609375,-0.0382825993001461,-0.000414661830291152,0.04584416002035141
1772045856062507300,3.83050732421875,-0.04096706584095955,0.004194471053779125,0.028592735528945923
1772045856072493600,3.84049365234375,-0.049183011054992676,0.011797552928328514,0.018866540864109993
1772045856082478600,3.850478515625,-0.061211444437503815,0.019667992368340492,0.013061914592981339
1772045856092464400,3.86046435546875,-0.07169702649116516,0.025874564424157143,0.005536336451768875
1772045856102449400,3.870449462890625,-0.07732455432415009,0.029908187687397003,-0.004772759974002838
1772045856112435500,3.880435546875,-0.08815261721611023,0.029206661507487297,-0.015234767459332943
1772045856122421500,3.89042138671875,-0.09409652650356293,0.0248329509049654,-0.022986430674791336
1772045856132406500,3.900406494140625,-0.1017107367515564,0.02261739782989025,-0.024607574567198753
1772045856142392300,3.910392333984375,-0.11733923107385635,0.01790466718375683,-0.01693793758749962
1772045856152377300,3.92037744140625,-0.13504713773727417,0.016066793352365494,-0.011153925210237503
1772045856162363600,3.93036376953125,-0.14987215399742126,0.012555149383842945,-0.010948329232633114
1772045856172348400,3.940348388671875,-0.16472524404525757,0.005480849649757147,-0.015501415356993675
1772045856182334500,3.95033447265625,-0.17285694181919098,-0.003890281543135643,-0.027764206752181053
1772045856192319500,3.960319580078125,-0.18242287635803223,-0.015380539000034332,-0.03935717046260834
1772045856202305500,3.970305419921875,-0.19296099245548248,-0.02781350538134575,-0.054156623780727386
1772045856212291600,3.98029150390625,-0.1990686058998108,-0.03131452202796936,-0.07144766300916672
1772045856222276400,3.9902763671875,-0.20446869730949402,-0.04041747376322746,-0.08920589089393616
1772045856232262400,4.000262451171875,-0.2008943408727646,-0.0509243942797184,-0.10385917872190475
1772045856242247700,4.01024755859375,-0.2009049952030182,-0.04714829847216606,-0.099347785115242
1772045856252233500,4.0202333984375,-0.19582460820674896,-0.03694313392043114,-0.08162398636341095
1772045856262218500,4.030218505859375,-0.1921856552362442,-0.03696470707654953,-0.057525571435689926
1772045856272204300,4.040204345703125,-0.18774722516536713,-0.043547023087739944,-0.03609853982925415
1772045856282189300,4.050189208984375,-0.18547235429286957,-0.04441654682159424,-0.019094523042440414
1772045856292175600,4.060175537109375,-0.18999773263931274,-0.035557255148887634,0.002851106459274888
1772045856302161400,4.070161376953125,-0.19284892082214355,-0.020141810178756714,0.0187150239944458
1772045856312146400,4.080146484375,-0.1866455227136612,-0.0049626389518380165,0.031059259548783302
1772045856322132200,4.09013232421875,-0.17753538489341736,0.010413121432065964,0.03603138402104378
1772045856332117500,4.100117431640625,-0.16627377271652222,0.021563947200775146,0.04041954502463341
1772045856342103600,4.110103515625,-0.15063515305519104,0.021970879286527634,0.03377069905400276
1772045856352088600,4.120088623046875,-0.14125101268291473,0.020817898213863373,0.023874923586845398
1772045856362074400,4.130074462890625,-0.13828638195991516,0.024020614102482796,0.009217948652803898
1772045856372059400,4.140059326171875,-0.14440199732780457,0.03663751110434532,-0.006161373108625412
1772045856382045400,4.15004541015625,-0.15105004608631134,0.05720270797610283,-0.012881327420473099
1772045856392030500,4.160030517578125,-0.16759541630744934,0.07861053198575974,-0.01852395012974739
1772045856402016500,4.1700166015625,-0.18535496294498444,0.12955865263938904,-0.008309927769005299
1772045856412002600,4.18000244140625,-0.2010604441165924,0.17757782340049744,0.010352865792810917
1772045856421987600,4.189987548828125,-0.21877898275852203,0.2254534810781479,0.02532782033085823
1772045856431973600,4.1999736328125,-0.23096312582492828,0.26850876212120056,0.033724457025527954
1772045856441958700,4.209958740234375,-0.23995448648929596,0.2853122353553772,0.026693709194660187
1772045856451944700,4.21994482421875,-0.24001061916351318,0.31426098942756653,0.01641753874719143
1772045856461929500,4.229929443359375,-0.23343287408351898,0.33214303851127625,-0.0010850224643945694
1772045856471915500,4.23991552734375,-0.22234372794628143,0.3294135630130768,-0.02865806221961975
1772045856481900800,4.24990087890625,-0.21128283441066742,0.3162221312522888,-0.054729342460632324
1772045856491886600,4.259886474609375,-0.20237289369106293,0.2876034080982208,-0.08518455177545547
1772045856501872600,4.26987255859375,-0.19309043884277344,0.25639623403549194,-0.10857615619897842
1772045856511857400,4.279857421875,-0.18716615438461304,0.22960969805717468,-0.12621882557868958
1772045856521843700,4.28984375,-0.18012769520282745,0.20687216520309448,-0.12528565526008606
1772045856531828700,4.299828857421875,-0.1696300357580185,0.19285555183887482,-0.12356634438037872
1772045856541814500,4.309814453125,-0.15539969503879547,0.17778153717517853,-0.10897035151720047
1772045856551799600,4.319799560546875,-0.13546644151210785,0.15667368471622467,-0.0894341990351677
1772045856561785600,4.32978564453125,-0.10972325503826141,0.12770408391952515,-0.07462409138679504
1772045856571770600,4.3397705078125,-0.0894358903169632,0.0923033133149147,-0.06170686334371567
1772045856581756700,4.349756591796875,-0.06609781086444855,0.05640869960188866,-0.053330693393945694
1772045856591742500,4.359742431640625,-0.04606816545128822,0.01953710988163948,-0.03903034329414368
1772045856601727500,4.3697275390625,-0.025872349739074707,-0.008617028594017029,-0.02545141987502575
1772045856611713500,4.379713623046875,-0.011766105890274048,-0.025663072243332863,-0.00794943980872631
1772045856621698600,4.389698486328125,-0.005873062647879124,-0.036639027297496796,0.0038925730623304844
1772045856631684600,4.3996845703125,-0.0005547851324081421,-0.040783703327178955,0.018910586833953857
1772045856641669600,4.409669677734375,0.0015714820474386215,-0.03269994631409645,0.0345848873257637
1772045856651655700,4.41965576171875,0.002812515012919903,-0.023227082565426826,0.04312964156270027
1772045856661640700,4.429640625,0.0057521117851138115,-0.021904556080698967,0.03789226710796356
1772045856671626500,4.43962646484375,0.008181729353964329,-0.023158203810453415,0.02959020994603634
1772045856681611500,4.449611572265625,0.014101403765380383,-0.026784364134073257,0.017645666375756264
1772045856691597800,4.459597900390625,0.017125548794865608,-0.02824106439948082,0.005762334913015366
1772045856701583600,4.46958349609375,0.014921249821782112,-0.03010341338813305,-0.0018737469799816608
1772045856711568600,4.479568603515625,0.011344272643327713,-0.022188445553183556,-0.0034939702600240707
1772045856721554400,4.489554443359375,0.009929336607456207,-0.01512228138744831,0.00216498039662838
1772045856731539500,4.49953955078125,0.005380314774811268,-0.011229735799133778,0.004163674078881741
1772045856741525800,4.50952587890625,0.0005501396954059601,-0.005004330538213253,0.00596317183226347
1772045856751510500,4.519510498046875,-0.002239611931145191,-0.00007184091373346746,0.00941547378897667
1772045856761496600,4.52949658203125,0.0008483231067657471,0.005420662462711334,0.015131683088839054
1772045856771481600,4.539481689453125,0.019102860242128372,0.012166330590844154,0.024939002469182014
1772045856781467600,4.549467529296875,0.04705087095499039,0.015292082913219929,0.03930382430553436
1772045856791453700,4.55945361328125,0.05895513668656349,0.012147128582000732,0.06266221404075623
1772045856801438500,4.5694384765625,0.05074993893504143,0.02669171616435051,0.0835493952035904
1772045856811424500,4.579424560546875,0.034751664847135544,0.052252013236284256,0.11225061118602753
1772045856821409800,4.589409912109375,0.0287741981446743,0.06843523681163788,0.13917675614356995
1772045856831395600,4.5993955078125,0.03230391442775726,0.07932253926992416,0.17430974543094635
1772045856841380600,4.609380615234375,0.038319993764162064,0.0943094789981842,0.20593291521072388
1772045856851366400,4.619366455078125,0.05603642016649246,0.10453911125659943,0.22979067265987396
1772045856861351400,4.629351318359375,0.07191231846809387,0.10630504786968231,0.24372859299182892
1772045856871337700,4.639337646484375,0.08395673334598541,0.10436280816793442,0.24680107831954956
1772045856881323500,4.649323486328125,0.08983885496854782,0.11293845623731613,0.23823155462741852
1772045856891308500,4.65930859375,0.09548106789588928,0.10783712565898895,0.21972697973251343
1772045856901294600,4.669294677734375,0.11975764483213425,0.1036602184176445,0.18799728155136108
1772045856911279600,4.679279541015625,0.11911315470933914,0.06336165219545364,0.144343301653862
1772045856921265700,4.689265625,0.09870374947786331,0.046648986637592316,0.10015799850225449
1772045856931250700,4.699250732421875,0.08112023770809174,0.042790502309799194,0.05036602169275284
1772045856941236500,4.709236572265625,0.07507885992527008,0.02988588809967041,0.004832092672586441
1772045856951221800,4.7192216796875,0.06260231882333755,0.0312507338821888,-0.023441294208168983
1772045856961207600,4.72920751953125,0.051043398678302765,0.03944182023406029,-0.04466988518834114
1772045856971192600,4.739192626953125,0.03720106929540634,0.048945941030979156,-0.05347837135195732
1772045856981178600,4.7491787109375,0.02191133238375187,0.04667240008711815,-0.07297510653734207
1772045856991164700,4.75916455078125,0.010559243150055408,0.0464354008436203,-0.0833447203040123
1772045857001149700,4.769149658203125,0.005665685050189495,0.05515459179878235,-0.08955574035644531
1772045857011135500,4.779135498046875,-0.0013899672776460648,0.05685187131166458,-0.09299978613853455
1772045857021120500,4.78912060546875,-0.007508846465498209,0.060307323932647705,-0.09724300354719162
1772045857031106600,4.7991064453125,-0.007264338433742523,0.0628373995423317,-0.10284320265054703
1772045857041091600,4.809091552734375,-0.0020717065781354904,0.05926316976547241,-0.10216835141181946
1772045857051077600,4.81907763671875,0.0027678487822413445,0.05725156143307686,-0.10402984172105789
1772045857061063400,4.8290634765625,0.003746560774743557,0.06979132443666458,-0.10787518322467804
1772045857071048400,4.83904833984375,0.003450692631304264,0.06364930421113968,-0.09930821508169174
1772045857081034800,4.84903466796875,0.0022312309592962265,0.06386928260326385,-0.08294149488210678
1772045857091019500,4.85901953125,-0.0006826296448707581,0.06301934272050858,-0.07179886847734451
1772045857101005600,4.869005615234375,-0.004744216799736023,0.06581912934780121,-0.06042850390076637
1772045857110990600,4.878990478515625,-0.003628186881542206,0.05852247402071953,-0.050626933574676514
1772045857120976600,4.8889765625,-0.0008624941110610962,0.05281425267457962,-0.04550887271761894
1772045857130961700,4.898961669921875,-0.001646340824663639,0.039114102721214294,-0.046170271933078766
1772045857140947500,4.908947509765625,0.002330291084945202,0.025271259248256683,-0.04856312274932861
1772045857150932500,4.918932373046875,0.005916808731853962,0.01863342896103859,-0.05634460970759392
1772045857160918500,4.92891845703125,0.01263915840536356,0.017520761117339134,-0.06121180206537247
1772045857170904600,4.938904541015625,0.01973179168999195,0.014767170883715153,-0.05897098034620285
1772045857180889600,4.9488896484375,0.019705692306160927,0.006072749383747578,-0.059010930359363556
1772045857190875600,4.958875732421875,0.017007023096084595,-0.004557208623737097,-0.05757543817162514
1772045857200860400,4.9688603515625,0.013899113051593304,-0.004825122654438019,-0.060819968581199646
1772045857210846700,4.9788466796875,0.013228117488324642,-0.011051037348806858,-0.05959000438451767
1772045857220831700,4.988831787109375,0.011998536996543407,-0.02528243698179722,-0.06441325694322586
1772045857230817500,4.998817626953125,0.013559898361563683,-0.046206746250391006,-0.05130699276924133
1772045857240802600,5.008802490234375,0.02360241301357746,-0.05567401647567749,-0.029303686693310738
1772045857250788600,5.01878857421875,0.031338486820459366,-0.04810979217290878,-0.007765148300677538
1772045857260773600,5.028773681640625,0.037945523858070374,-0.039756789803504944,0.02087848074734211
1772045857270759700,5.038759765625,0.026430368423461914,-0.04889867082238197,0.029094554483890533
1772045857280745500,5.048745361328125,0.017330346629023552,-0.0473732128739357,0.025208735838532448
1772045857290730500,5.05873046875,0.008992996998131275,-0.06122951582074165,0.012783166952431202
1772045857300716500,5.068716552734375,0.011714481748640537,-0.08071693032979965,-0.002426944673061371
1772045857310701600,5.07870166015625,0.024305419996380806,-0.09636609256267548,-0.01222737692296505
1772045857320687600,5.0886875,0.028808290138840675,-0.11855795234441757,-0.02383902482688427
1772045857330672400,5.09867236328125,0.02867954596877098,-0.13871195912361145,-0.028368962928652763
1772045857340658700,5.10865869140625,0.019260212779045105,-0.14555096626281738,-0.030135439708828926
1772045857350643700,5.118643798828125,0.01019957009702921,-0.1214747503399849,-0.02228843979537487
1772045857360629500,5.12862939453125,0.04928332567214966,-0.043546661734580994,0.006991950795054436
1772045857370615600,5.138615478515625,0.21413598954677582,0.12238631397485733,0.07094750553369522
1772045857380600300,5.148600341796875,0.29476162791252136,0.07919623702764511,0.04195606708526611
1772045857390586400,5.15858642578125,0.2790311276912689,-0.013848322443664074,-0.01562565192580223
1772045857400571400,5.1685712890625,0.20691591501235962,-0.014550331048667431,-0.059094566851854324
1772045857410557200,5.17855712890625,0.11608815938234329,0.040373727679252625,-0.08842155337333679
1772045857420542200,5.188542236328125,0.0369909405708313,0.11088251322507858,-0.09449249505996704
1772045857430528500,5.198528564453125,-0.008386875502765179,0.19797933101654053,-0.07727134227752686
1772045857440513300,5.20851318359375,-0.014852231368422508,0.265969842672348,-0.05419424921274185
1772045857450499300,5.218499267578125,-0.013221453875303268,0.27736154198646545,-0.04267052561044693
1772045857460484400,5.228484375,-0.023748129606246948,0.2497941255569458,-0.0325518436729908
1772045857470470100,5.23847021484375,-0.035388682037591934,0.21931348741054535,-0.03127143904566765
1772045857480456400,5.24845654296875,-0.03848966583609581,0.19685505330562592,-0.03929154947400093
1772045857490441200,5.258441162109375,-0.036376841366291046,0.1893550157546997,-0.0480615608394146
1772045857500427300,5.26842724609375,-0.03043878823518753,0.18586547672748566,-0.055570878088474274
1772045857510412300,5.278412353515625,-0.029603058472275734,0.17449544370174408,-0.06840768456459045
1772045857520398300,5.2883984375,-0.037565380334854126,0.1532846987247467,-0.08277171105146408
1772045857530383400,5.29838330078125,-0.04039968550205231,0.11096783727407455,-0.10208356380462646
1772045857540369200,5.308369140625,-0.046097517013549805,0.06830186396837234,-0.12499793618917465
1772045857550354200,5.318354248046875,-0.05054458975791931,0.025824664160609245,-0.14639133214950562
1772045857560340500,5.328340576171875,-0.03862401470541954,0.026069141924381256,-0.17557185888290405
1772045857570325200,5.3383251953125,-0.026439324021339417,-0.010108614340424538,-0.1839979737997055
1772045857580311300,5.348311279296875,-0.03185912221670151,-0.06898098438978195,-0.14414216578006744
1772045857590296300,5.35829638671875,-0.031136326491832733,-0.06667424738407135,-0.09143226593732834
1772045857600282000,5.3682822265625,0.007690696977078915,-0.042948417365550995,-0.035625193268060684
1772045857610267400,5.378267333984375,0.08493231236934662,-0.020610405132174492,0.026297518983483315
1772045857620253400,5.38825341796875,0.08402310311794281,-0.10135532170534134,0.0389627106487751
1772045857630238200,5.39823828125,0.03552774339914322,-0.13123410940170288,0.04149404540657997
1772045857640224300,5.408224365234375,0.024488138034939766,-0.09890814125537872,0.06765720993280411
1772045857650210300,5.418210205078125,0.05051470920443535,-0.07857098430395126,0.09862623363733292
1772045857660195300,5.4281953125,0.07310843467712402,-0.07067817449569702,0.10800482332706451
1772045857670181400,5.438181396484375,0.07738298177719116,-0.07849278301000595,0.09426255524158478
1772045857680166100,5.448166259765625,0.06884967535734177,-0.08258499205112457,0.05846966803073883
1772045857690152400,5.45815234375,0.0649186223745346,-0.08277558535337448,0.019350767135620117
1772045857700137500,5.468137451171875,0.06536203622817993,-0.09310811758041382,-0.008374870754778385
1772045857710123300,5.478123291015625,0.07216968387365341,-0.09167356789112091,-0.01554792933166027
1772045857720108300,5.4881083984375,0.07804808020591736,-0.07926003634929657,0.004241487942636013
1772045857730094000,5.498093994140625,0.07335155457258224,-0.055711131542921066,0.033394042402505875
1772045857740080400,5.508080322265625,0.052522704005241394,-0.03408413380384445,0.055845554918050766
1772045857750065400,5.5180654296875,0.035445839166641235,-0.008834391832351685,0.0669197365641594
1772045857760051200,5.52805126953125,0.013073689304292202,0.0011548595502972603,0.06120992451906204
1772045857770036200,5.5380361328125,-0.006215682718902826,0.010765965096652508,0.04245747625827789
1772045857780022300,5.548022216796875,-0.02048809453845024,0.00876033864915371,0.014652476646006107
1772045857790007300,5.55800732421875,-0.0271907988935709,0.0002452695043757558,-0.016534795984625816
1772045857799993300,5.567993408203125,-0.02057124488055706,-0.013146169483661652,-0.03912479430437088
1772045857809978400,5.577978271484375,-0.01882770285010338,-0.020258478820323944,-0.044070180505514145
1772045857819964400,5.58796435546875,-0.021809643134474754,-0.02389449253678322,-0.033839646726846695
1772045857829949400,5.597949462890625,-0.026045355945825577,-0.024483609944581985,-0.014342401176691055
1772045857839935200,5.607935302734375,-0.027183858677744865,-0.018183903768658638,0.008246798068284988
1772045857849921300,5.61792138671875,-0.023864248767495155,-0.014626646414399147,0.026755310595035553
1772045857859906300,5.62790625,-0.02418728917837143,-0.016913767904043198,0.03255833685398102
1772045857869892400,5.637892333984375,-0.021699897944927216,-0.02240973338484764,0.03456556051969528
1772045857879877400,5.64787744140625,-0.021526260301470757,-0.03209591656923294,0.026348646730184555
1772045857889863200,5.65786328125,-0.016485266387462616,-0.04605685919523239,0.01889575459063053
1772045857899848200,5.66784814453125,-0.0077295927330851555,-0.0608360730111599,0.0070990161038935184
1772045857909834500,5.67783447265625,0.0009776875376701355,-0.07363171130418777,0.011030780151486397
1772045857919819300,5.6878193359375,0.008143188431859016,-0.0815194621682167,0.021958529949188232
1772045857929805300,5.697805419921875,0.012366474606096745,-0.08305906504392624,0.035095080733299255
1772045857939791000,5.707791015625,0.01077843178063631,-0.08227556198835373,0.0481371134519577
1772045857949776400,5.7177763671875,0.0074404021725058556,-0.07449891418218613,0.06177777051925659
1772045857959762400,5.727762451171875,-0.0010926323011517525,-0.0621865838766098,0.07315879315137863
1772045857969748200,5.737748291015625,-0.013875916600227356,-0.047396864742040634,0.07731237262487411
1772045857979733200,5.747733154296875,-0.024987423792481422,-0.04147639125585556,0.07669185847043991
1772045857989719300,5.75771923828125,-0.03348800167441368,-0.03438795357942581,0.06380961090326309
1772045857999704300,5.767704345703125,-0.034598276019096375,-0.031690701842308044,0.052747905254364014
1772045858009690400,5.7776904296875,-0.03614654392004013,-0.02860080450773239,0.04068094491958618
1772045858019676200,5.78767626953125,-0.03553854674100876,-0.01715240813791752,0.02966451644897461
1772045858029661200,5.7976611328125,-0.03885411098599434,-0.013812492601573467,0.022840308025479317
1772045858039647200,5.807647216796875,-0.03544766455888748,-0.010774358175694942,0.016446856781840324
1772045858049632300,5.81763232421875,-0.034075602889060974,-0.01238876674324274,0.007371868006885052
1772045858059618300,5.827618408203125,-0.03767513111233711,-0.012216726318001747,0.00014431518502533436
1772045858069603300,5.837603271484375,-0.03858071565628052,-0.009251441806554794,-0.005321434698998928
1772045858079589400,5.84758935546875,-0.04341515153646469,-0.005979482550173998,-0.010773724876344204
1772045858089574400,5.857574462890625,-0.043521635234355927,-0.01103498600423336,-0.014194577932357788
1772045858099560200,5.867560302734375,-0.043213773518800735,-0.01596875861287117,-0.016987966373562813
1772045858109545200,5.877545166015625,-0.04075608402490616,-0.02878664620220661,-0.013308558613061905
1772045858119531500,5.887531494140625,-0.03614934906363487,-0.028849229216575623,-0.006702853366732597
1772045858129517300,5.897517333984375,-0.028076089918613434,-0.03358740732073784,-0.001818493939936161
1772045858139502300,5.90750244140625,-0.01973719894886017,-0.038131024688482285,-0.0035330369137227535
1772045858149488000,5.917488037109375,-0.01847396045923233,-0.04376375675201416,-0.0029945089481770992
1772045858159473200,5.92747314453125,-0.016388973221182823,-0.04846929758787155,-0.0005731629207730293
1772045858169459500,5.93745947265625,-0.015862885862588882,-0.04432101175189018,-0.000051571521908044815
1772045858179444200,5.9474443359375,-0.016063688322901726,-0.03899176046252251,0.003395890584215522
1772045858189430300,5.95743017578125,-0.013522963970899582,-0.038774274289608,-0.0011054840870201588
1772045858199415300,5.967415283203125,-0.007130045909434557,-0.043121088296175,-0.007721308618783951
1772045858209401300,5.9774013671875,-0.0007848953828215599,-0.04322986304759979,-0.012918241322040558
1772045858219387400,5.987387451171875,0.003104385919868946,-0.04092250019311905,-0.01407751627266407
1772045858229372200,5.9973720703125,0.003475355915725231,-0.03535690903663635,-0.01172527763992548
1772045858239358200,6.007358154296875,0.0004036659374833107,-0.03183887153863907,-0.005387220531702042
1772045858249343500,6.017343505859375,0.0020618950948119164,-0.036398760974407196,-0.0075903041288256645
1772045858259329300,6.027329345703125,0.005435586906969547,-0.0384235605597496,-0.009315232746303082
1772045858269314300,6.037314208984375,0.010509719140827656,-0.049214545637369156,-0.011449785903096199
1772045858279300000,6.047300048828125,0.01529249083250761,-0.04911574348807335,-0.0144578255712986
1772045858289285000,6.05728515625,0.01565953530371189,-0.05205291882157326,-0.012696215882897377
1772045858299271400,6.067271484375,0.014061106368899345,-0.05008856952190399,-0.006004491355270147
1772045858309257200,6.07725732421875,0.006575088016688824,-0.04435992240905762,0.006662501022219658
1772045858319242200,6.0872421875,-0.005609139334410429,-0.035962969064712524,0.012959545478224754
1772045858329228300,6.097228271484375,-0.017533406615257263,-0.02445508912205696,0.015681300312280655
1772045858339213300,6.10721337890625,-0.027544228360056877,-0.009869754314422607,0.013210154138505459
1772045858349199400,6.117199462890625,-0.03463460132479668,-0.00151561270467937,0.005912189371883869
1772045858359184400,6.127184326171875,-0.03905970975756645,-0.002166222780942917,0.0011102438438683748
1772045858369170200,6.137170166015625,-0.049310747534036636,-0.002750520361587405,-0.012529668398201466
1772045858379155200,6.1471552734375,-0.05529966577887535,-0.003995814360678196,-0.01770392246544361
1772045858389141000,6.15714111328125,-0.0581543892621994,0.0008204387850128114,-0.020340967923402786
1772045858399126000,6.1671259765625,-0.05295483395457268,0.006914549972862005,-0.018469298258423805
1772045858409112000,6.177112060546875,-0.04559427499771118,0.01706879585981369,-0.011985155753791332
1772045858419098000,6.18709814453125,-0.0441279411315918,0.008595949038863182,-0.013639245182275772
1772045858429083100,6.197083251953125,-0.05210011452436447,-0.002498779445886612,-0.026637600734829903
1772045858439069000,6.20706884765625,-0.05510468780994415,0.008067045360803604,-0.03168349340558052
1772045858449054000,6.217053955078125,-0.04718293249607086,0.009553282521665096,-0.03002139739692211
1772045858459040300,6.227040283203125,-0.034253817051649094,-0.0006309114978648722,-0.029305538162589073
1772045858469025000,6.23702490234375,-0.026321597397327423,-0.008810686878859997,-0.024978939443826675
1772045858479011000,6.247010986328125,-0.019113752990961075,-0.01481638103723526,-0.016893582418560982
1772045858488996000,6.25699609375,-0.011456646025180817,-0.022468876093626022,-0.013047261163592339
1772045858498982000,6.26698193359375,-0.007422756403684616,-0.019776154309511185,-0.0025219167582690716
1772045858508968200,6.27696826171875,-0.004090649075806141,-0.018766384571790695,0.005555714480578899
1772045858518953000,6.286952880859375,-0.0018972698599100113,-0.013925556093454361,0.006441747769713402
1772045858528939000,6.29693896484375,-0.004462160170078278,-0.012666679918766022,-0.00035277497954666615
1772045858538924000,6.306924072265625,-0.0003353264182806015,-0.011244552209973335,-0.005267638713121414
1772045858548910000,6.31691015625,-0.002026323229074478,-0.010227078571915627,-0.013852194882929325
1772045858558895000,6.32689501953125,0.005530129186809063,-0.008777519688010216,-0.021029679104685783
1772045858568881200,6.336881103515625,0.007197159342467785,-0.0024851488415151834,-0.023146770894527435
1772045858578866000,6.346865966796875,0.01675284653902054,0.004096320830285549,-0.023377932608127594
1772045858588852000,6.35685205078125,0.02441137284040451,0.011254413053393364,-0.02319483458995819
1772045858598838000,6.366838134765625,0.02837895229458809,0.012348972260951996,-0.019535651430487633
1772045858608823000,6.376822998046875,0.030483055859804153,0.00980350375175476,-0.01647784374654293
1772045858618809000,6.38680908203125,0.02852483093738556,-0.0007444785442203283,-0.017335647717118263
1772045858628793900,6.3967939453125,0.03038359433412552,-0.010795955546200275,-0.01595211774110794
1772045858638780200,6.4067802734375,0.03352372720837593,-0.01728794351220131,-0.012203985825181007
1772045858648765200,6.41676513671875,0.0312860906124115,-0.025761298835277557,-0.006679235957562923
1772045858658751000,6.4267509765625,0.030121490359306335,-0.029187455773353577,-0.0056999921798706055
1772045858668736000,6.436736083984375,0.02937297709286213,-0.029757659882307053,-0.003764609806239605
1772045858678722000,6.44672216796875,0.026476522907614708,-0.024643059819936752,-0.006865595001727343
1772045858688707000,6.45670703125,0.02430718205869198,-0.026393508538603783,-0.010192275047302246
1772045858698693000,6.466693115234375,0.027835605666041374,-0.03082953579723835,-0.009121151641011238
1772045858708679000,6.476678955078125,0.031196163967251778,-0.031086213886737823,-0.009072638116776943
1772045858718664000,6.486663818359375,0.028012888506054878,-0.030564766377210617,-0.00781509280204773
1772045858728650000,6.49664990234375,0.027381347492337227,-0.02806059829890728,-0.010964186862111092
1772045858738635000,6.506635009765625,0.022072335705161095,-0.027002790942788124,-0.018026091158390045
1772045858748621000,6.51662109375,0.023016519844532013,-0.027179116383194923,-0.018144803121685982
1772045858758606000,6.526606201171875,0.01916106417775154,-0.024170277640223503,-0.01957705058157444
1772045858768592100,6.536592041015625,0.019923198968172073,-0.03213167563080788,-0.018809853121638298
1772045858778577200,6.5465771484375,0.017421426251530647,-0.03197268396615982,-0.02344641648232937
1772045858788563000,6.55656298828125,0.013648051768541336,-0.02710188552737236,-0.018642015755176544
1772045858798549000,6.566549072265625,0.012358549982309341,-0.016125932335853577,-0.01909368671476841
1772045858808534300,6.5765341796875,0.008389374241232872,-0.013473691418766975,-0.01759912073612213
1772045858818520000,6.58652001953125,0.0074450187385082245,-0.015876129269599915,-0.021548323333263397
1772045858828505000,6.596505126953125,0.008092163130640984,-0.014892765320837498,-0.025504423305392265
1772045858838491000,6.606490966796875,0.010218430310487747,-0.015637651085853577,-0.02745758555829525
1772045858848476000,6.616475830078125,0.006673537194728851,-0.012554536573588848,-0.022019965574145317
1772045858858462200,6.626462158203125,0.00230542104691267,-0.001372987637296319,-0.01564755290746689
1772045858868447000,6.636447021484375,-0.006102858576923609,0.00739309610798955,-0.014635168015956879
1772045858878433000,6.64643310546875,-0.013245190493762493,0.01487711165100336,-0.01326017826795578
1772045858888419000,6.656419189453125,-0.021271973848342896,0.02169276960194111,-0.01569279097020626
1772045858898404000,6.666404052734375,-0.0337962880730629,0.0320894829928875,-0.02140447311103344
1772045858908390100,6.67639013671875,-0.040623825043439865,0.04070829972624779,-0.02235058695077896
1772045858918375000,6.686375,-0.039787858724594116,0.04662131518125534,-0.029239919036626816
1772045858928361000,6.69636083984375,-0.039581455290317535,0.046093884855508804,-0.03328581899404526
1772045858938346200,6.70634619140625,-0.037894874811172485,0.039596036076545715,-0.03774155303835869
1772045858948332000,6.71633203125,-0.029323462396860123,0.027103489264845848,-0.03437675163149834
1772045858958317000,6.726317138671875,-0.021105747669935226,0.017111841589212418,-0.02622082456946373
1772045858968302800,6.736302734375,-0.016426004469394684,0.007338404655456543,-0.01125358510762453
1772045858978287900,6.746287841796875,-0.017766905948519707,0.006720817647874355,0.0010616704821586609
1772045858988274200,6.756274169921875,-0.025171659886837006,0.0006010217475704849,0.012197108939290047
1772045858998260000,6.766260009765625,-0.02206401713192463,-0.00957837887108326,0.014309793710708618
1772045859008245000,6.776244873046875,-0.022327108308672905,-0.017857808619737625,0.011393529362976551
1772045859018231000,6.78623095703125,-0.014488892629742622,-0.01872493326663971,0.009275783784687519
1772045859028216000,6.796216064453125,-0.011488995514810085,-0.024120885878801346,0.004153870046138763
1772045859038202000,6.8062021484375,-0.009181899018585682,-0.024554714560508728,-0.0030720848590135574
1772045859048187100,6.816187255859375,-0.0040015894919633865,-0.028315270319581032,-0.001072749262675643
1772045859058173000,6.8261728515625,0.00010766740888357162,-0.028347227722406387,0.0003943860065191984
1772045859068158200,6.836158203125,0.003146771341562271,-0.02596127800643444,0.007754501421004534
1772045859078144000,6.84614404296875,0.0054932814091444016,-0.021710606291890144,0.01427897997200489
1772045859088130000,6.856130126953125,0.006885006092488766,-0.02042427286505699,0.01336820051074028
1772045859098115000,6.866114990234375,0.008163324557244778,-0.015448157675564289,0.010203832760453224
1772045859108101000,6.87610107421875,0.008889582939445972,-0.01292863767594099,0.004298620857298374
1772045859118086100,6.886086181640625,0.013254503719508648,-0.007057965733110905,-0.002761152572929859
1772045859128072000,6.896072021484375,0.01727382093667984,-0.01120978593826294,-0.007962965406477451
1772045859138057000,6.906056884765625,0.022008653730154037,-0.009257955476641655,-0.015037120319902897
1772045859148043300,6.916043212890625,0.025170721113681793,-0.009451058693230152,-0.016114838421344757
1772045859158028000,6.926028076171875,0.025441300123929977,-0.012610366567969322,-0.01038744393736124
1772045859168014000,6.93601416015625,0.027078676968812943,-0.01890644058585167,-0.010462644509971142
1772045859177999000,6.9459990234375,0.024821914732456207,-0.023638345301151276,-0.006822103634476662
1772045859187985000,6.95598486328125,0.01881699077785015,-0.029664618894457817,-0.0003417304251343012
1772045859197971200,6.96597119140625,0.014067510142922401,-0.03911138325929642,-0.0020440227817744017
1772045859207956000,6.9759560546875,0.011293464340269566,-0.05266791582107544,0.00017539295367896557
1772045859217942000,6.98594189453125,0.0065415846183896065,-0.05713004246354103,0.004776003770530224
1772045859227927000,6.995927001953125,0.00093858502805233,-0.06689553707838058,0.011306126601994038
1772045859237913000,7.0059130859375,-0.0030961045995354652,-0.06930303573608398,0.02379661798477173
1772045859247898000,7.015898193359375,-0.010734770447015762,-0.06518971174955368,0.035346195101737976
1772045859257884000,7.0258837890625,-0.02088993601500988,-0.05695255845785141,0.04325791448354721
1772045859267869000,7.035868896484375,-0.029733387753367424,-0.04970662295818329,0.044316425919532776
1772045859277855200,7.045855224609375,-0.038701582700014114,-0.04665437713265419,0.03617860749363899
1772045859287841000,7.055841064453125,-0.04540682211518288,-0.04376479610800743,0.019112680107355118
1772045859297826000,7.065825927734375,-0.05390496924519539,-0.049083396792411804,0.0013264925219118595
1772045859307812000,7.07581201171875,-0.056092679500579834,-0.06522929668426514,-0.007049009203910828
1772045859317796900,7.085796875,-0.06337935477495193,-0.06756488978862762,-0.006336879916489124
1772045859327783200,7.095783203125,-0.07985569536685944,-0.04617970436811447,-0.0030722073279321194
1772045859337768200,7.105768310546875,-0.08544646948575974,-0.04767240583896637,0.001243711682036519
1772045859347754000,7.11575390625,-0.07917208224534988,-0.05428842455148697,0.002274699741974473
1772045859357739000,7.125739013671875,-0.0598420649766922,-0.042163316160440445,0.0005071598570793867
1772045859367725000,7.13572509765625,0.026141177862882614,0.025897344574332237,-0.0332149975001812
1772045859377711000,7.145711181640625,0.301078200340271,0.2764936089515686,0.054899148643016815
1772045859387696400,7.1556962890625,0.47211000323295593,0.1333644539117813,0.10061493515968323
1772045859397682400,7.165682373046875,0.4994356036186218,-0.1255776286125183,0.10369327664375305
1772045859407667700,7.175667724609375,0.4428673982620239,-0.26204392313957214,0.09243912994861603
1772045859417653500,7.185653564453125,0.36343914270401,-0.2859777510166168,0.08580226451158524
1772045859427638500,7.195638427734375,0.302256315946579,-0.22922144830226898,0.10492720454931259
1772045859437624600,7.20562451171875,0.26033470034599304,-0.15395227074623108,0.14800730347633362
1772045859447609600,7.215609619140625,0.20927666127681732,-0.08423859626054764,0.18958422541618347
1772045859457595600,7.225595703125,0.13832685351371765,-0.04972909390926361,0.1963912695646286
1772045859467580700,7.23558056640625,0.04548242688179016,-0.05839267000555992,0.15728677809238434
1772045859477566500,7.24556640625,-0.041806675493717194,-0.12290029227733612,0.09868258982896805
1772045859487552800,7.255552734375,-0.07013464719057083,-0.18490611016750336,0.055339936167001724
1772045859497537500,7.26553759765625,-0.060480158776044846,-0.19996309280395508,0.0570419616997242
1772045859507523600,7.275523681640625,-0.045293789356946945,-0.1935805231332779,0.09732187539339066
1772045859517508600,7.285508544921875,-0.04791966453194618,-0.17951397597789764,0.1387617290019989
1772045859527494400,7.295494384765625,-0.060591477900743484,-0.1749085783958435,0.13786423206329346
1772045859537479700,7.305479736328125,-0.06312307715415955,-0.18954958021640778,0.11658982187509537
1772045859547465500,7.315465576171875,-0.04905650019645691,-0.1966427117586136,0.10089413821697235
1772045859557450500,7.325450439453125,-0.014136066660284996,-0.18238680064678192,0.09300132840871811
1772045859567436500,7.3354365234375,0.007296745665371418,-0.16808053851127625,0.09054511040449142
1772045859577421600,7.345421630859375,0.010639012791216373,-0.18528376519680023,0.0708789974451065
1772045859587407600,7.35540771484375,0.005472310818731785,-0.21466177701950073,0.04674254730343819
1772045859597393400,7.365393310546875,0.0076361289247870445,-0.24443458020687103,0.02925782836973667
1772045859607378400,7.37537841796875,0.023216258734464645,-0.2690359652042389,0.01409169565886259
1772045859617364700,7.38536474609375,0.04664914682507515,-0.32051777839660645,-0.0025301577989012003
1772045859627349500,7.395349609375,0.0794980600476265,-0.35530856251716614,-0.009122131392359734
1772045859637335600,7.40533544921875,0.11640413850545883,-0.36460885405540466,-0.0076422132551670074
1772045859647320600,7.415320556640625,0.22502535581588745,-0.3308963179588318,0.012910299934446812
1772045859657306400,7.425306396484375,0.2913854718208313,-0.3209201395511627,0.03729740157723427
1772045859667291600,7.435291748046875,0.32383954524993896,-0.334035724401474,0.05635428428649902
1772045859677277400,7.44527734375,0.34606388211250305,-0.29320308566093445,0.06924078613519669
1772045859687263500,7.455263427734375,0.38253381848335266,-0.23642271757125854,0.07670819014310837
1772045859697248500,7.46524853515625,0.43855953216552734,-0.18067103624343872,0.08100759983062744
1772045859707234600,7.475234619140625,0.4818926751613617,-0.1458420753479004,0.07888272404670715
1772045859717219600,7.485219482421875,0.49571555852890015,-0.10190363973379135,0.06100811809301376
1772045859727205600,7.49520556640625,0.43996280431747437,-0.026324458420276642,0.02229507640004158
1772045859737190400,7.5051904296875,0.3605364263057709,0.03554610162973404,-0.02734731137752533
1772045859747176700,7.5151767578125,0.25914162397384644,0.08373779058456421,-0.08194299042224884
1772045859757161700,7.52516162109375,0.15137124061584473,0.11021733283996582,-0.12634320557117462
1772045859767147500,7.5351474609375,0.019598670303821564,0.10087339580059052,-0.14901165664196014
1772045859777133600,7.545133544921875,-0.13062171638011932,0.08392823487520218,-0.15672123432159424
1772045859787118300,7.555118408203125,-0.21343666315078735,0.1236744150519371,-0.16125793755054474
1772045859797104600,7.565104736328125,-0.24818266928195953,0.13529378175735474,-0.17422565817832947
1772045859807089700,7.575089599609375,-0.24476955831050873,0.0664522796869278,-0.1867033988237381
1772045859817075500,7.585075439453125,-0.19809286296367645,-0.03491216152906418,-0.1950657218694687
1772045859827060500,7.595060546875,-0.08266519010066986,-0.1254412829875946,-0.15336740016937256
1772045859837046500,7.605046630859375,0.06956243515014648,-0.2302960604429245,-0.06994494050741196
1772045859847031600,7.615031494140625,0.1303083300590515,-0.3599643111228943,0.016884390264749527
1772045859857017600,7.625017578125,0.10182821750640869,-0.4689294099807739,0.07393249869346619
1772045859867002400,7.63500244140625,0.04475646838545799,-0.5251914858818054,0.08855970203876495
1772045859876988700,7.64498876953125,0.008131611160933971,-0.5484435558319092,0.08089139312505722
1772045859886974500,7.654974365234375,0.0011330004781484604,-0.5724327564239502,0.07229182869195938
1772045859896959500,7.66495947265625,0.018188416957855225,-0.6091026067733765,0.05357273668050766
1772045859906945500,7.674945556640625,0.03781527280807495,-0.6691649556159973,0.017022036015987396
1772045859916930600,7.6849306640625,0.05788591504096985,-0.7146573662757874,-0.019610276445746422
1772045859926916600,7.69491650390625,0.08072783797979355,-0.7125435471534729,-0.04381369799375534
1772045859936901600,7.704901611328125,0.09239567816257477,-0.7002162933349609,-0.055878084152936935
1772045859946887400,7.714887451171875,0.08884567022323608,-0.6669593453407288,-0.05177900567650795
1772045859956872400,7.72487255859375,0.07262542098760605,-0.61858731508255,-0.042475782334804535
1772045859966858800,7.734858642578125,0.03398904204368591,-0.5615242123603821,-0.03921370953321457
1772045859976844500,7.744844482421875,-0.013375278562307358,-0.5061786770820618,-0.05496177822351456
1772045859986829600,7.75482958984375,-0.045490287244319916,-0.44813215732574463,-0.07399823516607285
1772045859996815400,7.7648154296875,-0.058002352714538574,-0.3896874785423279,-0.09586172550916672
1772045860006800600,7.774800537109375,-0.05203356593847275,-0.36591649055480957,-0.11664994806051254
1772045860016786700,7.78478662109375,-0.035215966403484344,-0.3286447525024414,-0.13239030539989471
1772045860026771500,7.794771484375,-0.038137733936309814,-0.3002193868160248,-0.14255379140377045
1772045860036757500,7.804757568359375,-0.07259770482778549,-0.25873345136642456,-0.1345169097185135
1772045860046742500,7.814742431640625,-0.12540005147457123,-0.19650046527385712,-0.12250085175037384
1772045860056728600,7.824728515625,-0.13364624977111816,-0.16315396130084991,-0.1177215427160263
1772045860066713600,7.834713623046875,-0.09696833044290543,-0.16145548224449158,-0.13109955191612244
1772045860076699400,7.844699462890625,0.007647291757166386,-0.21042568981647491,-0.14255699515342712
1772045860086685700,7.854685791015625,0.0517033189535141,-0.25484389066696167,-0.17198826372623444
1772045860096670700,7.864670654296875,0.038332123309373856,-0.26129353046417236,-0.19563926756381989
1772045860106656500,7.874656494140625,-0.00005244370549917221,-0.21365118026733398,-0.18091367185115814
1772045860116641500,7.8846416015625,-0.02389918640255928,-0.1569996178150177,-0.12773273885250092
1772045860126627300,7.89462744140625,0.0023727454245090485,-0.13982567191123962,-0.041954342275857925
1772045860136612600,7.904612548828125,0.0773569718003273,-0.17593173682689667,0.028510767966508865
1772045860146598700,7.9145986328125,0.09334910660982132,-0.20621174573898315,0.05090596526861191
1772045860156583400,7.92458349609375,0.06256935000419617,-0.20315097272396088,0.05285939201712608
1772045860166569500,7.934569580078125,0.03722570091485977,-0.16303391754627228,0.043642014265060425
1772045860176555500,7.944555419921875,0.012176807038486004,-0.11777960509061813,0.0300750732421875
1772045860186540500,7.95454052734375,0.056795284152030945,-0.11139753460884094,0.019913576543331146
1772045860196526600,7.964526611328125,0.0944739505648613,-0.10662515461444855,-0.0049747284501791
1772045860206511600,7.97451171875,0.0634569525718689,-0.09979097545146942,-0.04595094174146652
1772045860216497700,7.98449755859375,0.0009520314633846283,-0.06865036487579346,-0.08043409138917923
1772045860226482700,7.994482666015625,-0.05827312543988228,-0.011066216044127941,-0.09760086238384247
1772045860236468500,8.004468505859375,-0.05780866742134094,0.02688995562493801,-0.1066843718290329
1772045860246453500,8.01445361328125,-0.03620639443397522,0.05764903500676155,-0.11333082616329193
1772045860256439600,8.024439453125,0.00946175679564476,0.059532422572374344,-0.1255297064781189
1772045860266424600,8.034424560546874,-0.05638986825942993,0.11382719874382019,-0.14051499962806702
1772045860276410600,8.04441064453125,-0.10081484913825989,0.1249949038028717,-0.14822697639465332
1772045860286396400,8.054396484375,-0.11960329860448837,0.13094797730445862,-0.15205755829811096
1772045860296381400,8.06438134765625,-0.13076487183570862,0.040145911276340485,-0.1494082361459732
1772045860306367700,8.07436767578125,-0.12241042405366898,0.05197049304842949,-0.12425000965595245
1772045860316352500,8.0843525390625,-0.03729579970240593,0.012510434724390507,-0.11958148330450058
1772045860326338600,8.094338623046875,-0.028709234669804573,-0.005433678161352873,-0.12698693573474884
1772045860336323600,8.104323486328125,-0.08383294194936752,0.022802220657467842,-0.12464176118373871
1772045860346309600,8.1143095703125,-0.08424952626228333,0.024009259417653084,-0.10979240387678146
1772045860356294700,8.124294677734374,-0.032496850937604904,0.023167435079813004,-0.07663578540086746
1772045860366280400,8.134280517578125,-0.0013158880174160004,0.025878218933939934,-0.05645165219902992
1772045860376265500,8.144265380859375,0.0073132868856191635,0.019755344837903976,-0.057002391666173935
1772045860386252000,8.154251953125,0.00917267706245184,0.013829207047820091,-0.07191891968250275
1772045860396237800,8.16423779296875,0.002988816238939762,0.03198264539241791,-0.07940373569726944
1772045860406222800,8.174222900390625,0.0029893340542912483,0.046702831983566284,-0.07524875551462173
1772045860416209000,8.184208984375,-0.0025204792618751526,0.07732892036437988,-0.07290597259998322
1772045860426194000,8.19419384765625,-0.006794607266783714,0.07476302981376648,-0.05942630022764206
1772045860436180000,8.204179931640626,-0.011800550855696201,0.0837344229221344,-0.0397585928440094
1772045860446164700,8.214164794921874,-0.012777600437402725,0.09305965155363083,-0.0327436588704586
1772045860456151000,8.224151123046875,-0.012156818062067032,0.10207551717758179,-0.042564332485198975
1772045860466136000,8.234135986328125,-0.007628029212355614,0.10879820585250854,-0.07493853569030762
1772045860476121900,8.244121826171876,-0.003990683704614639,0.09606803208589554,-0.09561850875616074
1772045860486108000,8.25410791015625,-0.009901164099574089,0.09907761961221695,-0.11963272839784622
1772045860496093000,8.264093017578125,-0.011360043659806252,0.09328924119472504,-0.12436782568693161
1772045860506079000,8.274078857421875,-0.013202839531004429,0.08592760562896729,-0.11684345453977585
1772045860516064000,8.28406396484375,-0.01594722643494606,0.06624098867177963,-0.09600421786308289
1772045860526049800,8.2940498046875,-0.023108607158064842,0.08243519067764282,-0.10078170150518417
1772045860536034800,8.304034912109374,-0.021550390869379044,0.06811084598302841,-0.09247077256441116
1772045860546020900,8.314020751953125,-0.01950083114206791,0.06419757008552551,-0.0823490098118782
1772045860556006000,8.324005859375,-0.02221805416047573,0.09277275204658508,-0.10189341753721237
1772045860565992000,8.333991943359376,-0.023304341360926628,0.04949735850095749,-0.11815113574266434
1772045860575977000,8.34397705078125,-0.022985294461250305,0.013137485831975937,-0.11537691950798035
1772045860585963000,8.353962890625,-0.014556953683495522,0.04673292115330696,-0.10564828664064407
1772045860595949000,8.363948974609375,-0.0008009281009435654,0.0568433478474617,-0.08592385053634644
1772045860605933800,8.373933837890625,0.0056574298068881035,0.10939252376556396,-0.11540225148200989
1772045860615919900,8.383919921875,0.015608596615493298,0.07797148823738098,-0.10999870300292969
1772045860625905200,8.3939052734375,0.019463619217276573,0.07583321630954742,-0.10665610432624817
1772045860635891000,8.403890869140625,0.019902775064110756,0.06566978991031647,-0.103268563747406
1772045860645876000,8.4138759765625,0.023771988227963448,0.08686817437410355,-0.10521271079778671
1772045860655861800,8.42386181640625,0.02679094858467579,0.13640031218528748,-0.15367506444454193
1772045860665846800,8.4338466796875,0.028380854055285454,0.10502800345420837,-0.180848628282547
1772045860675833000,8.4438330078125,0.031640298664569855,0.11042223870754242,-0.19301047921180725
1772045860685817900,8.45381787109375,0.03614452853798866,0.11464474350214005,-0.16668763756752014
1772045860695804000,8.463803955078125,0.04359978064894676,0.10189459472894669,-0.1277753859758377
1772045860705789700,8.473789794921874,0.038206204771995544,0.09799724817276001,-0.07399716973304749
1772045860715775000,8.48377490234375,0.024000637233257294,0.10426846146583557,-0.04416044056415558
1772045860725761000,8.493760986328125,0.015719357877969742,0.0915314331650734,-0.044615861028432846
1772045860735745800,8.503745849609375,0.018091700971126556,0.07560785859823227,-0.058998528867959976
1772045860745731800,8.51373193359375,0.025108976289629936,0.07136239856481552,-0.08997467160224915
1772045860755717000,8.523717041015624,0.03674379736185074,0.06017525494098663,-0.10764075070619583
1772045860765703000,8.533702880859375,0.04435107111930847,0.05010959878563881,-0.10964875668287277
1772045860775688000,8.54368798828125,0.03552163019776344,0.05563752353191376,-0.1167314350605011
1772045860785674000,8.553674072265625,0.025514166802167892,0.02826237864792347,-0.09650372713804245
1772045860795658800,8.56365869140625,0.012853766791522503,0.03534345701336861,-0.07778303325176239
1772045860805645000,8.57364501953125,0.07226639240980148,-0.003485939698293805,-0.06567928940057755
1772045860815630800,8.583630859375,0.025542564690113068,0.047303207218647,-0.08586391806602478
1772045860825616000,8.593615966796875,-0.007374553009867668,0.12743300199508667,-0.14545217156410217
1772045860835602000,8.603601806640626,0.006888272240757942,0.0797584280371666,-0.18436868488788605
1772045860845587000,8.6135869140625,0.016717862337827682,0.11002570390701294,-0.21980850398540497
1772045860855573000,8.623572998046875,0.014591327868402004,0.1141461506485939,-0.21534717082977295
1772045860865558000,8.63355810546875,0.005738221108913422,0.10546567291021347,-0.20835264027118683
1772045860875543800,8.643543701171875,-0.0006797313690185547,0.08677028119564056,-0.1585264950990677
1772045860885528800,8.65352880859375,0.0017114980146288872,0.10871533304452896,-0.13740408420562744
1772045860895515000,8.663514892578124,0.0065472666174173355,0.1006331741809845,-0.12836851179599762
1772045860905500000,8.6735,0.004218916408717632,0.14020588994026184,-0.1522417962551117
1772045860915486000,8.68348583984375,0.005927068181335926,0.11920659244060516,-0.1545661985874176
1772045860925472000,8.693471923828126,0.016984079033136368,0.1559925377368927,-0.16696901619434357
1772045860935457000,8.70345703125,0.020452313125133514,0.1435406655073166,-0.13441987335681915
1772045860945442800,8.71344287109375,0.02139526791870594,0.1268703043460846,-0.0952310636639595
1772045860955427800,8.723427734375,0.01832490973174572,0.09679043292999268,-0.07921747118234634
1772045860965414000,8.733413818359375,0.020092995837330818,0.12209929525852203,-0.07039622962474823
1772045860975399000,8.74339892578125,0.024155916646122932,0.15647271275520325,-0.10294938087463379
1772045860985385000,8.753385009765625,0.03343459218740463,0.11587696522474289,-0.11956213414669037
1772045860995370000,8.763369873046875,0.0496031790971756,0.08225296437740326,-0.10942001640796661
1772045861005355800,8.773355712890625,0.05861314386129379,0.06021067500114441,-0.09885258972644806
1772045861015342000,8.783342041015626,0.06048960238695145,0.04234592616558075,-0.07242657244205475
1772045861025326800,8.793326904296874,0.052174195647239685,0.03116820752620697,-0.04145534336566925
1772045861035313000,8.80331298828125,0.04306218773126602,0.023986460641026497,-0.006960217375308275
1772045861045298000,8.8132978515625,0.039157964289188385,0.018186695873737335,0.020872825756669044
1772045861055284000,8.823283935546876,0.029627574607729912,0.01153598353266716,0.025688620284199715
1772045861065269000,8.83326904296875,0.03178725019097328,0.0041934046894311905,0.014365775510668755
1772045861075255000,8.843255126953125,0.039933059364557266,-0.0019427845254540443,-0.006919006817042828
1772045861085239800,8.85323974609375,0.03641830012202263,-0.010610642842948437,-0.017934633418917656
1772045861095225900,8.863225830078125,0.02642691880464554,-0.007048132363706827,-0.022986650466918945
1772045861105211100,8.873211181640626,0.016984442248940468,-0.007012907415628433,-0.023544950410723686
1772045861115197000,8.883197021484374,0.016310131177306175,-0.005801701452583075,-0.032020196318626404
1772045861125183000,8.893182861328125,0.021107127889990807,-0.006152418442070484,-0.047789186239242554
1772045861135167700,8.903167724609375,0.027403106912970543,-0.005203002132475376,-0.060980625450611115
1772045861145154000,8.913154052734376,0.029028436169028282,0.004918874241411686,-0.07689753919839859
1772045861155139000,8.92313916015625,0.025628911331295967,0.03048788383603096,-0.10241275280714035
1772045861165124900,8.933124755859374,0.02333834022283554,0.045439161360263824,-0.10899331420660019
1772045861175110000,8.94310986328125,0.018980342894792557,0.03364136070013046,-0.07565053552389145
1772045861185096000,8.953095947265625,0.016622813418507576,0.03616312891244888,-0.052567385137081146
1772045861195081000,8.9630810546875,0.022023173049092293,0.03898501396179199,-0.03719402104616165
1772045861205067000,8.97306689453125,0.029340824112296104,0.04202789440751076,-0.032090384513139725
1772045861215052800,8.983052734375,0.03146016597747803,0.05571281537413597,-0.027443166822195053
1772045861225037800,8.993037841796875,0.032008666545152664,0.0704154446721077,-0.021013641729950905
1772045861235024000,9.00302392578125,0.030021417886018753,0.06639513373374939,-0.02044851891696453
1772045861245009000,9.0130087890625,0.032843172550201416,0.057175882160663605,-0.02472229301929474
1772045861254995000,9.022994873046875,0.03527596965432167,0.04199373349547386,-0.034760016947984695
1772045861264979700,9.032979736328125,0.024887021631002426,0.03440237045288086,-0.03067075088620186
1772045861274966000,9.042966064453125,0.007952247746288776,0.026621676981449127,-0.005004536360502243
1772045861284951000,9.052950927734376,-0.0012717228382825851,0.02898721769452095,0.022065019235014915
1772045861294936800,9.062936767578124,-0.005550890229642391,0.02759598381817341,0.04081660509109497
1772045861304921900,9.072921875,-0.007373390719294548,0.026611143723130226,0.03923424333333969
1772045861314908000,9.082907958984375,-0.0026958147063851357,0.028947003185749054,0.023067791014909744
1772045861324894000,9.09289404296875,-0.0010749706998467445,0.029563914984464645,-0.0030081691220402718
1772045861334879000,9.10287890625,-0.0016065370291471481,0.010689559392631054,-0.03366728127002716
1772045861344864800,9.11286474609375,-0.00817808322608471,-0.0008978078840300441,-0.04641808569431305
1772045861354849800,9.122849853515625,-0.016382750123739243,0.0030687041580677032,-0.03397819399833679
1772045861364836000,9.132836181640625,-0.024269044399261475,0.010066208429634571,-0.009226815775036812
1772045861374820900,9.14282080078125,-0.031178880482912064,0.01959233544766903,0.019652502611279488
1772045861384806400,9.152806396484374,-0.0302390418946743,0.021722476929426193,0.027633966878056526
1772045861394791400,9.16279150390625,-0.02494361251592636,0.025047432631254196,0.026772169396281242
1772045861404777500,9.172777587890625,-0.026811756193637848,0.028473759070038795,0.016899732872843742
1772045861414763500,9.182763427734375,-0.030454427003860474,0.030095623806118965,0.017632368952035904
1772045861424748500,9.19274853515625,-0.03536302596330643,0.04341697320342064,0.018115505576133728
1772045861434734300,9.202734375,-0.03698355704545975,0.04389660805463791,0.01267946232110262
1772045861444719400,9.21271923828125,-0.03311063349246979,0.041831716895103455,-0.005979321897029877
1772045861454705400,9.222705322265625,-0.025932615622878075,0.04196913540363312,-0.023194260895252228
1772045861464690400,9.2326904296875,-0.015412812121212482,0.03229174017906189,-0.038667671382427216
1772045861474676500,9.242676513671874,-0.013074290938675404,0.021138153970241547,-0.05002392455935478
1772045861484661200,9.2526611328125,-0.014673036523163319,0.02140979655086994,-0.03993968665599823
1772045861494647600,9.2626474609375,-0.015394221059978008,0.0115648889914155,-0.03312785178422928
1772045861504633300,9.27263330078125,-0.021146755665540695,0.001197882229462266,-0.024312824010849
1772045861514618400,9.282618408203126,-0.030842524021863937,-0.044940847903490067,-0.01817956380546093
1772045861524604400,9.2926044921875,-0.03480805456638336,-0.019420383498072624,-0.026276355609297752
1772045861534589400,9.30258935546875,-0.03144261613488197,0.0030961099546402693,-0.033142250031232834
1772045861544575500,9.312575439453125,-0.03804308921098709,-0.016174765303730965,-0.048838719725608826
1772045861554560500,9.322560546875,-0.04075711965560913,-0.0053977519273757935,-0.04225591570138931
1772045861564545300,9.332545166015626,-0.030411474406719208,0.008944048546254635,-0.030642611905932426
1772045861574531300,9.34253125,-0.027138713747262955,0.005060094874352217,-0.027700087055563927
1772045861584516600,9.3525166015625,-0.01920965313911438,-0.00014762027421966195,-0.029478274285793304
1772045861594502400,9.36250244140625,-0.014188261702656746,-0.005415086634457111,-0.02759195677936077
1772045861604488400,9.372488525390626,-0.007923740893602371,-0.009049865417182446,-0.020090637728571892
1772045861614473200,9.38247314453125,-0.011214875616133213,-0.009482363238930702,-0.0057244813069701195
1772045861624459500,9.39245947265625,-0.013284104876220226,-0.0075483983382582664,0.004431725014001131
1772045861634444500,9.402444580078125,-0.012049729004502296,-0.0030114371329545975,0.006865588016808033
1772045861644430300,9.412430419921876,-0.009497575461864471,0.006563690956681967,-0.005024804268032312
1772045861654415400,9.422415283203126,-0.004849826917052269,0.013564875349402428,-0.01908816024661064
1772045861664401400,9.4324013671875,0.0010997531935572624,0.011162486858665943,-0.025138724595308304
1772045861674387500,9.442387451171875,0.0037187058478593826,0.0177341029047966,-0.0208387840539217
1772045861684372500,9.45237255859375,0.010952509008347988,0.027083709836006165,-0.015692532062530518
1772045861694358300,9.462358154296876,0.01469824556261301,0.029607057571411133,-0.006886524148285389
1772045861704343300,9.47234326171875,0.01044600922614336,0.01615792140364647,-0.0023122706916183233
1772045861714329600,9.48232958984375,0.011634577997028828,0.011220688000321388,0.0008030952885746956
1772045861724314400,9.492314453125,0.013731800019741058,0.014088453724980354,0.009419559501111507
1772045861734300400,9.502300537109376,0.01445990800857544,0.018064286559820175,0.017198918387293816
1772045861744286500,9.512286376953124,0.01830228604376316,0.015656981617212296,0.009764810092747211
1772045861754271500,9.522271484375,0.02540067583322525,0.009518396109342575,-0.0010596078354865313
1772045861764257500,9.532257568359375,0.03571479022502899,0.009283507242798805,-0.01739952340722084
1772045861774242300,9.5422421875,0.03721228241920471,-0.0012980304891243577,-0.030551809817552567
1772045861784228400,9.552228271484376,0.03498037904500961,-0.010059056803584099,-0.030089151114225388
1772045861794213600,9.562213623046874,0.032418154180049896,0.0006463179597631097,-0.022877579554915428
1772045861804199400,9.572199462890625,0.029548831284046173,0.02742939069867134,-0.03219214454293251
1772045861814185500,9.582185546875,0.02537725493311882,0.009986483491957188,-0.036557599902153015
1772045861824170200,9.592170166015626,0.021413486450910568,0.003346474375575781,-0.030272936448454857
1772045861834156500,9.602156494140624,0.013860230334103107,-0.00274310982786119,-0.0309618953615427
1772045861844141600,9.6121416015625,0.010931801982223988,0.015533195808529854,-0.033352430909872055
1772045861854127400,9.62212744140625,0.005971929989755154,0.020900264382362366,-0.04326311871409416
1772045861864112400,9.6321123046875,0.011470243334770203,0.015418969094753265,-0.021452870219945908
1772045861874098400,9.642098388671876,0.015592817217111588,0.015549197793006897,-0.010228710249066353
1772045861884084500,9.65208447265625,0.014724676497280598,0.01756279170513153,-0.0028062392957508564
1772045861894069500,9.662069580078125,0.018245641142129898,0.015168076381087303,-0.004321045242249966
1772045861904055300,9.67205517578125,0.02107526734471321,0.003206392051652074,-0.0142297875136137
1772045861914040300,9.682040283203126,0.0187777578830719,-0.0034560379572212696,-0.018787255510687828
1772045861924026400,9.6920263671875,0.013900678604841232,0.0064439233392477036,-0.00999579019844532
1772045861934012400,9.702012451171875,0.014630384743213654,-0.0010592667385935783,-0.0007690014317631721
1772045861943997400,9.71199755859375,0.01648584008216858,-0.005815598648041487,0.0057724155485630035
1772045861953983200,9.721983154296876,0.017012082040309906,-0.0035218182019889355,0.009474474936723709
1772045861963968500,9.731968505859374,0.014475828967988491,-0.00954646896570921,0.009606342762708664
1772045861973954600,9.74195458984375,0.011057660914957523,-0.007878798060119152,0.011079869233071804
1772045861983939300,9.751939208984375,0.009860854595899582,-0.012281098403036594,0.007665243931114674
1772045861993925400,9.76192529296875,0.00876922532916069,-0.007248257286846638,0.007959523238241673
1772045862003911400,9.771911376953126,0.010473200120031834,0.00040785068995319307,0.007842211052775383
1772045862013896400,9.781896484375,0.011370153166353703,0.00514561403542757,0.0033236260060220957
1772045862023882500,9.791882568359375,0.012682579457759857,0.019354630261659622,-0.005028169602155685
1772045862033867300,9.8018671875,0.017952974885702133,0.04004952311515808,-0.022058019414544106
1772045862043853600,9.811853515625,0.02761154994368553,0.060731254518032074,-0.04543977230787277
1772045862053839400,9.82183935546875,0.03656110167503357,0.10997310280799866,-0.09470266103744507
1772045862063824400,9.831824462890625,0.038323774933815,0.14638271927833557,-0.1635134071111679
1772045862073810400,9.841810546875,0.041649796068668365,0.11094135791063309,-0.1629895567893982
1772045862083795200,9.851795166015625,0.03140992671251297,0.0991506576538086,-0.14035509526729584
1772045862093781500,9.861781494140626,0.011264445260167122,0.11403613537549973,-0.11330883204936981
1772045862103767300,9.871767333984375,0.0034439507871866226,-0.009601701982319355,-0.07143005728721619
1772045862113752300,9.88175244140625,-0.007502174004912376,0.04841659590601921,-0.028522003442049026
1772045862123738600,9.891738525390625,-0.012047963216900826,0.07011959701776505,0.006496742367744446
1772045862133723400,9.901723388671876,-0.016152426600456238,0.023246634751558304,0.024917561560869217
1772045862143709400,9.91170947265625,-0.017685864120721817,-0.012909871526062489,0.023001009598374367
1772045862153694500,9.921694580078125,-0.013422142714262009,-0.024850687012076378,0.018431024625897408
1772045862163680300,9.93168017578125,-0.01809552311897278,-0.03243863210082054,0.027690047398209572
1772045862173666600,9.94166650390625,-0.025603238493204117,-0.04133651778101921,0.0389469638466835
1772045862183651300,9.9516513671875,-0.02709103748202324,-0.025081688538193703,0.06490389257669449
1772045862193637400,9.961637451171875,-0.03869389742612839,-0.029611459001898766,0.08964599668979645
1772045862203622400,9.971622314453125,-0.04845400154590607,-0.05176446959376335,0.0941285640001297
1772045862213608400,9.9816083984375,-0.04341290146112442,-0.020429182797670364,0.10534713417291641
