time,seconds_elapsed,z,y,x
1772045504393524700,0.079524658203125,2.474105802476406,2.806941918814182,-0.3501827532622963
1772045504403510500,0.089510498046875,2.587958976149559,2.9576427678912878,-0.10067264345213771
1772045504413496800,0.099496826171875,2.765999667572975,2.8622534716695545,0.2756070394232869
1772045504423482600,0.109482666015625,2.7494045066028834,2.7177041309595107,0.8033920196264982
1772045504433468700,0.11946875,2.4240239669680594,2.6954975598484276,1.2773909029759465
1772045504443454700,0.129454833984375,1.8544231675595044,2.7851322380661965,1.5584662908077238
1772045504453440800,0.139440673828125,1.4979980858415365,2.899675732091069,1.7736683997593818
1772045504463425500,0.149425537109375,1.4614163678973913,2.9940625732719894,1.5487836857050656
1772045504473411600,0.15941162109375,1.7484902654916048,3.0821634660512207,0.8593069452024996
1772045504483397600,0.169397705078125,2.026118873870373,2.984050882345438,0.18901536389691753
1772045504493383700,0.1793837890625,2.256229944270849,2.6194576917409895,-0.31090127484016117
1772045504503369500,0.189369384765625,2.3775088840305805,2.2155331922233104,-0.5623284337854012
1772045504513355800,0.199355712890625,2.2552403487116095,1.968032595604658,-0.6350283803477883
1772045504523341600,0.209341552734375,1.7065227628558872,1.8416314905256033,-0.7832486646555363
1772045504533327600,0.21932763671875,1.0901654729694128,1.8900164589881896,-0.9617499593280255
1772045504543313700,0.229313720703125,0.8307868070304393,1.9455302564173935,-1.2127695238530636
1772045504553299700,0.2392998046875,0.6911988881200551,1.8824644361734388,-1.328886696935445
1772045504563285500,0.249285400390625,0.5408586890488862,1.9718904400765895,-1.2131577194530516
1772045504573271600,0.259271484375,0.27993805436491964,1.910456312687695,-0.9903909474007785
1772045504583257600,0.269257568359375,0.008755553385615348,1.750153522528708,-0.6872226779654622
1772045504593243600,0.27924365234375,0.040889644271135325,1.578835709619522,-0.9213565010759979
1772045504603229400,0.2892294921875,-0.5715297216445208,0.7114566632509232,-1.044381042394042
1772045504613215700,0.2992158203125,-1.2156582310318946,-0.5994254443079233,-0.9590198037117719
1772045504623201500,0.309201416015625,-2.2289812873393298,-2.4293092138946055,-1.1713986719362437
1772045504633187600,0.3191875,-3.733495038685202,-4.929069682109356,-1.2946715619921683
1772045504643173600,0.329173583984375,-5.347933392083645,-8.203569491440057,0.7616334835663437
1772045504653159700,0.33915966796875,-8.144552654325961,-11.3080903352499,0.9220911720260977
1772045504663145500,0.3491455078125,-12.522986349737643,-13.07853933457136,-0.3444722666610032
1772045504673131800,0.3591318359375,-15.828684430408478,-8.01724963197112,-5.273388146448135
1772045504683117600,0.36911767578125,-17.84495527948141,-3.0680227124959227,-8.665928059747815
1772045504693103600,0.379103515625,-19.858193628990648,-1.3693500786185264,-8.09567376486659
1772045504703089700,0.389089599609375,-20.97958484582901,-0.501899136057496,-6.39531069368422
1772045504713075700,0.39907568359375,-20.186552307653425,1.029468427683413,-4.596272144216298
1772045504723061500,0.4090615234375,-17.927811257344484,2.063056273384392,-3.1372260125815865
1772045504733047800,0.4190478515625,-14.745768782436846,1.7911939734473823,-1.9394186416693031
1772045504743033600,0.42903369140625,-11.298535740441084,1.2721096015721558,-1.2003740065298973
1772045504753019600,0.43901953125,-7.869629213252663,1.1456623192638158,-1.0178939444195478
1772045504763005700,0.449005615234375,-4.583280560696124,0.7953720870390534,-1.2628956368945539
1772045504772991700,0.45899169921875,-1.4926134701937437,0.4629676401168108,-1.7943780103109777
1772045504782977500,0.4689775390625,1.099409686654806,0.540778901810944,-1.9679585074551402
1772045504792963800,0.4789638671875,3.2537703250348566,1.345901983013749,-1.8606458414666354
1772045504802949600,0.48894970703125,4.807341245016455,2.1584078679442404,-1.4701514630168675
1772045504812935700,0.498935791015625,5.448151423636078,2.649494518086314,-1.592049119196832
1772045504822920400,0.50892041015625,4.956770758983493,3.335529447571933,-2.216157315471023
1772045504832906800,0.51890673828125,3.9776165142595765,3.957199456913769,-2.571286073768139
1772045504842892500,0.528892578125,3.1702479922175404,4.339326258382201,-2.3070311800949272
1772045504852878600,0.538878662109375,3.3088615131378174,4.782339490228891,-1.6825379300259053
1772045504862864600,0.54886474609375,3.700039343807101,4.994885093322396,-0.9314617155048995
1772045504872850700,0.5588505859375,4.333749919554591,5.083045607334375,-0.378706179369986
1772045504882836500,0.56883642578125,4.959996735292672,5.108339038544893,-0.1255422232273966
1772045504892822800,0.57882275390625,5.45568298818469,5.066617619624734,0.23475706957541403
1772045504902808600,0.58880859375,5.890358599796891,5.03318472110033,0.4698636832408607
1772045504912794600,0.598794677734375,6.481333611145615,5.025678290992975,0.5647185803249478
1772045504922780400,0.608780517578125,7.166075870472192,4.992653973269462,0.5658036721479147
1772045504932766700,0.6187666015625,7.775988806524873,4.995508778178691,0.49258909059427675
1772045504942752500,0.62875244140625,8.22626180024147,4.944236856102943,0.399812022697553
1772045504952738600,0.638738525390625,8.484635673052072,4.852246554669738,0.36484212386421855
1772045504962724600,0.648724609375,8.587987326455115,4.808441022951901,0.2980178278695792
1772045504972710700,0.658710693359375,8.481955055665969,4.832307343968749,0.2108760624460876
1772045504982696400,0.668696533203125,8.250902905023098,4.889950554642081,0.06393398138061165
1772045504992682800,0.678682861328125,7.706009261369704,4.922996499675512,-0.09056713676229118
1772045505002668500,0.68866845703125,6.960075743499398,5.074507496091723,-0.2842839746147394
1772045505012654600,0.698654541015625,6.271718800806998,5.066504806900024,-0.5644265385758132
1772045505022640600,0.708640625,5.5571641715407365,4.820431028214097,-1.0668415152009576
1772045505032626700,0.718626708984375,4.760526886871457,4.618763669748604,-1.59279000069201
1772045505042611700,0.72861181640625,3.920602833661437,4.628737659013271,-1.9750630787633359
1772045505052598000,0.738597900390625,3.2969115476250646,4.5575782564237715,-2.136625367464125
1772045505062583800,0.748583740234375,2.8007138380795715,4.211181232245266,-2.4224890124857423
1772045505072569900,0.75856982421875,2.1310008055806158,3.72637556206882,-2.8507857367157934
1772045505082555600,0.7685556640625,0.6654010145187378,3.3877468338042496,-3.2455063545584677
1772045505092542000,0.7785419921875,-1.7524749512135982,2.963554330022633,-3.7404385742127895
1772045505102527700,0.78852783203125,-4.462543472728133,2.0582789759799835,-3.798129715681076
1772045505112513800,0.798513671875,-7.121005141124129,0.4108151358142495,-3.1846117408737538
1772045505122499800,0.808499755859375,-9.056049659362435,-2.134603798508644,-2.1379282667562363
1772045505132486000,0.81848583984375,-9.444458609840273,-4.7819233106434345,-1.2693639561258256
1772045505142471700,0.8284716796875,-9.01709770515561,-6.552555849838257,-1.2750491621553897
1772045505152458000,0.8384580078125,-9.425505487567186,-7.427586872264742,-1.5424297866337
1772045505162443800,0.84844384765625,-11.233418832886219,-6.772799021697044,-1.994307585198432
1772045505172429800,0.858429931640625,-14.738719448447227,-4.741685992801189,-2.269137648899853
1772045505182416000,0.868415771484375,-19.432590381628273,-2.371591768941283,-1.8228822202615438
1772045505192402000,0.87840185546875,-23.519622379374503,-0.5285322914391756,-0.6916492622360587
1772045505202387700,0.8883876953125,-25.229585053551194,0.40916882991194725,0.45778541517332194
1772045505212374000,0.8983740234375,-23.25349190108776,0.47550446560680865,1.394020994016528
1772045505222359800,0.90835986328125,-18.878804990988968,0.029044892698526382,2.1179972393617033
1772045505232345900,0.918345947265625,-14.127217197376488,-0.8186042018055916,2.9855624559521674
1772045505242332000,0.928331787109375,-10.007854124867915,-1.8096593122035265,3.68598889888376
1772045505252318000,0.93831787109375,-6.809312935101985,-2.2477064460754392,4.1929990943446755
1772045505262303700,0.9483037109375,-4.242417789769172,-1.8647826490104198,4.620441247572004
1772045505272290000,0.9582900390625,-2.223156526708603,-0.8659516439139843,5.0645484121352435
1772045505282275800,0.96827587890625,-0.6366834540784359,0.30745734493136406,5.462593790486455
1772045505292262000,0.978261962890625,0.769335436245799,1.2574199819624423,5.5311137844830744
1772045505302247700,0.98824755859375,2.1977111198067663,1.9742893179118632,5.049413386845589
1772045505312233000,0.99823291015625,3.6560090634226796,2.5154689094781872,4.18251832460165
1772045505322219000,1.008218994140625,5.038309224507213,2.888616577938199,3.3431653492778537
1772045505332204800,1.018204833984375,6.221172854918241,3.407971875709295,2.5978970173180103
1772045505342191000,1.028191162109375,7.126240703690051,4.121656736403703,1.798802841015905
1772045505352177000,1.038177001953125,7.643896796327829,4.853731240269542,1.2566098346233368
1772045505362163000,1.048162841796875,7.8886372805833815,5.603258983239531,1.0885964700870214
1772045505372149000,1.05814892578125,8.027004717788099,6.276667363125085,1.127381104902923
1772045505382135000,1.068135009765625,7.994660783544182,6.861313755974173,1.1570245480164885
1772045505392120800,1.078120849609375,7.76409437059164,7.25714847253859,1.2344402345217764
1772045505402107000,1.08810693359375,7.40690941041708,7.477138546419143,1.1613516174353657
1772045505412093000,1.098093017578125,7.216664486458897,7.482976751053333,1.0422120277918874
1772045505422078700,1.10807861328125,7.1481152663677925,7.21913818309605,0.9329614525433629
1772045505432064800,1.118064697265625,7.120867193958163,6.936700128608941,0.7567660236604511
1772045505442050800,1.12805078125,7.161985970810055,6.698418026712536,0.44319618719816206
1772045505452036900,1.138036865234375,7.235610009947418,6.523264288902283,0.07690934441834688
1772045505462022700,1.148022705078125,7.342617263248562,6.343479384160042,-0.10914251176416874
1772045505472009000,1.158009033203125,7.289451490250229,6.002517829033732,-0.11497457891851663
1772045505481994800,1.167994873046875,7.125533432203531,5.6777153815478085,-0.18379077938273547
1772045505491980800,1.177980712890625,7.184744915106892,5.277222610044479,-0.2144296632744372
1772045505501966800,1.187966796875,7.454173265895247,5.067070624089241,-0.11663272138908505
1772045505511953000,1.197952880859375,7.341835172960161,5.103040932136774,-0.34150209174379703
1772045505521938700,1.207938720703125,6.2641556720763445,5.091472659417986,-1.1127404390014708
1772045505531925000,1.217925048828125,4.17636447814703,4.629305229768157,-1.4914499793723224
1772045505541910800,1.227910888671875,1.7789251512438058,3.8986370855689048,-0.9087715255953371
1772045505551896800,1.237896728515625,-0.18554712153077124,3.0674735541805624,0.16758666355684398
1772045505561883000,1.2478828125,-2.077290258181095,3.5601457199484106,1.1456303166903554
1772045505571869000,1.257868896484375,-4.104293513670563,2.832979446390271,1.6517906173236667
1772045505581854700,1.267854736328125,-6.082098146227001,0.8392430852085352,1.82715551366657
1772045505591841000,1.277841064453125,-7.127431374779343,0.04139116405248642,1.7445837595723568
1772045505601826800,1.287826904296875,-7.724589458677173,0.40845337511897084,1.1720729179359972
1772045505611812900,1.297812744140625,-8.525842128187417,0.5214823729276656,-0.139103350263834
1772045505621799000,1.307798828125,-9.712418641641735,0.2510243868306279,-1.861859455040097
1772045505631785000,1.317784912109375,-10.631724859124422,0.9505763850152492,-3.168182584120333
1772045505641770800,1.327770751953125,-11.345510257583856,1.8960162839248775,-4.121274459087848
1772045505651756800,1.3377568359375,-10.732857667434216,2.6771941336557266,-3.918848098948598
1772045505661742800,1.347742919921875,-9.368592344734072,3.0958190664380787,-2.7785312323659657
1772045505671729000,1.35772900390625,-7.804104309418797,3.277753842690587,-1.5606673079833386
1772045505681714700,1.367714599609375,-6.426728745254874,3.0342054908290503,-0.31564854243248697
1772045505691701000,1.377700927734375,-5.694090177765489,2.2193029200203713,0.8284025422424077
1772045505701686800,1.387686767578125,-5.332322565975785,1.0955240773931145,1.546739028134942
1772045505711672800,1.3976728515625,-5.142728799402714,-0.19440788885653018,1.8537661649554966
1772045505721659000,1.407658935546875,-4.99465362265408,-1.0479932415418327,1.4871043513834477
1772045505731645000,1.41764501953125,-4.715366725674271,-1.2486761190146207,0.939194574779272
1772045505741630700,1.427630615234375,-4.281863664972782,-1.0193241964183748,0.6639762424126266
1772045505751617000,1.437616943359375,-3.675623279953003,-0.7389554955512285,0.6555073970139026
1772045505761602800,1.447602783203125,-2.893254174610972,-0.24874913537502288,0.8342311022654175
1772045505771588900,1.4575888671875,-2.0316075344145297,0.25114143733903765,1.1490281424351036
1772045505781574000,1.467573974609375,-1.0677250931024551,0.7132184122264384,1.6295197488047182
1772045505791560000,1.477559814453125,-0.17242577415108679,1.069803799072653,2.1984746515251694
1772045505801546000,1.4875458984375,0.588815787488222,1.1916302897125481,2.702749722933769
1772045505811531800,1.49753173828125,1.08884620706439,0.7457265971213579,3.1037922372743485
1772045505821517800,1.507517822265625,1.376845987331867,0.04195785802453756,3.090503424373269
1772045505831504000,1.51750390625,1.4933786093473433,-0.5312424271807075,2.5819261257261035
1772045505841489700,1.52748974609375,1.4248556927412748,-0.9604271862916648,1.688747013799101
1772045505851476000,1.53747607421875,1.3494430166214704,-1.1580844323329627,0.9350196271821856
1772045505861461800,1.547461669921875,1.2586334494054316,-1.1788288219369947,0.5766575860522687
1772045505871447800,1.55744775390625,1.1105652869194744,-1.111162960551679,0.5677868818543851
1772045505881433900,1.567433837890625,1.1033762521982193,-0.9617286242790519,0.7735866639494895
1772045505891420000,1.577419921875,1.2319535322725772,-0.6734824680350721,1.0423721867896616
1772045505901405700,1.58740576171875,1.463793033900857,-0.28687603693455455,1.4015861685737967
1772045505911392000,1.59739208984375,1.6207313160628078,0.08347527880519628,1.6703545941486955
1772045505921377800,1.607377685546875,1.4305805001288652,0.31193682843297715,1.7311290885850785
1772045505931363800,1.61736376953125,0.9035931000441312,0.3725309978663921,1.5711659056439995
1772045505941350000,1.627349853515625,0.23875848723649978,0.40978403920084233,1.3841368749924003
1772045505951336000,1.6373359375,-0.0982990461885929,0.6728238579958676,1.2864010156445205
1772045505961321700,1.64732177734375,-0.04114566485881805,1.1173483711883425,1.1394726708434522
1772045505971308000,1.65730810546875,0.24373510660529135,1.5564277707174419,1.1103230025961994
1772045505981293800,1.6672939453125,0.669272302994132,1.7195269135966895,1.1625018103837965
1772045505991279900,1.67727978515625,1.2490566427648067,1.941678257164359,1.271819240323454
1772045506001265700,1.687265625,1.7774369585126637,2.164962988676131,1.6574030503779649
1772045506011252000,1.697251953125,2.144391033029556,1.981549956564605,2.2279852620393035
1772045506021237800,1.70723779296875,2.360480007818341,1.5952183968827127,2.6891943680509924
1772045506031223800,1.717223876953125,2.4635557668894528,1.1919506077080964,2.8732378070205447
1772045506041210600,1.727210693359375,2.403106851145625,0.852509101755917,2.749097048088908
1772045506051196700,1.73719677734375,2.3909084638297555,1.0734259350925683,2.6748762121021747
1772045506061182700,1.7471826171875,2.2628502391934395,0.9206430190443992,2.58314543838799
1772045506071168800,1.757168701171875,2.130931831997633,0.7206202129155397,2.4653414812624455
1772045506081154600,1.767154541015625,2.1282360170423984,0.6415072209730744,2.5094658696711063
1772045506091140900,1.777140869140625,2.352159923240542,0.5779734909564256,2.572122816853225
1772045506101126700,1.787126708984375,2.7109330293893814,0.5725874140039086,2.647486685395241
1772045506111112700,1.79711279296875,3.072520608437061,0.6664435093089938,2.5870816087931394
1772045506121098800,1.8070986328125,3.314779797270894,0.8224661379307509,2.4582746116161345
1772045506131084800,1.817084716796875,3.381547394642234,1.0539511270329356,2.249577208383381
1772045506141069600,1.827069580078125,3.0876065338879823,1.4644704947710037,1.8782469646088777
1772045506151056600,1.837056640625,2.665626153197884,1.8981644018694757,1.5873445947676896
1772045506161041700,1.847041748046875,2.3293244065761565,2.139621042148769,1.6201427025198936
1772045506171027700,1.85702783203125,2.24988671272397,2.226499699656665,1.8100746150061486
1772045506181013500,1.867013427734375,2.5363421861588953,2.22796392699033,1.9298238609805702
1772045506190999800,1.876999755859375,2.816298945224285,2.164674819384515,1.8845181538328528
1772045506200985600,1.886985595703125,2.675304666647315,1.9620269254490732,1.7571096252769232
1772045506210971600,1.8969716796875,2.0500135441988707,1.7713821885183452,1.4671050810582935
1772045506220957700,1.906957763671875,1.1710989583373068,1.9558806777790188,1.2016927609782666
1772045506230943700,1.91694384765625,0.29109540819525714,2.063506062978506,1.2512108981892467
1772045506240929500,1.926929443359375,-0.46994098626077174,1.5933479268357156,1.8198706173554062
1772045506250915800,1.936915771484375,-1.1367466068804264,0.47341129271984095,2.5563831036686895
1772045506260901600,1.946901611328125,-2.5719337240219113,-1.1340297491371631,2.692958689020574
1772045506270887700,1.9568876953125,-4.930128251251578,-1.7773972110241651,2.3009683729246255
1772045506280873700,1.966873779296875,-8.665032572212814,-1.2180103471159933,2.339814382538944
1772045506290859800,1.97685986328125,-13.156314648169278,-1.0544497242048383,3.430169971252978
1772045506300845600,1.986845458984375,-16.99413456920385,-1.2018895256593822,4.494949658553302
1772045506310831900,1.996831787109375,-19.45199300123453,-0.7324968209311365,4.72269838373661
1772045506320817700,2.006817626953125,-19.94883426938057,-0.7844985185861587,3.144149966625869
1772045506330803700,2.0168037109375,-18.381219041955468,0.08803776441514491,0.625307635191828
1772045506340789500,2.02678955078125,-15.264025763577221,0.7453083717092871,-1.0997075005576014
1772045506350775800,2.03677587890625,-11.0365845936656,1.2675111678659916,-1.940085435014963
1772045506360761600,2.04676171875,-6.521887739852071,1.7832713637545703,-2.070897342273593
1772045506370747600,2.05674755859375,-3.033995355209708,1.9136556932508944,-1.6912075586937367
1772045506380733700,2.066733642578125,-1.0126163693428039,2.2663804591462013,-1.4178199488855898
1772045506390719700,2.0767197265625,0.3278442993998527,2.7894699750095606,-1.3806126463890074
1772045506400705500,2.08670556640625,2.134926454591751,2.788206530945003,-1.5342996716700494
1772045506410691800,2.09669189453125,4.345824972751736,1.9911577428653835,-1.9625078408338128
1772045506420677600,2.106677734375,6.273778071424364,0.6759092567905783,-2.7205817322224375
1772045506430663700,2.11666357421875,7.688195956781506,-0.5846069376215338,-3.2588661868691444
1772045506440649700,2.126649658203125,8.476680330133437,-1.2753598355397582,-3.3763682384386655
1772045506450635800,2.1366357421875,8.759955419966579,-1.4386270284622906,-3.0151801801025866
1772045506460620500,2.14662060546875,8.72820652900636,-1.106344162093103,-2.600907305049896
1772045506470606600,2.156606689453125,8.293684062129259,-0.5255582440644503,-2.1408412315934897
1772045506480592600,2.166592529296875,7.389666599193215,-0.23525281720310448,-1.4675100085973738
1772045506490578700,2.17657861328125,6.200666073462367,-0.3551671906113624,-0.6330600028842687
1772045506500564500,2.186564453125,5.42203790821433,0.09983604649752378,-0.19447803148329257
1772045506510550800,2.19655078125,4.601247010019422,0.031137773324549197,0.6805535754650831
1772045506520536600,2.20653662109375,4.015139896968007,0.06762713681012392,1.323647188846767
1772045506530522600,2.216522705078125,3.4758605860650538,0.20778189582303166,1.826626229095459
1772045506540508700,2.2265087890625,2.8521102633178232,0.24011048636734483,2.193204163776338
1772045506550494700,2.23649462890625,2.3864351178079843,0.20010858471617102,2.5660814908623695
1772045506560480500,2.24648046875,2.2764064708590506,0.3490086679816246,2.9555525176137682
1772045506570466800,2.256466796875,2.7236984029382465,0.6353257558591664,3.3570509590283035
1772045506580452600,2.26645263671875,3.189126880210638,0.08270517121553421,4.289360742729902
1772045506590438700,2.276438720703125,4.089339690166711,-0.299131999656558,4.784289455252885
1772045506600424700,2.2864248046875,5.146357511293888,0.13520955769568682,5.009044551578164
1772045506610410800,2.29641064453125,5.336904633069038,0.3293576265722513,5.211066422569751
1772045506620396500,2.306396484375,4.795423428207636,0.39191374372839927,4.569236253252625
1772045506630382800,2.3163828125,3.502699493151903,0.5788891444966197,3.731516724349558
1772045506640368600,2.32636865234375,2.2599182773947715,0.7314201316103339,3.7639272940888997
1772045506650354700,2.336354736328125,1.803954963082075,1.1088500074341892,3.341727425429225
1772045506660340700,2.3463408203125,1.2735142076730728,1.056557510139048,3.4120836949422952
1772045506670326800,2.356326904296875,1.2675211047381163,1.3199994799941777,3.5142180815100668
1772045506680312600,2.3663125,1.2554331920593975,1.206142506928742,3.8041380161851643
1772045506690298600,2.376298583984375,1.2908815220594405,0.38842560935169457,4.107875756071508
1772045506700284700,2.38628466796875,1.4305793310850858,-0.5103416779711842,4.709006542992592
1772045506710270700,2.396270751953125,1.7765490697622297,-1.527400413675606,5.506883598589897
1772045506720256500,2.406256591796875,2.19716342279613,-2.5968594909638165,5.706141850087047
1772045506730242800,2.416242919921875,1.7680390155702828,-3.7869545339331028,4.8689396230563515
1772045506740228600,2.426228515625,0.3221469645410776,-4.841679275687039,2.8212583211973308
1772045506750214700,2.436214599609375,-3.285758285447955,-5.010498842039704,-1.1678346958443522
1772045506760200700,2.44620068359375,-8.228875782132148,-4.364145934601128,-5.570574857255816
1772045506770185700,2.456185791015625,-12.538466827464102,-2.885188357055187,-8.702122239679097
1772045506780171500,2.466171630859375,-15.914050345265865,-1.1729051309764384,-10.852522157734631
1772045506790157600,2.476157470703125,-17.86908434308767,0.9345312591433524,-11.484306149333715
1772045506800143600,2.4861435546875,-18.798379455143213,2.699556772111356,-10.873168639922142
1772045506810129700,2.496129638671875,-17.90256341884136,3.8461902744948864,-9.43137408733964
1772045506820115500,2.506115478515625,-15.48728974456191,4.26159419940412,-7.914143477761745
1772045506830101800,2.516101806640625,-12.397959455621242,3.805722070506215,-6.445178594180941
1772045506840087600,2.526087646484375,-10.304686030888556,2.979509147262573,-5.43777908270359
1772045506850073600,2.536073486328125,-9.349287924805283,2.6470114690989255,-4.979448454737663
1772045506860059600,2.5460595703125,-8.818290704557299,2.3820962118208406,-5.127562794452905
1772045506870045700,2.556045654296875,-7.7095760139405725,2.3103967110052706,-5.584217013639211
1772045506880031500,2.566031494140625,-6.159681736645102,2.039742617814243,-5.727755131480097
1772045506890017800,2.576017822265625,-4.3915994664549824,1.8093574066475033,-5.8110495007604355
1772045506900003600,2.586003662109375,-2.702184490266442,1.617913043771684,-5.579008923602104
1772045506909989600,2.59598974609375,-1.0534271031588316,1.5231591228440402,-4.387625886648893
1772045506919975700,2.6059755859375,0.5776724621832371,1.59054222176522,-2.8283091164916754
1772045506929961700,2.615961669921875,2.1204788270443675,1.608625575466454,-1.1671209946170449
1772045506939947500,2.625947509765625,3.6725551245540378,1.4963888970792292,0.440999261675775
1772045506949933800,2.635933837890625,5.294176082932949,1.3507818640097975,1.7296403113320469
1772045506959919600,2.645919677734375,6.679651366922259,1.1936606264963745,2.702506269566715
1772045506969905700,2.65590576171875,7.755430587142706,1.0509694808736443,3.4234158208176493
1772045506979891700,2.6658916015625,8.630510709407925,0.974868530228734,3.927557767365873
1772045506989877800,2.675877685546875,9.279569076412916,0.8762959277957677,4.306356593455374
1772045506999863600,2.685863525390625,9.754933256766199,0.7467635389536619,4.622710946069658
1772045507009849900,2.695849853515625,10.195712445950507,0.6873197085991501,4.806757599909603
1772045507019835600,2.705835693359375,10.40171666457653,0.6334621539443731,5.088306304341554
1772045507029821700,2.71582177734375,10.56885836084485,0.7283356095984578,5.304700399556756
1772045507039807200,2.72580712890625,10.561486370772123,0.7960933870509267,5.428073681247234
1772045507049793300,2.735793212890625,10.534434697717428,0.8747747095778584,5.495893418020009
1772045507059779000,2.745779052734375,10.36402435504198,0.9466869763612746,5.304807367062568
1772045507069765400,2.755765380859375,9.859799406385422,1.0054539303675294,4.968947518989443
1772045507079751200,2.765751220703125,9.087137456065415,1.157172432054579,4.490578603862226
1772045507089737200,2.7757373046875,7.895543991231918,1.3239032094344496,3.9803222660869357
1772045507099723300,2.78572314453125,6.607444793367385,1.6442492620334028,3.536443065060675
1772045507109709300,2.795709228515625,5.487374595999717,1.9207924132630227,3.16249080221951
1772045507119695000,2.805695068359375,4.661550964334607,2.0217720768377183,2.787673446981609
1772045507129680100,2.81568017578125,4.0256221280157565,1.9992910726994275,2.2842922556728125
1772045507139666400,2.82566650390625,3.310573577752709,1.9183195934087036,1.4518322547331453
1772045507149652200,2.83565234375,2.670722015032172,1.7300161589071155,0.48245326183140275
1772045507159638300,2.84563818359375,2.1832921338319777,1.189758066099882,-0.43356735810935493
1772045507169624300,2.855624267578125,1.5528250700503587,0.31076515430510043,-0.8868667139098048
1772045507179610400,2.8656103515625,0.5353448940634727,-0.8542334413304924,-0.9198387169241905
1772045507189596200,2.87559619140625,-0.5182090503454208,-2.54323428376019,-0.43196869074106214
1772045507199582500,2.88558251953125,-1.3576345063835382,-4.271174805437028,-0.2365653611063957
1772045507209568300,2.895568359375,-2.267707031574845,-5.604882785049081,-1.443807061448693
1772045507219554300,2.90555419921875,-3.9930180815309284,-6.973329777348041,-3.570026477971673
1772045507229540400,2.915540283203125,-7.3195093593835825,-7.31871148700416,-6.601566841244697
1772045507239526100,2.925526123046875,-12.42062487641573,-5.603422649368643,-9.844335295271874
1772045507249512200,2.93551220703125,-18.46784752409458,-3.035333033554256,-12.682772422546147
1772045507259498200,2.945498291015625,-23.624020326960085,-1.2821250918909906,-13.608869030821323
1772045507269484300,2.955484375,-25.47991239802837,0.24457740264832972,-12.43472354439497
1772045507279470000,2.965469970703125,-23.53620409634113,1.2238961902841925,-9.550977787363529
1772045507289456400,2.975456298828125,-18.939852457147836,1.0344894707158208,-6.151917532384395
1772045507299442200,2.985442138671875,-13.740698590689897,0.6239031752213835,-3.883682093021273
1772045507309428200,2.99542822265625,-9.63698959890902,-0.1633349974617362,-2.2309683695033193
1772045507319414000,3.0054140625,-6.571507803067565,-0.6762783823639154,-1.2742074506342411
1772045507329400300,3.015400390625,-4.326445734021068,-0.9875514861911535,-1.1110545317411422
1772045507339386000,3.02538623046875,-2.6219191134184596,-1.1081886209160088,-1.1686252617001534
1772045507349372200,3.0353720703125,-1.1281751778900622,-0.9118950644433498,-1.2236232185617089
1772045507359358200,3.045358154296875,0.24094635266959666,-0.5498270084023476,-1.5668874976724385
1772045507369344300,3.05534423828125,1.3327566702365874,-0.07950491386950015,-1.9398148013800383
1772045507379330000,3.065330078125,2.2384055337667466,0.4765396538734436,-1.647973250992596
1772045507389316400,3.07531640625,3.0632378163069487,1.0219722267091274,-0.8544482531249523
1772045507399302100,3.08530224609375,3.7626989213377233,1.4599255448177455,0.14702771352231503
1772045507409288200,3.0952880859375,4.351742672362923,1.7989383039638398,1.1388666677743196
1772045507419274200,3.105274169921875,4.84496867262125,2.0710919880628587,2.15082749581784
1772045507429260300,3.11526025390625,5.393278262197971,2.1988296024426814,3.1430998730510473
1772045507439246000,3.12524609375,6.043380585297942,2.300242396737635,3.9386715743154284
1772045507449232400,3.135232421875,6.6651254134416575,2.2959499602407214,4.433949830928444
1772045507459218200,3.14521826171875,7.211291561248898,2.1721534847021102,4.610880515283346
1772045507469204200,3.155204345703125,7.733269608739018,1.9435346986860036,4.555589712955057
1772045507479190300,3.165190185546875,8.137362450560927,1.7142150709241628,4.339191233825684
1772045507489176300,3.17517626953125,8.298557221123575,1.5039821286872028,3.997327176901698
1772045507499162000,3.185162109375,8.321270572713017,1.4122054700046778,3.8549239083096385
1772045507509148400,3.1951484375,8.22892780458033,1.4668392697289585,3.9138516058355566
1772045507519134200,3.20513427734375,8.050870746544003,1.5633929335549472,4.1280782938838
1772045507529120300,3.215120361328125,7.8587296335756776,1.7260227053567767,4.325068600448966
1772045507539106300,3.225106201171875,7.711475125560164,1.8672902479171751,4.445559896962345
1772045507549092400,3.23509228515625,7.639944259309768,1.934123019479215,4.431810188551247
1772045507559078100,3.245078125,7.695439352038502,1.9750603022843598,4.169958702757954
1772045507569064200,3.255064208984375,7.77196554235816,1.9522782693728804,3.6412720975399013
1772045507579050200,3.26505029296875,7.8175892294138665,1.874024816869199,3.0913787459030746
1772045507589036300,3.275036376953125,7.717690931335091,1.8578753538399935,2.590397893734276
1772045507599022000,3.28502197265625,7.27246060796082,1.9342416774228215,2.1796017548814413
1772045507609008400,3.29500830078125,6.428100618129968,2.155525298245251,1.7962714228421448
1772045507618994200,3.304994140625,5.303529017689824,2.3461633131742476,1.3666481261834502
1772045507628980200,3.314980224609375,4.093554092991352,2.5108769055128097,0.7464506736122072
1772045507638966300,3.32496630859375,2.6957477352172137,2.5469337228000164,0.1603895916596055
1772045507648952300,3.334952392578125,1.3299872055232524,2.291898639023304,-0.4237513358853757
1772045507658938000,3.344938232421875,0.43685237112939357,1.473696003755927,-0.962094973373413
1772045507668924400,3.35492431640625,0.01621814435124397,0.08804185606837273,-1.229323622160405
1772045507678910200,3.36491015625,-0.2148807680428028,-1.6455167977511882,-1.2480344601102173
1772045507688896300,3.374896240234375,-0.727809247636795,-3.571823882782459,-0.7709731204502284
1772045507698882300,3.38488232421875,-2.180561247563362,-5.200519309592247,-0.45616175949424503
1772045507708868400,3.394868408203125,-4.37175962447524,-6.62371788277626,-1.2525798484548925
1772045507718854100,3.404854248046875,-7.0170292183429,-8.337986145192383,-3.2928315848350524
1772045507728840400,3.41484033203125,-9.869364522588253,-9.160055977281928,-5.3662458783656355
1772045507738826200,3.424826171875,-13.00239249895811,-8.390023790943623,-7.097591532310843
1772045507748812300,3.434812255859375,-16.14164446440935,-7.037448321515321,-8.31264829031825
1772045507758798300,3.44479833984375,-18.488946426224707,-6.203599204304814,-8.100790084967016
1772045507768784400,3.454784423828125,-19.356512519598006,-5.757878467065096,-7.320607676014304
1772045507778770200,3.464770263671875,-18.384377798247336,-4.873268299910426,-6.98940763644576
1772045507788756500,3.474756591796875,-16.33669123569131,-4.38028370719254,-6.266520647642016
1772045507798742300,3.4847421875,-13.953900611865519,-3.8161850123316046,-5.452300944530964
1772045507808728300,3.494728271484375,-11.72919042597413,-3.5014269889980554,-4.543753729210794
1772045507818714000,3.504714111328125,-9.191351863777637,-3.216544463968277,-3.8154277642235157
1772045507828700400,3.514700439453125,-5.803685109472275,-3.100208825829625,-3.2333915538728237
1772045507838686200,3.524686279296875,-2.031118289592862,-3.1463521528452634,-2.2531191187739372
1772045507848672300,3.53467236328125,1.2416074958026408,-3.0345109035164115,-0.7977775407455862
1772045507858658300,3.544658203125,3.550100126752257,-2.60259774235487,0.5985961538769304
1772045507868644400,3.554644287109375,4.840326399773359,-1.7998101183623074,1.5691640643022953
1772045507878630100,3.564630126953125,5.1817748616337775,-0.7512322088003158,2.0534420573428274
1772045507888616400,3.574616455078125,4.991873052024841,0.3434294065445661,2.1472874851234254
1772045507898602200,3.584602294921875,4.542596668130159,1.3039514315128327,2.2619097434729336
1772045507908588300,3.59458837890625,4.051694142383337,2.369317978790402,2.3716078432932495
1772045507918574300,3.60457421875,3.818438928738236,3.469181254431605,2.4197518426068125
1772045507928560400,3.614560302734375,4.05204251742959,4.255964084562659,2.506262105193734
1772045507938546200,3.624546142578125,4.572648107522726,4.854283028933406,2.4888679028004406
1772045507948532200,3.6345322265625,5.049881588879227,5.169285966938734,2.6137024892151355
1772045507958518300,3.644518310546875,5.534142192393541,5.103851663997769,2.909163106882572
1772045507968504000,3.654504150390625,6.066252342319488,4.825951252940297,3.2265561548948285
1772045507978490400,3.664490478515625,6.713888567566872,4.516110812264681,3.4387364318072793
1772045507988476200,3.67447607421875,7.507752880391478,4.338623078548908,3.393402083086967
1772045507998462200,3.684462158203125,8.284101994791627,4.157734011957049,3.2111417281419037
1772045508008448300,3.6944482421875,8.889936137098074,3.948827642148733,2.9775866547673937
1772045508018434300,3.704434326171875,9.186987238827347,3.847594880595803,2.696800751401484
1772045508028420000,3.714420166015625,9.044248746931553,3.769607385551929,2.4614152477294207
1772045508038407000,3.724406982421875,8.458909111121296,3.73225000706017,2.339397326170653
1772045508048392700,3.734392822265625,7.516731721138954,3.8755373650103806,2.2642653666883708
1772045508058378800,3.744378662109375,6.547229101857543,3.9302234794437885,2.188522727961838
1772045508068364800,3.75436474609375,5.760551485666633,3.929326822865009,2.02258017835021
1772045508078350800,3.764350830078125,5.271908721545338,3.903418474626541,1.8181076993361114
1772045508088336600,3.774336669921875,5.122663331973553,3.8410961662262677,1.6816268065303563
1772045508098323000,3.784322998046875,5.214986226361989,3.802987677106261,1.5549851706936955
1772045508108308700,3.794308837890625,5.3476703572332855,3.7046956451803443,1.3830916037231682
1772045508118293800,3.804293701171875,5.4000324126332995,3.6286774043828247,1.2684427496276796
1772045508128280600,3.814280517578125,5.309284220215678,3.5104490843653675,1.2511936547935008
1772045508138267000,3.824266845703125,5.073973827606439,3.43088338021934,1.2702895465381443
1772045508148252700,3.834252685546875,4.725125318622589,3.4303859520912168,1.2365762236371636
1772045508158238700,3.84423876953125,4.359904351508617,3.2929303690344094,1.1698607948444784
1772045508168224800,3.854224853515625,3.9481647943258285,3.0322599097192287,0.9821670166738331
1772045508178210800,3.8642109375,3.7001901504546404,2.5205396368712187,0.7955227475561201
1772045508188196600,3.874196533203125,3.332099765384197,1.6409207021325827,0.33011662824600935
1772045508198183000,3.884182861328125,2.536560797345638,-0.09344751450419425,0.02444806642755866
1772045508208168700,3.894168701171875,1.5009136810272932,-2.7635785779058932,0.6683002430915832
1772045508218154800,3.90415478515625,0.6318348450034856,-5.938457737055421,2.0663312034018335
1772045508228139500,3.914139404296875,-0.11860884376764297,-8.894522295844554,2.7096827370673418
1772045508238125800,3.924125732421875,-0.7595838575601578,-10.404094499623774,2.15583962489143
1772045508248111600,3.934111572265625,-2.2709335924059153,-11.328031884038447,2.0307104394443334
1772045508258097700,3.94409765625,-6.477416145440936,-10.110437716507912,2.09880723959282
1772045508268083700,3.954083740234375,-13.862911596429347,-5.338437249463796,-0.5059866976320744
1772045508278069800,3.96406982421875,-21.40074221969843,-1.4603449392735957,-3.1635663224965334
1772045508288055600,3.9740556640625,-27.547738077771662,-1.5142156456708906,-3.522845040079951
1772045508298041900,3.984041748046875,-30.698757637906073,-2.7465543778687715,-3.281196092098951
1772045508308027600,3.994027587890625,-28.18594713398218,-3.637558045452833,-3.0927833520039916
1772045508318013700,4.004013671875,-22.086360677337645,-4.393657568028569,-2.3762300962664185
1772045508327999700,4.013999755859375,-16.29461150485277,-5.023124514856934,-0.49108080492317674
1772045508337986800,4.02398681640625,-10.91209312160015,-5.040004337987304,2.057739754536748
1772045508347971600,4.0339716796875,-6.078901980534195,-4.5147816094875335,4.340008395427465
1772045508357958000,4.0439580078125,-2.297503034901619,-3.5964088734626767,5.808893784031271
1772045508367943700,4.053943603515625,0.5649468361228704,-2.2036697359502315,6.143580496671795
1772045508377929700,4.0639296875,2.337536939126253,-0.5968979716569185,5.267085831433534
1772045508387915800,4.073915771484375,2.940713844922185,0.45820027958452697,3.397485553008318
1772045508397901800,4.08390185546875,2.811660179507732,0.6925707609951496,1.4883695490136741
1772045508407887600,4.0938876953125,2.6433938631236553,1.2508604773163794,0.5155599971413612
1772045508417874000,4.1038740234375,2.52352128303051,2.0067939956754444,0.4828507367163896
1772045508427859700,4.113859619140625,2.5383301451057196,2.8926942026406524,0.9350690192818641
1772045508437845800,4.123845703125,3.0116864927679297,3.9764322729110715,1.3144497369125485
1772045508447831800,4.133831787109375,3.828459387493133,5.218528429013491,1.710380315066874
1772045508457817900,4.14381787109375,4.426327665486932,6.363451328086852,2.3908301378965375
1772045508467803600,4.1538037109375,4.611664943659306,7.271944475132226,3.1432021643817425
1772045508477789700,4.163789794921875,4.609915469643473,7.713653054121136,3.770579737715423
1772045508487775700,4.173775634765625,4.772487373778223,7.417151402968168,4.044555084283649
1772045508497761800,4.18376171875,5.468922408986091,6.80639500182867,3.888938113853335
1772045508507747600,4.19374755859375,6.660216598612069,6.3561518187284465,3.537987079632282
1772045508517734000,4.20373388671875,8.22448777630627,5.9002808588743205,3.2655513637214897
1772045508527719700,4.2137197265625,9.958663100719452,5.408921237009763,3.0940760221630335
1772045508537705700,4.223705810546875,11.686356661897896,5.040978151455521,3.493504671566188
1772045508547691800,4.23369189453125,13.249488606429098,5.046199100974202,4.5155704217776655
1772045508557677800,4.243677734375,13.97648536863923,5.259383001971244,5.754127005577087
1772045508567663600,4.25366357421875,13.61280753931403,5.58576891925633,6.824476601964235
1772045508577650000,4.26364990234375,12.622406508910656,5.919612751331925,7.141270515039563
1772045508587635700,4.2736357421875,11.394818186110257,6.2372927995920175,6.779716253739595
1772045508597621800,4.283621826171875,10.410244838947056,6.434021824872493,6.387469332534074
1772045508607607800,4.29360791015625,9.936516735363005,6.522741141811013,5.883471762892603
1772045508617593900,4.30359375,9.73238298678398,6.221000420960784,5.113195246404409
1772045508627579600,4.31357958984375,9.431081241872906,5.717544703111052,4.491199658370018
1772045508637566000,4.32356591796875,8.850103308403492,5.347507860147953,4.389508631655573
1772045508647551700,4.3335517578125,8.106155995914339,5.061878900665045,4.697559850826859
1772045508657537800,4.343537841796875,7.376469848489761,4.758642388299108,5.1017719351142645
1772045508667523800,4.35352392578125,7.120581947275996,4.477179024063051,5.351919246849417
1772045508677510000,4.363510009765625,6.938906114220619,4.426529033277928,5.4463201165556905
1772045508687495700,4.37349560546875,6.481574434164166,4.139102084462344,5.549731975713372
1772045508697482000,4.38348193359375,6.148032799905538,3.7623262886330484,5.3949909113347525
1772045508707467800,4.3934677734375,6.1532467351615425,3.2304557926818727,4.763528991296887
1772045508717453800,4.403453857421875,6.242824130234122,2.3526444918870926,3.4479566800951957
1772045508727439600,4.413439697265625,5.99567775388062,1.3857763127624987,1.6544547219663857
1772045508737426000,4.423426025390625,4.992204475936293,0.7659118915379047,-0.6466413689911366
1772045508747411700,4.43341162109375,2.8549311659574506,0.12898878348469733,-4.205267916548252
1772045508757397800,4.443397705078125,0.23692075041532515,-1.4784899600341914,-9.347609177938104
1772045508767383800,4.4533837890625,-3.231499456515908,-3.6773040726467965,-16.87445955750942
1772045508777369900,4.463369873046875,-7.914102561229467,-5.741231868168711,-27.155018862879274
1772045508787355600,4.473355712890625,-12.305082434481381,-7.808999095723032,-37.38807290523052
1772045508797341700,4.483341796875,-14.569993697857855,-9.620961424171924,-43.97717306361198
1772045508807327700,4.49332763671875,-14.760788656914233,-9.709494278627634,-45.12022198550701
1772045508817313800,4.503313720703125,-14.235114092993735,-8.349317686545849,-41.766763790273664
1772045508827299800,4.5132998046875,-13.781110096055269,-6.766217889741062,-36.716945914280416
1772045508837285600,4.52328564453125,-13.151062134468555,-5.39395280045867,-32.32050193040371
1772045508847271700,4.533271728515625,-12.129091076803206,-4.435326379978656,-28.599713813078402
1772045508857257700,4.5432578125,-10.428258634543418,-3.4309701817199585,-24.703695385575294
1772045508867243800,4.553243896484375,-7.798297084444761,-2.286120640143752,-20.04022075970173
1772045508877229600,4.5632294921875,-4.601765773196518,-1.2522037086188793,-14.955361965465546
1772045508887215900,4.5732158203125,-1.8583096536040304,-0.4868836454942822,-9.72475614516735
1772045508897201700,4.58320166015625,-0.41727088782489297,0.40717831368185575,-4.941133629390597
1772045508907187700,4.593187744140625,-0.2519184130609035,1.3259499128311871,-0.7262374682754278
1772045508917173800,4.603173828125,-0.7959718064978718,2.315838755928725,2.8123119214147327
1772045508927159800,4.613159912109375,-1.9437717223122715,3.1610400188893077,5.4912809557884925
1772045508937145600,4.6231455078125,-3.283214446184039,3.5876977437406774,7.6404545469194645
1772045508947132000,4.6331318359375,-3.4120088761404155,3.5008383754551406,9.371094098421931
1772045508957117700,4.64311767578125,-2.1254507702380416,3.0731781955629587,10.684166994023322
1772045508967103700,4.653103759765625,-0.17895371461510656,2.5195722531437874,11.856535533905028
1772045508977089500,4.663089599609375,1.7153139720767736,2.0630944134376943,13.076066806977986
1772045508987075800,4.673075927734375,3.488514315932989,1.652804470541328,14.48518424783945
1772045508997061600,4.6830615234375,4.914342068576812,1.3987811941556632,15.86495284461975
1772045509007047700,4.693047607421875,5.767507880675792,1.2119281045928596,17.081803500306606
1772045509017033700,4.70303369140625,5.999881635311246,0.9318434813641011,17.925811023437976
1772045509027019800,4.713019775390625,5.723883843004703,0.6620374563697725,18.183414496397972
1772045509037005600,4.723005615234375,5.25620203384757,0.35278825958557425,17.989002515888213
1772045509046992000,4.732991943359375,4.863695584923029,0.05801774307414889,17.502806560397147
1772045509056977700,4.742977783203125,4.513922946831584,-0.14780666200555861,16.743903086316585
1772045509066963700,4.752963623046875,4.161906329205632,-0.40792146019935605,15.648440091460943
1772045509076949800,4.76294970703125,3.8039579834431407,-0.7927205496169626,14.257804063707589
1772045509086935800,4.772935791015625,3.411984033960104,-1.1195040148522704,13.069748125350474
1772045509096921600,4.782921630859375,2.8725574235409495,-1.221089170039445,12.33292788826227
1772045509106908000,4.792907958984375,2.220869877076149,-1.1601730751752852,12.114064188063145
1772045509116893700,4.802893798828125,1.5810113000929356,-0.9410154335308819,12.21211656601429
1772045509126879700,4.812879638671875,0.8397346681177615,-0.6477319407068193,12.300084772324562
1772045509136864800,4.82286474609375,-0.08272736478103325,-0.44426531426701693,12.289991248333454
1772045509146850800,4.832850830078125,-0.7351297997832298,-0.34322975578662007,12.1526005472064
1772045509156836900,4.8428369140625,-1.1966940028429032,-0.4468096284549683,11.726701531767844
1772045509166822700,4.85282275390625,-1.4585118786275386,-0.6297403569422662,11.330643527841568
1772045509176809000,4.86280908203125,-1.2585925328731535,-0.8447987465742975,10.883936702173948
1772045509186794800,4.872794677734375,-0.5651858690431342,-1.136932265645638,10.13914241746664
1772045509196780800,4.88278076171875,0.1644470503568649,-1.397357444962859,9.017946430939435
1772045509206766800,4.892766845703125,-0.13885087334010748,-1.4656369082018732,7.688569466269016
1772045509216752600,4.902752685546875,-1.2476409307479859,-1.6169674334846436,6.237602596193551
1772045509226738700,4.91273876953125,-2.783442969805002,-1.7632551422946154,4.023207468089461
1772045509236724700,4.922724853515625,-4.107464544922113,-1.3249999186299741,0.5608575209826231
1772045509246710800,4.932710693359375,-5.4638487589836116,-0.29682343045324083,-4.99594132437706
1772045509256696600,4.942696533203125,-7.651039653819799,0.9311099063925444,-12.185862180817127
1772045509266683000,4.952682861328125,-10.478192001491784,2.439499622388929,-19.294763627171516
1772045509276668700,4.962668701171875,-13.753418956053256,3.174946671427786,-25.039507887375354
1772045509286654700,4.97265478515625,-16.823001757472753,2.60614958961755,-30.117859783935547
1772045509296640800,4.982640869140625,-19.140420622199773,1.895709702193737,-36.26022622864246
1772045509306626800,4.992626708984375,-20.805603074407575,1.5962399950154125,-42.136518309164046
1772045509316612600,5.002612548828125,-21.370961998462676,1.5892980669230221,-45.43650444192886
1772045509326598700,5.0125986328125,-19.788581748104093,2.3714979531779883,-44.41677561023235
1772045509336584700,5.022584716796875,-16.251804628783464,4.145028844162821,-37.76247554218769
1772045509346570800,5.03257080078125,-12.092487147027253,6.983077264380454,-27.924387616872785
1772045509356556500,5.042556640625,-8.880835131275653,9.251993087223171,-19.835458065569398
1772045509366542800,5.05254296875,-7.020025477549433,10.049710568344592,-16.064968051964044
1772045509376528600,5.062528564453125,-6.029132279714942,10.272643709939718,-15.470819086754322
1772045509386514700,5.0725146484375,-6.040447454455495,10.237574734646081,-15.495371344208717
1772045509396500700,5.082500732421875,-6.913463629928231,10.417151549595594,-14.26573134957552
1772045509406486800,5.09248681640625,-7.807074265140295,11.022883400571345,-11.32645835111141
1772045509416472600,5.10247265625,-7.987197608056664,11.310098752462864,-7.794469050589203
1772045509426459000,5.112458984375,-6.944623322823643,11.087096637284755,-4.132154749542474
1772045509436444700,5.122444580078125,-4.996113173812628,10.772222878617047,-0.8752899656236172
1772045509446430700,5.1324306640625,-2.953033812791109,10.416791484111547,2.037878869768977
1772045509456416800,5.142416748046875,-1.0895984867364168,10.143905101823806,4.620696975898743
1772045509466402800,5.15240283203125,0.34467312299534675,10.183203677511214,6.684838998693228
1772045509476387800,5.162387939453125,0.8488275636989623,10.339241795963048,7.816283407512307
1772045509486373600,5.17237353515625,0.7117228399064391,10.423539204806088,7.614052277684212
1772045509496360000,5.18235986328125,0.9195556621991098,10.568137060832976,7.411531224998831
1772045509506345700,5.192345703125,2.0576165665484965,10.572267292505503,8.449860712268949
1772045509516331800,5.202331787109375,4.1037990081518885,10.645364092898369,10.40356258470416
1772045509526317800,5.21231787109375,6.859121798887848,10.670347727507352,13.065144430947303
1772045509536303900,5.222303955078125,9.81756068559289,10.48314056380987,15.959315720403193
1772045509546289700,5.23228955078125,12.236560102397203,9.906469972145556,18.404543803441523
1772045509556276000,5.24227587890625,13.48811382267475,9.037862260764836,19.872453625011442
1772045509566261800,5.25226171875,13.634768026709557,8.073259688484669,20.224345154953003
1772045509576247800,5.262247802734375,12.92234690234065,7.14985538803339,19.689175617456435
1772045509586233900,5.27223388671875,11.945928804582357,6.2134326160550115,18.53944911749363
1772045509596220000,5.282219970703125,11.413608226776123,5.565172121429443,17.398481093525884
1772045509606205700,5.292205810546875,11.176971553999184,4.938207512810826,16.027641653132438
1772045509616191700,5.302191650390625,11.119216115123033,4.0859474173799155,14.270197096812725
1772045509626177800,5.312177734375,11.085191095924376,3.1689348637923596,12.236161458468436
1772045509636163600,5.32216357421875,10.879034901607035,2.469989307068288,10.598096145766974
1772045509646150000,5.33214990234375,10.609517703491449,2.1429601234436033,9.66792892705202
1772045509656135700,5.3421357421875,10.224845016932488,2.0878511074230075,9.307911373800039
1772045509666121700,5.352121826171875,9.965932214939594,2.031413619277626,9.020613019800185
1772045509676107500,5.362107421875,9.832747733330725,1.9025918629229068,8.51080471805334
1772045509686093800,5.37209375,9.482056226828695,1.675375929442048,7.713233951926231
1772045509696079600,5.38207958984375,8.914923278838396,1.5057622901022434,7.157402734673023
1772045509706065700,5.392065673828125,8.28148392124772,1.6209049190640448,6.601143647396564
1772045509716051700,5.4020517578125,7.754405920270085,1.6248168318107723,5.992162439236044
1772045509726037800,5.412037841796875,7.410463888028263,1.597584833753109,4.817355274030566
1772045509736023600,5.4220234375,6.83770783945918,1.4002220406137407,2.8181039488196373
1772045509746009900,5.432009765625,5.92079640815854,1.21973234860301,0.027083237236738205
1772045509755995600,5.44199560546875,5.013755798009037,1.4103227249979973,-2.881217699858546
1772045509765981700,5.451981689453125,4.021450979810953,2.5685961040318013,-5.274695137393474
1772045509775966700,5.461966796875,2.0165397291421887,4.494152662956714,-7.973290663257241
1772045509785952800,5.471952880859375,-1.278116733032465,4.963137955927849,-12.610363019895553
1772045509795938800,5.481938720703125,-5.147689636680483,2.89753901232332,-20.354090309762952
1772045509805924600,5.491924560546875,-8.400659751248359,-0.5930893000889569,-30.920073991954325
1772045509815911000,5.501910888671875,-10.705869122743605,-1.7371110856041312,-41.96407032318115
1772045509825896700,5.511896728515625,-11.846874556112288,-2.8788743516027924,-48.1078630012989
1772045509835882800,5.5218828125,-11.084265213251113,-2.7015684041947123,-48.70233579163551
1772045509845868800,5.531868896484375,-9.711771575909852,-0.6466163076151162,-44.208452008748054
1772045509855854800,5.541854736328125,-8.447849372446537,1.1066569543693214,-36.51938686791658
1772045509865840600,5.551840576171875,-6.8086009874403475,2.6275334461688993,-29.715739118969438
1772045509875827000,5.561826904296875,-5.080658419936895,2.687322144438326,-25.15715811524391
1772045509885812700,5.571812744140625,-3.393443584141135,2.247958959531784,-22.197625588083266
1772045509895798800,5.581798828125,-2.1374691248118878,1.8080225047819316,-19.038924241274593
1772045509905784800,5.591784912109375,-1.1724848597377537,1.78003150505051,-15.005904404222964
1772045509915771000,5.60177099609375,-0.4737584987223148,2.366306814275682,-10.385119750040769
1772045509925756700,5.611756591796875,0.06424012472033501,3.038439475136995,-5.595296041536331
1772045509935743000,5.621742919921875,0.5117313787639141,3.5578912190198895,-1.0573509986042975
1772045509945728800,5.631728759765625,1.0833946636602283,4.0054593376919625,2.944430819618702
1772045509955714800,5.64171484375,1.6992223767146468,4.50261858574599,6.369691683781147
1772045509965700900,5.651700927734375,2.035131324626505,4.888589787682891,9.299767230311035
1772045509975687000,5.66168701171875,2.063461347053945,5.216220736593008,11.387255641901492
1772045509985672700,5.671672607421875,2.037420020085573,5.514881027084589,12.54679041917324
1772045509995658800,5.68165869140625,2.1391268288910386,5.685717486217618,12.956466614085436
1772045510005643800,5.691643798828125,2.3599989463031292,5.546060593724251,13.223511284607648
1772045510015629800,5.7016298828125,2.718397373920679,5.649840117150545,13.581436249494551
1772045510025615600,5.71161572265625,3.4799323655486103,5.864371341103315,14.285401680207253
1772045510035602000,5.721601806640625,4.286551238267124,6.069234573000669,15.043928722190856
1772045510045587700,5.731587646484375,4.689228660333156,6.261155321216583,15.773285783791541
1772045510055573800,5.74157373046875,4.644848543597758,6.470866577666998,16.51730031629801
1772045510065559800,5.751559814453125,4.035389781053364,6.7416697239398955,17.209161467719078
1772045510075545900,5.7615458984375,3.0404473078280687,6.943005366232991,17.835597084027526
1772045510085531600,5.77153173828125,1.8265876506507395,6.9771917134732,18.222347161382437
1772045510095518000,5.78151806640625,0.46508244031369683,6.867039147883653,18.28934622942209
1772045510105503700,5.791503662109375,-0.6051463061727583,6.735929718983173,18.032786712557076
1772045510115489800,5.80148974609375,-1.2331003642201424,6.4378317385494706,17.386907560110092
1772045510125475600,5.8114755859375,-1.5141092626869677,5.833326214498281,16.104410420036317
1772045510135462000,5.8214619140625,-1.5432110001392663,4.919406366229057,14.494386960470676
1772045510145447700,5.83144775390625,-1.546789297017455,4.085834604655206,12.867724500793218
1772045510155433700,5.841433837890625,-1.5344430256634949,3.273630040758848,11.636304052484034
1772045510165419800,5.851419677734375,-1.4325813185572622,2.515888596194982,10.9410573502779
1772045510175405800,5.86140576171875,-1.3426771757483482,2.0721420816376805,10.682719717824458
1772045510185391600,5.8713916015625,-1.4482757312953471,1.8505780364386737,10.70849245698452
1772045510195378000,5.8813779296875,-1.8958301137030125,1.694725357556343,10.608522847235202
1772045510205363700,5.89136376953125,-2.828212085857987,1.5218706904686987,10.118001429760456
1772045510215349800,5.901349853515625,-3.612656243908405,1.1007551099143922,9.557285947597027
1772045510225334500,5.91133447265625,-3.7122166883349417,0.5814734619013965,8.661213306185603
1772045510235320800,5.92132080078125,-3.1778549600899217,0.002056055746972561,7.42955086581409
1772045510245306600,5.931306640625,-2.6116093163281677,-0.7437716636613011,5.649957606050372
1772045510255292700,5.941292724609375,-2.2457535584419963,-1.2730129801526664,3.8940386518627403
1772045510265278700,5.95127880859375,-2.4726018276542425,-1.7074807942330836,2.1493056930780408
1772045510275264800,5.9612646484375,-3.614564123356342,-1.9460940277799963,-0.662699938866496
1772045510285250600,5.97125048828125,-5.615853676396608,-2.0321470481187105,-4.417727010402083
1772045510295236900,5.98123681640625,-8.10449420018196,-2.133585269115865,-10.102593432748318
1772045510305222700,5.99122265625,-12.277309461414813,-3.228596136289835,-18.707522541654107
1772045510315208700,6.001208740234375,-18.42355713146925,-5.170195482999086,-29.838196454858778
1772045510325194800,6.01119482421875,-25.021476556122302,-5.070933729258179,-40.58808709015846
1772045510335180800,6.021180908203125,-31.6356082799077,-4.992812963223457,-49.37076696763038
1772045510345166600,6.03116650390625,-34.72375432749986,-4.773297521117329,-53.62217236597537
1772045510355153000,6.04115283203125,-33.00202172055244,-0.4770305791955441,-51.60387907116413
1772045510365138700,6.051138671875,-26.569594471395014,1.2469045792974531,-39.82185838775634
1772045510375124700,6.061124755859375,-17.554062115859985,3.633654900534451,-27.476131808197497
1772045510385110800,6.07111083984375,-9.500733454769849,4.309683399790525,-18.360094420862197
1772045510395096800,6.081096923828125,-3.834130418866873,3.4774335344702005,-12.623196782505511
1772045510405082600,6.09108251953125,-1.0655734680265188,2.782087171281874,-9.593164485707879
1772045510415069000,6.10106884765625,-0.45712008313238617,3.0049709207773208,-7.473286547166109
1772045510425054700,6.1110546875,-0.3236684750199318,3.3745778478905555,-5.071220144984125
1772045510435040800,6.121040771484375,0.6744763013780116,4.227192455847561,-2.7089462394863366
1772045510445026800,6.13102685546875,1.7691940308243035,5.168559406229853,-0.2702104410767555
1772045510455012900,6.141012939453125,2.7444267181903124,5.735217722445726,2.2346511496692893
1772045510464998700,6.15099853515625,4.079694202204048,6.234681155788898,4.5214200245887035
1772045510474984700,6.160984619140625,5.676604789957404,6.72944386409521,6.702727706605196
1772045510484970800,6.170970703125,7.18661421611011,7.378389418375492,8.60767285465598
1772045510494956800,6.180956787109375,7.902292880970239,8.097243790662288,9.935934551560878
1772045510504941800,6.19094189453125,7.6670613988161085,8.445204995417594,10.663783546686172
1772045510514927900,6.200927978515625,6.692069534468651,8.567809630823135,10.806861645799875
1772045510524913700,6.21091357421875,5.682080591019988,8.594213653624058,10.65662432258129
1772045510534899700,6.220899658203125,5.139373059234023,8.539370887324214,10.5495177005589
1772045510544885800,6.2308857421875,5.1150563641011715,8.430464522403478,10.596053826284408
1772045510554871800,6.240871826171875,5.7278042313188315,8.106609584900736,11.054964299964904
1772045510564857600,6.250857666015625,6.8709478457599875,7.747893177375197,12.065933486622571
1772045510574843600,6.26084375,8.108609234285353,7.581404976579546,13.238900576919317
1772045510584829700,6.27082958984375,9.251033886802196,7.554421692585945,14.366064531940221
1772045510594815700,6.280815673828125,10.09193993678689,7.487094123244285,15.281763664841652
1772045510604801500,6.290801513671875,10.406521434509754,7.380959561124444,15.886279710286855
1772045510614787800,6.300787841796875,10.115352376556396,7.322507956677675,16.019606815236806
1772045510624773600,6.310773681640625,9.25848537185192,7.328630238950252,15.668023912853002
1772045510634759700,6.320759765625,8.058148628592491,7.2795607953548425,15.029382310444115
1772045510644745700,6.330745849609375,6.714943629577755,7.134727961528301,14.34439630548954
1772045510654731800,6.340731689453125,5.437754532784223,7.050723982673883,13.784902474075555
1772045510664717600,6.350717529296875,4.469400206755101,6.95520433807075,13.433776667809486
1772045510674704000,6.360703857421875,3.962952905873954,6.556676144638657,13.074175294142961
1772045510684689700,6.370689697265625,3.861822727912664,6.0610354844540355,12.707566672062873
1772045510694675700,6.38067578125,4.074530243569613,5.494743078941107,12.397509373766184
1772045510704661800,6.390661865234375,4.526056744478643,4.978626616960764,12.017663668972252
1772045510714647800,6.400647705078125,4.758587443241477,4.448457079708576,11.388957769644259
1772045510724633600,6.410633544921875,4.817918753132224,3.810169989825785,10.454033711791038
1772045510734620000,6.420619873046875,4.67066424511671,3.118497054453194,9.366127415925265
1772045510744605700,6.430605712890625,4.201340513971448,2.640609200841188,8.441858607599139
1772045510754591700,6.440591796875,3.161989282438159,2.5872487820535897,7.536101607519388
1772045510764577800,6.450577880859375,1.867676616886258,2.385578062587231,6.487082968452572
1772045510774563800,6.460563720703125,1.125312774196267,1.4969649434015153,4.367711810389161
1772045510784549600,6.470549560546875,1.0665341297522186,0.4621360115982592,0.23647592925727365
1772045510794535700,6.48053564453125,1.4038304403692483,-0.18947635073848068,-5.164266677471995
1772045510804521700,6.490521728515625,1.1714435339912772,0.5072139013394713,-9.684231242555379
1772045510814507800,6.5005078125,-1.2861457257092,2.007821877418458,-12.8532108222723
1772045510824493600,6.51049365234375,-6.2662891769737,2.406242664953321,-16.895633278441426
1772045510834479900,6.52047998046875,-11.373561463069915,1.8056161742925643,-26.295432662343977
1772045510844465700,6.530465576171875,-14.360045125520228,1.417833539019525,-41.356536975741385
1772045510854451700,6.54045166015625,-15.49290583087802,-2.3026158478707073,-53.23075780394077
1772045510864437800,6.550437744140625,-13.52774791392684,-6.184193662089109,-56.551080622291565
1772045510874423800,6.560423828125,-8.878421640393137,-6.249532687962055,-51.14566534757614
1772045510884409600,6.57040966796875,-5.07270424606204,-4.998941090714931,-39.78088574137688
1772045510894396000,6.58039599609375,-3.1016961417779325,-2.976587414596975,-29.437586194455623
1772045510904381700,6.590381591796875,-2.8243203391164537,-1.8722994543813167,-22.875053725004197
1772045510914366700,6.60036669921875,-3.813593534533679,-2.311670968724787,-19.407499194991587
1772045510924352800,6.610352783203125,-4.949381817775964,-3.3510230770409106,-17.34632303626537
1772045510934338800,6.6203388671875,-5.185845472073555,-3.6264755104243753,-15.170225197851657
1772045510944324600,6.63032470703125,-4.294554511980712,-3.034496874991059,-12.13684066801667
1772045510954310700,6.640310546875,-2.7751535726264116,-2.2488505015440285,-8.539843181011081
1772045510964296700,6.650296630859375,-1.2236410464793444,-1.6240120912991463,-4.975318807587027
1772045510974282800,6.66028271484375,0.02122282077074051,-0.9094411684852093,-1.8285066360145805
1772045510984268500,6.6702685546875,0.7022264780908822,-0.02053085645120591,1.147113102594018
1772045510994254800,6.6802548828125,0.9478618653595448,0.7943558226685971,4.089707354435324
1772045511004240600,6.69024072265625,0.9071195206046104,1.6896600369907915,6.622531303340196
1772045511014226700,6.700226806640625,0.7223425066635012,2.4454890720620748,8.550853819847106
1772045511024212700,6.710212646484375,0.7065054705843329,2.9732863272249697,9.936642992091178
1772045511034198800,6.72019873046875,1.0993114869773388,3.3930835186570882,10.87141741234064
1772045511044184800,6.730184814453125,1.8983898811884223,3.6937092640027402,11.539946788012982
1772045511054171000,6.7401708984375,2.8364269564956426,3.8602936186492443,12.178646842610835
1772045511064156700,6.75015673828125,3.72678531191349,3.94417981634289,12.8222884452641
1772045511074143000,6.76014306640625,4.410392429730296,4.054208755552769,13.428095115041732
1772045511084128800,6.770128662109375,4.782857084362209,4.302945323707163,14.245253209692239
1772045511094114800,6.78011474609375,4.918608493849635,4.701095915998518,15.260987418794631
1772045511104100900,6.790100830078125,4.898634211835265,5.272734650975465,16.369652425050734
1772045511114087000,6.8000869140625,4.725759524872899,5.929926640075445,17.438096480077505
1772045511124072700,6.81007275390625,4.345413469341397,6.415701155284046,18.266511297279596
1772045511134059000,6.82005908203125,3.602320143333077,6.706129039481282,18.712846367025374
1772045511144044800,6.830044921875,2.5653794800728558,6.872899564349651,18.68683514293432
1772045511154030800,6.84003076171875,1.6123434269458055,6.851697786366939,18.22361089770794
1772045511164017000,6.850016845703125,1.023761448213458,6.7111202718973155,17.544696906143425
1772045511174003000,6.8600029296875,0.8606507610268891,6.411938587880134,16.844156773704288
1772045511183988700,6.86998876953125,1.1079454598098992,5.82165331236124,16.235802757531403
1772045511193975000,6.87997509765625,1.7891148290857672,5.287004583868384,15.786854874938726
1772045511203960800,6.8899609375,2.686643806785345,4.833363575023412,15.47147608935833
1772045511213947000,6.89994677734375,3.3644097973585128,4.284421240501105,15.084364777475594
1772045511223933000,6.909932861328125,3.683994802457094,3.677980364473164,14.568870246785877
1772045511233919000,6.9199189453125,3.760558402177691,3.1201743400156494,13.903741619467734
1772045511243904800,6.92990478515625,3.686889354854822,2.570373635098338,12.918448141336441
1772045511253891000,6.93989111328125,3.394859296157956,2.0306670386940238,11.728340531146525
1772045511263876900,6.949876953125,2.6424890232384204,1.57610745369941,10.45708842318654
1772045511273863000,6.95986279296875,1.7483283529281615,1.3198136020332574,9.309043008178472
1772045511283848700,6.9698486328125,0.9931830623373389,1.038296315652877,7.963301184162497
1772045511293835000,6.9798349609375,0.4076172165557742,0.1280379125006497,6.371212025216222
1772045511303820800,6.98982080078125,0.5192015685141086,-0.5064363410957158,4.425431593430042
1772045511313806800,6.999806884765625,1.1425833502098917,0.2460239481948316,2.0453513976067303
1772045511323793000,7.00979296875,0.8904840276241301,1.8053889414079487,-2.3251170180141925
1772045511333779000,7.019779052734375,-1.4674895503312348,1.3660530828997492,-8.819210742011666
1772045511343764700,7.0297646484375,-5.416625235515832,0.011209668539464474,-19.20309305921197
1772045511353751000,7.0397509765625,-10.85024953662753,0.32905221388489003,-35.32128533636331
1772045511363736800,7.04973681640625,-16.54331621656418,-3.5073215999945995,-49.72846630706787
1772045511373723000,7.059722900390625,-18.033667002522943,-6.8425809984534975,-56.43538737370967
1772045511383709000,7.069708984375,-14.392576106768846,-6.030843175286054,-52.18462261135578
1772045511393695000,7.079695068359375,-9.71453577992618,-3.9025197722211478,-39.793431919217106
1772045511403680800,7.0896806640625,-6.122317343890667,-2.2212176676005124,-27.488348315691947
1772045511413667000,7.0996669921875,-4.175008679623901,-2.055285054861009,-19.09846714808941
1772045511423652900,7.10965283203125,-3.6101892692729827,-2.515787181647122,-15.403786116445064
1772045511433639000,7.119638916015625,-3.829409820085764,-2.7539523791655895,-14.974417379069328
1772045511443625000,7.129625,-3.8496339852079746,-2.8519793304145336,-15.215319892597197
1772045511453611000,7.139611083984375,-2.974762244996428,-2.9505595316320656,-15.161840815865993
1772045511463596800,7.1495966796875,-1.3585212260901927,-2.8247479168787595,-14.591251589941978
1772045511473583000,7.1595830078125,0.3872562733113766,-2.504118955685198,-13.12932376539111
1772045511483569000,7.16956884765625,1.4593684954568742,-2.015997000567615,-10.774714110910892
1772045511493555000,7.179554931640625,1.4070190072774886,-1.3303501936167477,-7.943217596554756
1772045511503541000,7.189541015625,0.5372630026444792,-0.5147688467636704,-5.130439226672053
1772045511513527000,7.199527099609375,-0.6894432766243815,0.20602102363035082,-2.5184113926708696
1772045511523512800,7.209512939453125,-1.6810405310750007,0.8998584435604512,-0.2075479409366846
1772045511533499000,7.219498779296875,-1.8763988525241613,1.78333288468346,1.646475998172164
1772045511543485000,7.22948486328125,-1.290560035020113,2.8240853613167998,3.110011842441559
1772045511553471000,7.239470947265625,-0.22899580263495445,3.8779210452765223,4.406660841986537
1772045511563456800,7.249456787109375,0.9883055194288491,4.827281624761223,5.740976432102919
1772045511573442800,7.25944287109375,1.9226818802714347,5.498576958015561,7.1074115000575775
1772045511583428900,7.269428955078125,2.5764281128317115,5.933755258452892,8.342912495678663
1772045511593414700,7.27941455078125,3.1850323043733835,6.21817308858037,9.403611635667085
1772045511603401000,7.28940087890625,3.8637393751889464,6.303333251732587,10.325067140138149
1772045511613386800,7.29938671875,4.634413951084017,6.351665028703212,11.05943004720211
1772045511623372800,7.309372802734375,5.329717936435341,6.464468401062488,11.570465844917297
1772045511633358800,7.31935888671875,5.93504588278532,6.619262656933069,11.99816051160097
1772045511643345000,7.329344970703125,6.467961503875255,6.799281370431184,12.409774981099366
1772045511653330700,7.33933056640625,6.906106252902746,7.048060900944471,12.811269038599729
1772045511663317000,7.34931689453125,7.029053418135643,7.312451257565617,13.201702772903442
1772045511673302800,7.359302734375,6.758211108896136,7.523968102133273,13.556166199159621
1772045511683288800,7.369288818359375,6.16142010474503,7.8034630889058105,13.813816433870791
1772045511693275000,7.37927490234375,5.458220982229709,8.11343037083149,13.956853616452216
1772045511703261000,7.389260986328125,4.716237078768015,8.320787173110245,13.913800072145461
1772045511713246700,7.399246826171875,4.0472187505349515,8.473979254481195,13.770670535105467
1772045511723233000,7.40923291015625,3.7116599312350154,8.570530580219627,13.606725004529952
1772045511733218800,7.41921875,3.711774205264449,8.537842362582683,13.59723938330412
1772045511743204900,7.429204833984375,3.916682445347309,8.404902211123705,13.71691205691099
1772045511753191000,7.43919091796875,4.218244887021184,8.162080712231994,13.847536332643031
1772045511763177000,7.449177001953125,4.488346314765512,7.8693398749172685,13.880395815193653
1772045511773162800,7.459162841796875,4.679680495265126,7.499913272807001,13.797580753862857
1772045511783148800,7.469148681640625,4.940367321193218,7.14442634872198,13.673079929447173
1772045511793134800,7.479134765625,5.235765979540348,6.7623921939730645,13.470840031790733
1772045511803121000,7.489120849609375,5.386742138427496,6.258771056428551,13.011136946427822
1772045511813106700,7.499106689453125,4.978481071010232,5.46594017830491,12.451750667041539
1772045511823093000,7.509093017578125,3.9856884692952033,4.333242554554343,11.43776768552065
1772045511833078800,7.519078857421875,2.7166546219065784,2.650514801044762,9.484723984733224
1772045511843064800,7.52906494140625,1.503407251408696,0.7161018587082624,6.610419425264
1772045511853051000,7.53905078125,-0.24054332482665775,-0.5425953035831451,2.153656874024868
1772045511863037000,7.549036865234375,-3.6773844444066284,-1.3096300616711378,-4.859703884938359
1772045511873022700,7.559022705078125,-8.138011854380368,-2.857700338409841,-13.650229799735545
1772045511883009000,7.569009033203125,-13.249222064447402,-4.178085310590267,-23.585430191802978
1772045511892994800,7.578994873046875,-18.56359220962524,-4.837608372986316,-31.744275575375553
1772045511902980900,7.58898095703125,-21.803477801692484,-5.355154575508832,-35.123209572649
1772045511912967000,7.598966796875,-21.041513770997522,-5.6753544976353645,-33.675839850282664
1772045511922953000,7.608952880859375,-17.312248917227983,-5.364741903543472,-29.305505290174484
1772045511932938800,7.618938720703125,-13.575492830920219,-4.027062974473834,-24.360810168910024
1772045511942925000,7.628925048828125,-11.649811184310913,-2.9943337914288044,-20.05005943214893
1772045511952910800,7.638910888671875,-10.860015728360414,-2.5155431437581774,-16.750190203762052
1772045511962897000,7.64889697265625,-10.520523076742887,-2.1947271355599165,-14.50340496418476
1772045511972883000,7.658883056640625,-10.04074283351302,-1.9781128217227755,-12.678354606103897
1772045511982868000,7.668867919921875,-8.695173443454504,-1.6898863930925725,-10.650063648891448
1772045511992853800,7.678853759765625,-6.593792700111866,-1.2372981081709264,-8.51209125073254
1772045512002839800,7.68883984375,-4.408932878571749,-0.6149459617838263,-6.5827768005788325
1772045512012825900,7.698825927734375,-2.5872809307575224,-0.1530547187268734,-5.1064136234402655
1772045512022812000,7.70881201171875,-1.0088257448881863,0.12294877266809344,-4.29654510127604
1772045512032797700,7.718797607421875,0.3699398123294115,0.32286694937869903,-3.7403380364477634
1772045512042784300,7.7287841796875,1.3748258796811104,0.3491031413320452,-2.928857402911782
1772045512052770000,7.73877001953125,2.099925868359208,0.2698504486579448,-1.8927613737821578
1772045512062756000,7.748756103515625,2.8135025925040242,0.4792595803566277,-0.9545224922925233
1772045512072742100,7.7587421875,3.334446620771289,0.7538725672412663,-0.2780082553461194
1772045512082728200,7.768728271484375,3.675405837810039,1.005432010796666,0.22158494185656308
1772045512092714000,7.7787138671875,3.8141877010345455,1.2767276167616248,0.6232470494002104
1772045512102700300,7.7887001953125,3.9593881991297004,1.6115429242178796,0.6488833026990294
1772045512112686000,7.79868603515625,4.4836119797199965,1.9725263998925684,0.49204877317249773
1772045512122672000,7.808672119140625,4.98682219837606,2.1408457616381344,0.6503264872446656
1772045512132658200,7.818658203125,5.688004135850072,2.1716670163594185,0.6475128911286592
1772045512142644200,7.828644287109375,6.1429205714583395,2.1574362464331087,0.43642683919370173
1772045512152630000,7.838630126953125,6.125857208454608,1.9809652885444462,0.5024263748019934
1772045512162616000,7.848615966796875,6.182940447157621,1.7036621127277611,0.4281520550623536
1772045512172602000,7.85860205078125,6.476579110094905,1.367701288498193,0.43449850147962565
1772045512182588200,7.868588134765625,6.558418604391813,1.078014431926608,0.8665387961521744
1772045512192574000,7.878573974609375,6.3661939047932625,1.4035980929180978,0.6904866481974721
1772045512202560300,7.888560302734375,6.148600955182314,1.3964840231291948,0.44819268031120296
1772045512212546000,7.898546142578125,5.564462511855363,1.224029169014096,0.34699791268110275
1772045512222532000,7.908531982421875,4.414892079237103,-0.11542173816412686,1.155220421203971
1772045512232518100,7.91851806640625,3.6067812143951654,-0.6510716065235436,1.0900649352043867
1772045512242504200,7.928504150390625,3.5600691475808617,-0.32990897684469817,0.1513055369719863
1772045512252490000,7.938489990234375,3.6404368157595393,0.05030307704359293,-0.557982696198672
1772045512262476300,7.948476318359375,3.232555103048682,0.3130231623649597,-0.796180188551545
1772045512272462000,7.958462158203125,2.6913907090514897,0.7226980421029031,-0.6571243306912481
1772045512282448100,7.9684482421875,2.0267238540261983,1.143197244324535,-0.421162196175009
1772045512292434200,7.97843408203125,1.3725403990924359,1.4310586390346287,-0.3321450653336942
1772045512302420200,7.988420166015625,0.7632575776368379,1.536467371097952,-0.31632951043397184
1772045512312406000,7.998406005859375,0.13502631008327007,1.455968916146457,-0.2477197923272848
1772045512322392300,8.008392333984375,-0.3639472939163446,1.33492495418638,-0.10193389555960893
1772045512332378000,8.018378173828125,-0.6747539492756128,1.2672076548747717,0.01834331981167197
1772045512342364200,8.0283642578125,-0.7547247270911932,1.1156577877528966,0.07178527940288186
1772045512352350200,8.03835009765625,-0.5669575914233923,1.0970319977380334,0.0905557385854423
1772045512362336300,8.048336181640625,-0.2403343582510948,1.2085317401528357,0.20469678928926585
1772045512372322000,8.058322021484376,0.07387947520315646,1.2205590086854994,0.4637564524069428
1772045512382308400,8.068308349609374,0.18107962072789668,1.005514866774529,0.6326577787589281
1772045512392294100,8.078294189453125,0.32972938249409195,0.771416918694973,0.6859296424802392
1772045512402280200,8.0882802734375,0.5757797803044319,0.7462284091636538,0.6694095925729722
1772045512412266000,8.098265869140626,0.7903191875636577,0.7832340516082942,0.6091103874981403
1772045512422252300,8.108252197265625,0.9180810596019029,0.423488739426434,0.5829647964376956
1772045512432238000,8.118238037109375,1.0066559996336697,-0.10217164983823895,0.6840879601363092
1772045512442224000,8.12822412109375,1.1708178033083676,-0.3309330591954291,0.5679748787071556
1772045512452210200,8.138210205078124,1.5093576842457055,-0.3007945260412991,0.4363851189438253
1772045512462196200,8.1481962890625,1.7962983108490704,-0.42315190868750213,0.6390140889830886
1772045512472182000,8.15818212890625,2.022665518546104,-0.6000878537394106,0.8503274468678981
1772045512482168300,8.168168212890626,2.1343249815672634,-0.66273457178846,0.7827988750614225
1772045512492154000,8.178154052734374,2.111908567097783,-0.755363024994731,0.5338927224937826
1772045512502140200,8.18814013671875,1.9659429298490285,-0.9162181883394718,0.267572859114781
1772045512512126200,8.198126220703125,1.7350141133248804,-0.9875123232245445,-0.014430676412582397
1772045512522112300,8.2081123046875,1.4812316599577664,-0.9252142724826932,-0.2994282061241567
1772045512532098000,8.21809814453125,1.209286942434311,-0.7081744267098605,-0.46882528010383245
1772045512542084000,8.228083984375,0.8037251971036196,-0.5582328715674579,-0.542095172041282
1772045512552070100,8.238070068359375,0.3784323308646679,-0.4550254489406943,-0.49151722357906397
1772045512562056200,8.24805615234375,0.025780337944626808,-0.33000936847925183,-0.41709480060562487
1772045512572042200,8.258042236328125,-0.20537527307271955,-0.24675869221016763,-0.3305153452400118
1772045512582028000,8.268028076171875,-0.30718320416510103,-0.18410174502804874,-0.19424772985875605
1772045512592014000,8.27801416015625,-0.30955753208100795,-0.18381503704115748,-0.0742273387927562
1772045512602000100,8.288000244140624,-0.2287625784009695,-0.27241613442748785,0.0442453113745898
1772045512611986200,8.297986083984375,-0.05589490570127964,-0.38553485634624957,0.1314054161723703
1772045512621972000,8.307971923828125,0.1271340955287218,-0.5097440043389797,0.16413769214674828
1772045512631957000,8.31795703125,0.3211298964530229,-0.6202107504442333,0.18094861475937069
1772045512641943300,8.327943359375,0.5878939964681863,-0.6713321581333875,0.20715331559590994
1772045512651929000,8.33792919921875,0.884714212051034,-0.7289435123637318,0.228905201742053
1772045512661915100,8.3479150390625,1.0660533604979514,-0.799317317533493,0.2775660645365715
1772045512671901200,8.357901123046876,1.077061661246419,-0.8270160563200711,0.3142361914165318
1772045512681887200,8.36788720703125,0.9850397956311702,-0.7752870381265878,0.26987163757644594
1772045512691873000,8.377873046875,0.8701724764794111,-0.6691489688754081,0.144702558510378
1772045512701859300,8.387859375,0.6532675091326237,-0.5726125484451651,-0.02559402159228921
1772045512711845000,8.39784521484375,0.27165070301294325,-0.5316372717171907,-0.20682854062095282
1772045512721831200,8.4078310546875,-0.09617372459769248,-0.45479017888009543,-0.3722023504339158
1772045512731817200,8.417817138671875,-0.2521539753824472,-0.2915606876194477,-0.4777103050880134
1772045512741803300,8.42780322265625,-0.2811947764277458,-0.19819179130941628,-0.47638943174779413
1772045512751789000,8.4377890625,-0.3038040831208229,-0.2207137119799852,-0.3640558688573539
1772045512761775000,8.447775146484375,-0.2852951974838972,-0.22137597528100011,-0.32301015724167226
1772045512771761200,8.45776123046875,-0.18708616766631603,-0.16632131979614495,-0.30283757617622614
1772045512781747200,8.467747314453124,-0.06431085186898708,-0.16348989576250314,-0.17492555507756768
1772045512791733000,8.47773291015625,0.040184710872173304,-0.2273389753386378,-0.0021340894192457198
1772045512801719300,8.48771923828125,0.21586276481747627,-0.21699702954441308,0.11179214949011802
1772045512811705000,8.497705078125,0.37888182819783683,-0.2257698263257742,0.1864405632391572
1772045512821691100,8.507691162109374,0.4418745832055807,-0.29714199488312004,0.17087328401207924
1772045512831677200,8.51767724609375,0.432903341242671,-0.3025707419335842,0.030429186663776635
1772045512841663200,8.527663330078125,0.3687292674958706,-0.3048869099214673,-0.037005569379404184
1772045512851649000,8.53764892578125,0.34365444747209545,-0.34792964057326314,0.035927711014822124
1772045512861635300,8.54763525390625,0.424305608767271,-0.3245598709017038,0.12406959339156746
1772045512871621000,8.55762109375,0.5393073679536581,-0.28874679924249647,0.13946692287921905
1772045512881607200,8.567607177734375,0.6067489190638065,-0.3494976205423474,0.10162504880614578
1772045512891593200,8.57759326171875,0.6059042849332094,-0.40849399939030406,0.004083031529933214
1772045512901579300,8.587579345703125,0.5386117869049311,-0.43943741918653245,-0.06378624347299337
1772045512911565000,8.59756494140625,0.44799218930304047,-0.4681356904044747,-0.09571845511086284
1772045512921551000,8.607551025390626,0.3696381990343332,-0.467713665600121,-0.09005297669507563
1772045512931537200,8.617537109375,0.2843400887161493,-0.5025029471695422,-0.05612184632495045
1772045512941523200,8.627523193359375,0.15708265906870364,-0.5560527510493993,-0.0728529086343944
1772045512951509200,8.63750927734375,0.13014964395761489,-0.5262859738171101,-0.11936353459246456
1772045512961495000,8.6474951171875,0.17721300842761992,-0.4869131638497114,-0.1511551687158644
1772045512971481000,8.657481201171874,0.19411738147735594,-0.48350189410150046,-0.14284597085826098
1772045512981467100,8.667467041015625,0.19906126762032508,-0.4530310602530837,-0.10860950086601077
1772045512991452200,8.6774521484375,0.30392332558631896,-0.38734278255105015,0.008385185703262686
1772045513001438200,8.687438232421876,0.41471886525452134,-0.32137773373425005,0.14174480468332767
1772045513011424000,8.697424072265624,0.4790606967836618,-0.2808817649558186,0.2412416823543608
1772045513021410300,8.707410400390625,0.5637193401545286,-0.2728378669708967,0.34787644908130166
1772045513031396000,8.71739599609375,0.6645341685563325,-0.28033172985762356,0.41772491520270705
1772045513041382700,8.727382568359374,0.6931669733226299,-0.2480094229236245,0.35582002849690614
1772045513051368400,8.737368408203125,0.6120201374650002,-0.2364297520279884,0.3741801533129066
1772045513061354500,8.7473544921875,0.5446504825472831,-0.23539047210812566,0.3918209143457934
1772045513071340500,8.757340576171876,0.534411997127533,-0.17626111453026533,0.31214404144287106
1772045513081326600,8.76732666015625,0.6065121876984835,-0.14352467383742332,0.2959397794865072
1772045513091312400,8.7773125,0.7380722829759121,-0.10948387254774569,0.30928280679285525
1772045513101298700,8.787298583984375,0.729082920834422,-0.1338733406558633,0.3378751699509099
1772045513111284500,8.797284423828126,0.6167758075594901,-0.24490882655978202,0.32368542615473267
1772045513121270500,8.8072705078125,0.4518459421217441,-0.2474073653772473,0.2664045094551518
1772045513131256600,8.817256591796875,0.2763186948239803,-0.2272363917469978,0.1540882630256936
1772045513141242600,8.82724267578125,0.13632570224404333,-0.162537125082314,0.024253676366619764
