time,seconds_elapsed,z,y,x
1772045504393524700,0.079524658203125,-2.2155301570892334,-2.3707964420318604,0.5930540561676025
1772045504403510500,0.089510498046875,-2.203258991241455,-2.4193928241729736,0.4506542980670929
1772045504413496800,0.099496826171875,-2.1174962520599365,-2.4795498847961426,0.2716616690158844
1772045504423482600,0.109482666015625,-1.9295378923416138,-2.4776034355163574,0.047027770429849625
1772045504433468700,0.11946875,-1.7193903923034668,-2.2983479499816895,-0.10063519328832626
1772045504443454700,0.129454833984375,-1.4863693714141846,-2.0240252017974854,-0.17856620252132416
1772045504453440800,0.139440673828125,-1.2172906398773193,-1.8282370567321777,-0.24119500815868378
1772045504463425500,0.149425537109375,-0.970836341381073,-1.7563133239746094,-0.32746702432632446
1772045504473411600,0.15941162109375,-0.8009142279624939,-1.7293184995651245,-0.44112953543663025
1772045504483397600,0.169397705078125,-0.7363423705101013,-1.7128692865371704,-0.5809476375579834
1772045504493383700,0.1793837890625,-0.7619073987007141,-1.6749340295791626,-0.7540730834007263
1772045504503369500,0.189369384765625,-0.8461564779281616,-1.5538665056228638,-0.9523710012435913
1772045504513355800,0.199355712890625,-0.9425559639930725,-1.31911039352417,-1.087984561920166
1772045504523341600,0.209341552734375,-1.0198436975479126,-0.9892253875732422,-1.126325249671936
1772045504533327600,0.21932763671875,-1.0908167362213135,-0.6938576698303223,-1.0835185050964355
1772045504543313700,0.229313720703125,-1.193372368812561,-0.5443041324615479,-1.0136510133743286
1772045504553299700,0.2392998046875,-1.2829668521881104,-0.5286672115325928,-0.9412004947662354
1772045504563285500,0.249285400390625,-1.3052181005477905,-0.5787269473075867,-0.8522008657455444
1772045504573271600,0.259271484375,-1.2366162538528442,-0.6092504858970642,-0.7530344724655151
1772045504583257600,0.269257568359375,-1.1015748977661133,-0.6904699802398682,-0.6940869688987732
1772045504593243600,0.27924365234375,-1.0197488069534302,-0.7283759117126465,-0.6636736392974854
1772045504603229400,0.2892294921875,-1.0245918035507202,-0.7224887013435364,-0.6351727843284607
1772045504613215700,0.2992158203125,-1.1557731628417969,-0.8115145564079285,-0.6172564625740051
1772045504623201500,0.309201416015625,-1.470829963684082,-1.1684801578521729,-0.6486753821372986
1772045504633187600,0.3191875,-1.872442364692688,-1.8178777694702148,-0.8284151554107666
1772045504643173600,0.329173583984375,-2.1672933101654053,-2.5369436740875244,-1.1393053531646729
1772045504653159700,0.33915966796875,-2.342909336090088,-2.3193447589874268,-1.6157268285751343
1772045504663145500,0.3491455078125,-2.532296895980835,-2.0139758586883545,-1.8557496070861816
1772045504673131800,0.3591318359375,-2.870675563812256,-1.5545332431793213,-1.9494792222976685
1772045504683117600,0.36911767578125,-2.996964931488037,-1.0299876928329468,-1.8066561222076416
1772045504693103600,0.379103515625,-2.8462064266204834,-0.3497248589992523,-1.4563523530960083
1772045504703089700,0.389089599609375,-2.3206067085266113,0.5105531215667725,-0.9809269905090332
1772045504713075700,0.39907568359375,-1.6411254405975342,1.2875210046768188,-0.4976966381072998
1772045504723061500,0.4090615234375,-1.0469568967819214,1.7013216018676758,-0.053326915949583054
1772045504733047800,0.4190478515625,-0.636845052242279,1.6585673093795776,0.42267781496047974
1772045504743033600,0.42903369140625,-0.4453001320362091,1.0338528156280518,0.9643186330795288
1772045504753019600,0.43901953125,-0.43690282106399536,-0.04191500321030617,1.5499449968338013
1772045504763005700,0.449005615234375,-0.5787089467048645,-1.4719864130020142,2.023615837097168
1772045504772991700,0.45899169921875,-0.8835787773132324,-2.7687594890594482,2.2996938228607178
1772045504782977500,0.4689775390625,-1.1430952548980713,-3.653902053833008,2.220076560974121
1772045504792963800,0.4789638671875,-1.2707734107971191,-3.926408290863037,1.7454533576965332
1772045504802949600,0.48894970703125,-1.3057979345321655,-3.643991708755493,0.9396976828575134
1772045504812935700,0.498935791015625,-1.3666936159133911,-2.927936315536499,0.05794873833656311
1772045504822920400,0.50892041015625,-1.478543758392334,-2.045933961868286,-0.6311486959457397
1772045504832906800,0.51890673828125,-1.6403074264526367,-1.1669436693191528,-1.0326488018035889
1772045504842892500,0.528892578125,-1.7982419729232788,-0.5429162383079529,-1.147483229637146
1772045504852878600,0.538878662109375,-1.9217677116394043,-0.25224924087524414,-1.0746357440948486
1772045504862864600,0.54886474609375,-2.006476402282715,-0.23336954414844513,-0.8642228245735168
1772045504872850700,0.5588505859375,-2.0899930000305176,-0.4723137319087982,-0.5734121203422546
1772045504882836500,0.56883642578125,-2.177734851837158,-0.8766761422157288,-0.2525731325149536
1772045504892822800,0.57882275390625,-2.248584508895874,-1.2813645601272583,0.038589686155319214
1772045504902808600,0.58880859375,-2.2976465225219727,-1.5285876989364624,0.23457837104797363
1772045504912794600,0.598794677734375,-2.33404541015625,-1.579620122909546,0.2775474488735199
1772045504922780400,0.608780517578125,-2.371403455734253,-1.4257844686508179,0.18569371104240417
1772045504932766700,0.6187666015625,-2.4076955318450928,-1.1517462730407715,-0.001861019292846322
1772045504942752500,0.62875244140625,-2.4468932151794434,-0.8284716010093689,-0.23119327425956726
1772045504952738600,0.638738525390625,-2.4931390285491943,-0.5338099002838135,-0.45031511783599854
1772045504962724600,0.648724609375,-2.5450496673583984,-0.305955171585083,-0.6251888871192932
1772045504972710700,0.658710693359375,-2.5926902294158936,-0.18263940513134003,-0.7192080020904541
1772045504982696400,0.668696533203125,-2.6346726417541504,-0.21556086838245392,-0.7252349853515625
1772045504992682800,0.678682861328125,-2.6476969718933105,-0.3649218678474426,-0.6064793467521667
1772045505002668500,0.68866845703125,-2.614898681640625,-0.612515926361084,-0.42133188247680664
1772045505012654600,0.698654541015625,-2.6014533042907715,-0.9295504093170166,-0.20376010239124298
1772045505022640600,0.708640625,-2.6215059757232666,-1.2350916862487793,0.021625878289341927
1772045505032626700,0.718626708984375,-2.6517369747161865,-1.4403449296951294,0.24534957110881805
1772045505042611700,0.72861181640625,-2.6561391353607178,-1.5314064025878906,0.42548951506614685
1772045505052598000,0.738597900390625,-2.6466500759124756,-1.5384360551834106,0.5145868062973022
1772045505062583800,0.748583740234375,-2.664479970932007,-1.480505108833313,0.5131610035896301
1772045505072569900,0.75856982421875,-2.6986169815063477,-1.4273329973220825,0.4674014747142792
1772045505082555600,0.7685556640625,-2.7376863956451416,-1.3712362051010132,0.49421924352645874
1772045505092542000,0.7785419921875,-2.79770565032959,-1.3522231578826904,0.6602439880371094
1772045505102527700,0.78852783203125,-2.8143539428710938,-1.3583630323410034,0.894821047782898
1772045505112513800,0.798513671875,-2.8055648803710938,-1.1976083517074585,1.1289596557617188
1772045505122499800,0.808499755859375,-2.7559564113616943,-1.0117751359939575,1.253479242324829
1772045505132486000,0.81848583984375,-2.7826528549194336,-1.2109955549240112,1.0484483242034912
1772045505142471700,0.8284716796875,-2.965620756149292,-1.7253485918045044,0.5541070103645325
1772045505152458000,0.8384580078125,-3.2093958854675293,-2.48915958404541,-0.09197153151035309
1772045505162443800,0.84844384765625,-3.437976360321045,-3.204622983932495,-0.6329473853111267
1772045505172429800,0.858429931640625,-3.5022971630096436,-3.5207386016845703,-0.811256468296051
1772045505182416000,0.868415771484375,-3.281820774078369,-3.3262288570404053,-0.5005473494529724
1772045505192402000,0.87840185546875,-2.8293721675872803,-2.649130344390869,0.20374777913093567
1772045505202387700,0.8883876953125,-2.2936630249023438,-1.8028565645217896,1.005928635597229
1772045505212374000,0.8983740234375,-1.8531477451324463,-1.2513371706008911,1.5599726438522339
1772045505222359800,0.90835986328125,-1.551747441291809,-1.0730085372924805,1.827205777168274
1772045505232345900,0.918345947265625,-1.4200353622436523,-1.2351988554000854,1.8941593170166016
1772045505242332000,0.928331787109375,-1.4144432544708252,-1.572256088256836,1.8596259355545044
1772045505252318000,0.93831787109375,-1.4835684299468994,-1.898534893989563,1.7479705810546875
1772045505262303700,0.9483037109375,-1.534855604171753,-2.06780743598938,1.5422307252883911
1772045505272290000,0.9582900390625,-1.495828628540039,-2.040902614593506,1.2459588050842285
1772045505282275800,0.96827587890625,-1.3495279550552368,-1.8701953887939453,0.9025936722755432
1772045505292262000,0.978261962890625,-1.1702204942703247,-1.6317490339279175,0.5437483787536621
1772045505302247700,0.98824755859375,-1.0497231483459473,-1.4217454195022583,0.201191246509552
1772045505312233000,0.99823291015625,-1.0373542308807373,-1.2941209077835083,-0.10816037654876709
1772045505322219000,1.008218994140625,-1.1173311471939087,-1.2263094186782837,-0.41846606135368347
1772045505332204800,1.018204833984375,-1.2715765237808228,-1.1798218488693237,-0.730239748954773
1772045505342191000,1.028191162109375,-1.4647908210754395,-1.1272995471954346,-1.0269280672073364
1772045505352177000,1.038177001953125,-1.6501036882400513,-1.05362868309021,-1.2742997407913208
1772045505362163000,1.048162841796875,-1.7739795446395874,-0.9699869751930237,-1.460157036781311
1772045505372149000,1.05814892578125,-1.8324918746948242,-0.8857121467590332,-1.5862746238708496
1772045505382135000,1.068135009765625,-1.8389229774475098,-0.8207429647445679,-1.637207269668579
1772045505392120800,1.078120849609375,-1.8012137413024902,-0.8182317018508911,-1.5943163633346558
1772045505402107000,1.08810693359375,-1.7588952779769897,-0.9078534841537476,-1.4661104679107666
1772045505412093000,1.098093017578125,-1.7105447053909302,-1.104834794998169,-1.3103848695755005
1772045505422078700,1.10807861328125,-1.6577190160751343,-1.3480242490768433,-1.1632580757141113
1772045505432064800,1.118064697265625,-1.6118338108062744,-1.5489723682403564,-1.064906120300293
1772045505442050800,1.12805078125,-1.5846179723739624,-1.688368558883667,-1.0393989086151123
1772045505452036900,1.138036865234375,-1.574866771697998,-1.757043480873108,-1.104950189590454
1772045505462022700,1.148022705078125,-1.5633851289749146,-1.749939203262329,-1.2571203708648682
1772045505472009000,1.158009033203125,-1.5536181926727295,-1.672348141670227,-1.452438473701477
1772045505481994800,1.167994873046875,-1.560983419418335,-1.598092794418335,-1.6839574575424194
1772045505491980800,1.177980712890625,-1.5584232807159424,-1.5543760061264038,-1.9860643148422241
1772045505501966800,1.187966796875,-1.5480034351348877,-1.5410183668136597,-2.3892898559570312
1772045505511953000,1.197952880859375,-1.5874556303024292,-1.6027473211288452,-2.801971673965454
1772045505521938700,1.207938720703125,-1.6958116292953491,-1.6119197607040405,-3.1215407848358154
1772045505531925000,1.217925048828125,-1.8267359733581543,-1.4444289207458496,-3.2797632217407227
1772045505541910800,1.227910888671875,-1.8386040925979614,-1.2246861457824707,-3.2533445358276367
1772045505551896800,1.237896728515625,-1.7194682359695435,-0.9262420535087585,-3.1483139991760254
1772045505561883000,1.2478828125,-1.4984279870986938,-0.787009596824646,-2.95711612701416
1772045505571869000,1.257868896484375,-1.2564884424209595,-0.8261858820915222,-2.5741794109344482
1772045505581854700,1.267854736328125,-1.0672359466552734,-0.897031307220459,-2.049976110458374
1772045505591841000,1.277841064453125,-0.9415081739425659,-1.477364182472229,-1.6432186365127563
1772045505601826800,1.287826904296875,-0.9644010066986084,-2.494150400161743,-1.4466472864151
1772045505611812900,1.297812744140625,-1.1764336824417114,-3.0881381034851074,-1.250449299812317
1772045505621799000,1.307798828125,-1.4558151960372925,-2.9443557262420654,-1.2366224527359009
1772045505631785000,1.317784912109375,-1.7079188823699951,-2.4583091735839844,-1.1363886594772339
1772045505641770800,1.327770751953125,-1.885690450668335,-1.7762963771820068,-1.0496745109558105
1772045505651756800,1.3377568359375,-1.9967153072357178,-1.080344557762146,-1.0295964479446411
1772045505661742800,1.347742919921875,-2.0436477661132812,-0.47640109062194824,-1.0806183815002441
1772045505671729000,1.35772900390625,-2.015961170196533,-0.07523171603679657,-1.2017848491668701
1772045505681714700,1.367714599609375,-1.8860102891921997,0.09389498829841614,-1.3778407573699951
1772045505691701000,1.377700927734375,-1.6616944074630737,0.18455345928668976,-1.5202796459197998
1772045505701686800,1.387686767578125,-1.3761951923370361,0.3184310793876648,-1.5707601308822632
1772045505711672800,1.3976728515625,-1.1834818124771118,0.4447224736213684,-1.5010027885437012
1772045505721659000,1.407658935546875,-1.1448556184768677,0.43642565608024597,-1.3208637237548828
1772045505731645000,1.41764501953125,-1.1901123523712158,0.32542920112609863,-1.077033519744873
1772045505741630700,1.427630615234375,-1.2928671836853027,0.24385389685630798,-0.8135702610015869
1772045505751617000,1.437616943359375,-1.4019311666488647,0.24562133848667145,-0.5377345681190491
1772045505761602800,1.447602783203125,-1.471889853477478,0.3289729356765747,-0.27926144003868103
1772045505771588900,1.4575888671875,-1.4970721006393433,0.4481595754623413,-0.05585393309593201
1772045505781574000,1.467573974609375,-1.4699310064315796,0.5397891402244568,0.10637359321117401
1772045505791560000,1.477559814453125,-1.360175609588623,0.5634108185768127,0.19716776907444
1772045505801546000,1.4875458984375,-1.1325640678405762,0.5207669138908386,0.25122782588005066
1772045505811531800,1.49753173828125,-0.8367648124694824,0.4356396198272705,0.3040887713432312
1772045505821517800,1.507517822265625,-0.6135695576667786,0.3293432891368866,0.33453190326690674
1772045505831504000,1.51750390625,-0.5341531038284302,0.21612957119941711,0.3659520149230957
1772045505841489700,1.52748974609375,-0.5660202503204346,0.20079083740711212,0.4049111306667328
1772045505851476000,1.53747607421875,-0.6412655711174011,0.2796212136745453,0.4330594837665558
1772045505861461800,1.547461669921875,-0.7438949942588806,0.3923797309398651,0.46488797664642334
1772045505871447800,1.55744775390625,-0.8285201191902161,0.5004438757896423,0.47366097569465637
1772045505881433900,1.567433837890625,-0.8837993741035461,0.5549356341362,0.4531889855861664
1772045505891420000,1.577419921875,-0.9420043230056763,0.5451328754425049,0.37863636016845703
1772045505901405700,1.58740576171875,-1.0033347606658936,0.43033358454704285,0.2768484950065613
1772045505911392000,1.59739208984375,-1.0685373544692993,0.23852179944515228,0.1687754988670349
1772045505921377800,1.607377685546875,-1.1137597560882568,0.052103191614151,0.10638882219791412
1772045505931363800,1.61736376953125,-1.1204735040664673,-0.10947627574205399,0.12478727847337723
1772045505941350000,1.627349853515625,-1.0889419317245483,-0.24941952526569366,0.2201327085494995
1772045505951336000,1.6373359375,-1.0540060997009277,-0.35624250769615173,0.35144951939582825
1772045505961321700,1.64732177734375,-1.0379106998443604,-0.4140283167362213,0.48887449502944946
1772045505971308000,1.65730810546875,-1.0674712657928467,-0.36105677485466003,0.5923284888267517
1772045505981293800,1.6672939453125,-1.145919919013977,-0.29452434182167053,0.6448020935058594
1772045505991279900,1.67727978515625,-1.1884790658950806,-0.2271064668893814,0.6315619945526123
1772045506001265700,1.687265625,-1.088789463043213,-0.1460004299879074,0.5356695652008057
1772045506011252000,1.697251953125,-0.8970128297805786,-0.029544329270720482,0.40949007868766785
1772045506021237800,1.70723779296875,-0.7046066522598267,0.10209598392248154,0.2931717336177826
1772045506031223800,1.717223876953125,-0.5738885998725891,0.20870834589004517,0.18456491827964783
1772045506041210600,1.727210693359375,-0.4374426007270813,0.1927160620689392,0.10510151833295822
1772045506051196700,1.73719677734375,-0.30823925137519836,0.16466449201107025,0.06988784670829773
1772045506061182700,1.7471826171875,-0.20823967456817627,0.1290670782327652,0.074323870241642
1772045506071168800,1.757168701171875,-0.13404618203639984,0.11570845544338226,0.09576355665922165
1772045506081154600,1.767154541015625,-0.10111671686172485,0.13081815838813782,0.11351964622735977
1772045506091140900,1.777140869140625,-0.10148213058710098,0.1791357547044754,0.12189549952745438
1772045506101126700,1.787126708984375,-0.07725349068641663,0.1601831018924713,0.06923841685056686
1772045506111112700,1.79711279296875,-0.01556849293410778,0.10934346914291382,-0.018002187833189964
1772045506121098800,1.8070986328125,0.02186170406639576,0.07608538120985031,-0.09639552980661392
1772045506131084800,1.817084716796875,0.04195496439933777,0.040088098496198654,-0.1469234675168991
1772045506141069600,1.827069580078125,0.05094792693853378,0.017941249534487724,-0.12938442826271057
1772045506151056600,1.837056640625,0.058341134339571,0.026928916573524475,-0.027134345844388008
1772045506161041700,1.847041748046875,0.09553830325603485,0.08920587599277496,0.11463424563407898
1772045506171027700,1.85702783203125,0.16121850907802582,0.13991695642471313,0.2496635615825653
1772045506181013500,1.867013427734375,0.2269117683172226,0.13644951581954956,0.31644684076309204
1772045506190999800,1.876999755859375,0.2630319595336914,0.09947792440652847,0.33528125286102295
1772045506200985600,1.886985595703125,0.24411578476428986,0.11422810703516006,0.3515097498893738
1772045506210971600,1.8969716796875,0.1771804690361023,0.14482858777046204,0.41419798135757446
1772045506220957700,1.906957763671875,0.08897417783737183,0.15828126668930054,0.5348660349845886
1772045506230943700,1.91694384765625,0.016747327521443367,0.19429513812065125,0.6660571098327637
1772045506240929500,1.926929443359375,0.0004597008228302002,0.3639587461948395,0.7045483589172363
1772045506250915800,1.936915771484375,-0.018758710473775864,0.39235663414001465,0.5618434548377991
1772045506260901600,1.946901611328125,-0.11823630332946777,0.30644598603248596,0.2900049686431885
1772045506270887700,1.9568876953125,-0.16077587008476257,0.05260305479168892,0.04891236871480942
1772045506280873700,1.966873779296875,0.11081169545650482,-0.3629608750343323,0.0020977265667170286
1772045506290859800,1.97685986328125,0.540826141834259,-0.3730163872241974,0.11503949016332626
1772045506300845600,1.986845458984375,1.1768271923065186,-0.13745447993278503,0.42926132678985596
1772045506310831900,1.996831787109375,1.8750824928283691,0.3384231925010681,0.8218600153923035
1772045506320817700,2.006817626953125,2.353302001953125,0.9511731863021851,1.1840310096740723
1772045506330803700,2.0168037109375,2.6555495262145996,1.4120720624923706,1.4164273738861084
1772045506340789500,2.02678955078125,2.9313952922821045,1.657711386680603,1.4540849924087524
1772045506350775800,2.03677587890625,3.1898186206817627,1.7336894273757935,1.1910347938537598
1772045506360761600,2.04676171875,3.4063966274261475,1.684401512145996,0.6612273454666138
1772045506370747600,2.05674755859375,3.5626955032348633,1.5608159303665161,0.08433705568313599
1772045506380733700,2.066733642578125,3.6899471282958984,1.3699551820755005,-0.32508987188339233
1772045506390719700,2.0767197265625,3.8051488399505615,1.1161459684371948,-0.5314300656318665
1772045506400705500,2.08670556640625,3.844914197921753,0.6880936622619629,-0.6208862066268921
1772045506410691800,2.09669189453125,3.6944632530212402,0.019928500056266785,-0.6563199162483215
1772045506420677600,2.106677734375,3.3638288974761963,-0.7791244387626648,-0.6280927658081055
1772045506430663700,2.11666357421875,2.9273548126220703,-1.6380242109298706,-0.5470712184906006
1772045506440649700,2.126649658203125,2.5192983150482178,-2.34942364692688,-0.4654141664505005
1772045506450635800,2.1366357421875,2.200089454650879,-2.6794934272766113,-0.48363596200942993
1772045506460620500,2.14662060546875,1.9849592447280884,-2.5849597454071045,-0.6430365443229675
1772045506470606600,2.156606689453125,1.8607475757598877,-2.3437678813934326,-0.9010089635848999
1772045506480592600,2.166592529296875,1.7322818040847778,-1.6150500774383545,-1.0143778324127197
1772045506490578700,2.17657861328125,1.6253788471221924,-1.103422999382019,-1.124804973602295
1772045506500564500,2.186564453125,1.557573676109314,-0.7529246211051941,-1.1149401664733887
1772045506510550800,2.19655078125,1.489134430885315,-0.559394121170044,-0.9694116711616516
1772045506520536600,2.20653662109375,1.4159332513809204,-0.5521814823150635,-0.7115441560745239
1772045506530522600,2.216522705078125,1.323800802230835,-0.7052239179611206,-0.3198152184486389
1772045506540508700,2.2265087890625,1.2202433347702026,-0.9323513507843018,0.16508543491363525
1772045506550494700,2.23649462890625,1.1155749559402466,-1.136298418045044,0.6872526407241821
1772045506560480500,2.24648046875,1.1186267137527466,-1.6462987661361694,1.0623657703399658
1772045506570466800,2.256466796875,1.0887444019317627,-1.6940993070602417,1.4477803707122803
1772045506580452600,2.26645263671875,0.9405146837234497,-1.3756965398788452,1.7155202627182007
1772045506590438700,2.276438720703125,0.8455734252929688,-1.0773338079452515,1.730940341949463
1772045506600424700,2.2864248046875,0.8462560176849365,-0.8661254048347473,1.546994924545288
1772045506610410800,2.29641064453125,0.8473780155181885,-0.4357966184616089,1.3531631231307983
1772045506620396500,2.306396484375,0.8900346755981445,0.03232240676879883,1.1539217233657837
1772045506630382800,2.3163828125,0.8553124666213989,0.6230756640434265,1.0861468315124512
1772045506640368600,2.32636865234375,0.8679960370063782,1.0195380449295044,1.1585787534713745
1772045506650354700,2.336354736328125,0.870495080947876,1.2980622053146362,1.3122434616088867
1772045506660340700,2.3463408203125,0.880569577217102,1.3360050916671753,1.4571939706802368
1772045506670326800,2.356326904296875,0.8971747756004333,1.4756056070327759,1.6992958784103394
1772045506680312600,2.3663125,0.8286426067352295,1.7200461626052856,2.01916241645813
1772045506690298600,2.376298583984375,0.8922671675682068,1.62864089012146,2.197937250137329
1772045506700284700,2.38628466796875,1.0176199674606323,1.6467170715332031,2.311851739883423
1772045506710270700,2.396270751953125,1.2474396228790283,1.5076953172683716,2.2908668518066406
1772045506720256500,2.406256591796875,1.5060906410217285,1.1210548877716064,2.143467664718628
1772045506730242800,2.416242919921875,1.7013108730316162,0.4492342472076416,1.847570538520813
1772045506740228600,2.426228515625,1.7976032495498657,-0.45658057928085327,1.3214668035507202
1772045506750214700,2.436214599609375,1.7507489919662476,-0.7305448055267334,0.5420237183570862
1772045506760200700,2.44620068359375,1.5232089757919312,-1.1526310443878174,0.13182790577411652
1772045506770185700,2.456185791015625,1.2498931884765625,-0.9321073293685913,-0.2462386041879654
1772045506780171500,2.466171630859375,1.0683969259262085,-0.1091352105140686,-0.5528441071510315
1772045506790157600,2.476157470703125,1.0399852991104126,0.9455413818359375,-0.7662989497184753
1772045506800143600,2.4861435546875,1.2034269571304321,1.9747402667999268,-0.8485535979270935
1772045506810129700,2.496129638671875,1.4478813409805298,2.615060806274414,-0.8754121661186218
1772045506820115500,2.506115478515625,1.6963287591934204,2.5110974311828613,-0.8915053606033325
1772045506830101800,2.516101806640625,1.8505666255950928,1.7703156471252441,-0.8881281018257141
1772045506840087600,2.526087646484375,1.958153486251831,0.7107333540916443,-0.7134061455726624
1772045506850073600,2.536073486328125,2.0086867809295654,-0.24192452430725098,-0.38521265983581543
1772045506860059600,2.5460595703125,1.9768333435058594,-0.8285395503044128,-0.010196165181696415
1772045506870045700,2.556045654296875,1.8653593063354492,-0.9927118420600891,0.27151867747306824
1772045506880031500,2.566031494140625,1.6800317764282227,-0.7835192084312439,0.40157628059387207
1772045506890017800,2.576017822265625,1.4075756072998047,-0.32496377825737,0.421716570854187
1772045506900003600,2.586003662109375,1.1211766004562378,0.18604381382465363,0.4008091688156128
1772045506909989600,2.59598974609375,0.898917555809021,0.6069878339767456,0.41060057282447815
1772045506919975700,2.6059755859375,0.7564142346382141,0.8943599462509155,0.4914700984954834
1772045506929961700,2.615961669921875,0.682883083820343,1.0176889896392822,0.6390610933303833
1772045506939947500,2.625947509765625,0.6566038131713867,1.0171856880187988,0.7976270318031311
1772045506949933800,2.635933837890625,0.6416197419166565,0.9613257050514221,0.9304847717285156
1772045506959919600,2.645919677734375,0.6317886710166931,0.9209346175193787,1.0322033166885376
1772045506969905700,2.65590576171875,0.6295745968818665,0.9012638926506042,1.1002850532531738
1772045506979891700,2.6658916015625,0.6154316067695618,0.8991889953613281,1.1312426328659058
1772045506989877800,2.675877685546875,0.5808143615722656,0.9510353207588196,1.1265305280685425
1772045506999863600,2.685863525390625,0.5495256781578064,0.9486448764801025,1.102800726890564
1772045507009849900,2.695849853515625,0.49513137340545654,0.9391491413116455,1.0526171922683716
1772045507019835600,2.705835693359375,0.45178765058517456,0.9512417316436768,0.9918275475502014
1772045507029821700,2.71582177734375,0.42940613627433777,0.951393187046051,0.9109219312667847
1772045507039807200,2.72580712890625,0.41919848322868347,0.9566084742546082,0.8188402056694031
1772045507049793300,2.735793212890625,0.4248541295528412,0.9291718602180481,0.6962828040122986
1772045507059779000,2.745779052734375,0.4288177192211151,0.8436420559883118,0.5708857774734497
1772045507069765400,2.755765380859375,0.42043548822402954,0.7294018864631653,0.4686446785926819
1772045507079751200,2.765751220703125,0.39327123761177063,0.6293237805366516,0.4228809177875519
1772045507089737200,2.7757373046875,0.3870226740837097,0.5978531837463379,0.4622749090194702
1772045507099723300,2.78572314453125,0.40478089451789856,0.6528871655464172,0.5600339770317078
1772045507109709300,2.795709228515625,0.45867085456848145,0.7791272401809692,0.698365330696106
1772045507119695000,2.805695068359375,0.527744710445404,0.9133545160293579,0.8654538989067078
1772045507129680100,2.81568017578125,0.5854008793830872,1.0321539640426636,1.0427236557006836
1772045507139666400,2.82566650390625,0.5848900675773621,1.1619884967803955,1.2574623823165894
1772045507149652200,2.83565234375,0.5248140692710876,1.2737442255020142,1.4476431608200073
1772045507159638300,2.84563818359375,0.41276901960372925,1.380304217338562,1.590014100074768
1772045507169624300,2.855624267578125,0.2957340180873871,1.4504262208938599,1.6932785511016846
1772045507179610400,2.8656103515625,0.2351444512605667,1.4408748149871826,1.7677271366119385
1772045507189596200,2.87559619140625,0.28537043929100037,1.2326091527938843,1.7199119329452515
1772045507199582500,2.88558251953125,0.3867473900318146,0.7182955145835876,1.4351714849472046
1772045507209568300,2.895568359375,0.401672899723053,-0.11112887412309647,0.8984643220901489
1772045507219554300,2.90555419921875,0.27595171332359314,-1.2130751609802246,0.1832101047039032
1772045507229540400,2.915540283203125,0.09050505608320236,-2.2000441551208496,-0.4975647032260895
1772045507239526100,2.925526123046875,-0.0751640722155571,-2.4526638984680176,-0.8538458347320557
1772045507249512200,2.93551220703125,-0.21008114516735077,-1.64542555809021,-0.7180193066596985
1772045507259498200,2.945498291015625,-0.2540491223335266,-0.08118485659360886,-0.17746230959892273
1772045507269484300,2.955484375,-0.13130809366703033,1.4469730854034424,0.5192460417747498
1772045507279470000,2.965469970703125,0.1819816529750824,2.287621259689331,1.1292212009429932
1772045507289456400,2.975456298828125,0.5317437648773193,2.227091073989868,1.4580386877059937
1772045507299442200,2.985442138671875,0.8064312934875488,1.5167351961135864,1.5541294813156128
1772045507309428200,2.99542822265625,0.9845206141471863,0.44824913144111633,1.5254303216934204
1772045507319414000,3.0054140625,1.052554726600647,-0.6052733659744263,1.4055299758911133
1772045507329400300,3.015400390625,1.0315309762954712,-1.2977423667907715,1.1929670572280884
1772045507339386000,3.02538623046875,0.9860305786132812,-1.5580391883850098,0.8819066286087036
1772045507349372200,3.0353720703125,0.9149423241615295,-1.4358084201812744,0.48246458172798157
1772045507359358200,3.045358154296875,0.7815414071083069,-1.0020593404769897,0.037663161754608154
1772045507369344300,3.05534423828125,0.6071807146072388,-0.41618284583091736,-0.3799946904182434
1772045507379330000,3.065330078125,0.4422745704650879,0.1112133339047432,-0.7219738364219666
1772045507389316400,3.07531640625,0.30707576870918274,0.48746439814567566,-0.9446758031845093
1772045507399302100,3.08530224609375,0.18938137590885162,0.7031186819076538,-1.0334445238113403
1772045507409288200,3.0952880859375,0.10798610746860504,0.7496100068092346,-0.984916627407074
1772045507419274200,3.105274169921875,0.09079699963331223,0.6986687779426575,-0.8160258531570435
1772045507429260300,3.11526025390625,0.1462322622537613,0.6189543008804321,-0.5935862064361572
1772045507439246000,3.12524609375,0.2650688886642456,0.5447503328323364,-0.36419907212257385
1772045507449232400,3.135232421875,0.39628952741622925,0.5059016346931458,-0.14937593042850494
1772045507459218200,3.14521826171875,0.5009198188781738,0.5078270435333252,0.026082441210746765
1772045507469204200,3.155204345703125,0.5496661067008972,0.5080973505973816,0.1500912755727768
1772045507479190300,3.165190185546875,0.5288277268409729,0.49597540497779846,0.23568420112133026
1772045507489176300,3.17517626953125,0.4469889998435974,0.49636343121528625,0.2964070737361908
1772045507499162000,3.185162109375,0.3582333028316498,0.50970059633255,0.32870855927467346
1772045507509148400,3.1951484375,0.27837175130844116,0.5487394332885742,0.35169902443885803
1772045507519134200,3.20513427734375,0.23924458026885986,0.628320574760437,0.37939563393592834
1772045507529120300,3.215120361328125,0.24188736081123352,0.7173689007759094,0.4254436194896698
1772045507539106300,3.225106201171875,0.27014803886413574,0.7988576292991638,0.48991769552230835
1772045507549092400,3.23509228515625,0.2960383892059326,0.8372891545295715,0.5613198280334473
1772045507559078100,3.245078125,0.3013511300086975,0.8177220821380615,0.6240607500076294
1772045507569064200,3.255064208984375,0.25210344791412354,0.7284085750579834,0.6663296222686768
1772045507579050200,3.26505029296875,0.16485190391540527,0.5803778171539307,0.6772217154502869
1772045507589036300,3.275036376953125,0.06648946553468704,0.43930938839912415,0.6578884720802307
1772045507599022000,3.28502197265625,-0.0252753384411335,0.37126561999320984,0.6364161968231201
1772045507609008400,3.29500830078125,-0.09271810203790665,0.3984183073043823,0.6461691856384277
1772045507618994200,3.304994140625,-0.13301704823970795,0.5030238628387451,0.7048636674880981
1772045507628980200,3.314980224609375,-0.16354767978191376,0.6878020167350769,0.8191587924957275
1772045507638966300,3.32496630859375,-0.182827889919281,0.9196634888648987,0.9996465444564819
1772045507648952300,3.334952392578125,-0.22241045534610748,1.1484383344650269,1.2295352220535278
1772045507658938000,3.344938232421875,-0.31062501668930054,1.2813079357147217,1.4347772598266602
1772045507668924400,3.35492431640625,-0.42106208205223083,1.2795430421829224,1.561319351196289
1772045507678910200,3.36491015625,-0.5088081955909729,1.0750386714935303,1.5622106790542603
1772045507688896300,3.374896240234375,-0.4811657667160034,0.6029330492019653,1.4614325761795044
1772045507698882300,3.38488232421875,-0.3531854450702667,-0.05777965113520622,1.2732138633728027
1772045507708868400,3.394868408203125,-0.3075084984302521,-0.6083204746246338,0.972831130027771
1772045507718854100,3.404854248046875,-0.4419613778591156,-0.8659400343894958,0.5626206994056702
1772045507728840400,3.41484033203125,-0.6056212782859802,-0.8189554810523987,0.09637660533189774
1772045507738826200,3.424826171875,-0.6894152164459229,-0.376260370016098,-0.23168222606182098
1772045507748812300,3.434812255859375,-0.6805323362350464,0.46757805347442627,-0.3064662218093872
1772045507758798300,3.44479833984375,-0.5543850064277649,1.3091531991958618,-0.1027437373995781
1772045507768784400,3.454784423828125,-0.3786391615867615,1.6840168237686157,0.25725632905960083
1772045507778770200,3.464770263671875,-0.25230225920677185,1.510195255279541,0.6406833529472351
1772045507788756500,3.474756591796875,-0.1863139569759369,0.8613780736923218,0.9850162863731384
1772045507798742300,3.4847421875,-0.16207359731197357,-0.0382918082177639,1.3252687454223633
1772045507808728300,3.494728271484375,-0.12526358664035797,-0.8184226155281067,1.6487274169921875
1772045507818714000,3.504714111328125,-0.10068313777446747,-1.1756280660629272,1.7880802154541016
1772045507828700400,3.514700439453125,-0.12227980047464371,-1.10585618019104,1.6000162363052368
1772045507838686200,3.524686279296875,-0.1409032940864563,-0.8059466481208801,1.0805158615112305
1772045507848672300,3.53467236328125,-0.10438097268342972,-0.4472709000110626,0.3480120897293091
1772045507858658300,3.544658203125,-0.03557421267032623,-0.19985179603099823,-0.4373525083065033
1772045507868644400,3.554644287109375,0.0334385521709919,-0.15895584225654602,-1.1266213655471802
1772045507878630100,3.564630126953125,0.06485266983509064,-0.3467835485935211,-1.6232410669326782
1772045507888616400,3.574616455078125,0.048304833471775055,-0.6348585486412048,-1.894463062286377
1772045507898602200,3.584602294921875,0.02690686658024788,-0.9302545189857483,-1.9552925825119019
1772045507908588300,3.59458837890625,0.039225634187459946,-1.1054654121398926,-1.853050708770752
1772045507918574300,3.60457421875,0.08997455984354019,-1.102993369102478,-1.6715177297592163
1772045507928560400,3.614560302734375,0.1553371697664261,-0.9408375024795532,-1.498660922050476
1772045507938546200,3.624546142578125,0.23073658347129822,-0.6340948939323425,-1.3386545181274414
1772045507948532200,3.6345322265625,0.3135279417037964,-0.2675173580646515,-1.1637848615646362
1772045507958518300,3.644518310546875,0.40054166316986084,0.051443055272102356,-0.9597023129463196
1772045507968504000,3.654504150390625,0.4864819645881653,0.2669812738895416,-0.7314561605453491
1772045507978490400,3.664490478515625,0.5665168762207031,0.33856305480003357,-0.5134274363517761
1772045507988476200,3.67447607421875,0.6042819619178772,0.23461943864822388,-0.3540910482406616
1772045507998462200,3.684462158203125,0.6048595905303955,0.0010295914253219962,-0.25693413615226746
1772045508008448300,3.6944482421875,0.5772107243537903,-0.3185764253139496,-0.2526116669178009
1772045508018434300,3.704434326171875,0.5285483598709106,-0.5851429104804993,-0.3223702311515808
1772045508028420000,3.714420166015625,0.47967270016670227,-0.6921415328979492,-0.43241748213768005
1772045508038407000,3.724406982421875,0.45114174485206604,-0.6348188519477844,-0.5358626842498779
1772045508048392700,3.734392822265625,0.455735981464386,-0.44460591673851013,-0.5950254201889038
1772045508058378800,3.744378662109375,0.4682059586048126,-0.16118431091308594,-0.5882564783096313
1772045508068364800,3.75436474609375,0.4709565341472626,0.13886934518814087,-0.5109066367149353
1772045508078350800,3.764350830078125,0.46935516595840454,0.38066598773002625,-0.383559912443161
1772045508088336600,3.774336669921875,0.4495808482170105,0.5178372263908386,-0.24170787632465363
1772045508098323000,3.784322998046875,0.41320446133613586,0.5599116683006287,-0.10286451131105423
1772045508108308700,3.794308837890625,0.3548561632633209,0.5270389914512634,0.030834604054689407
1772045508118293800,3.804293701171875,0.2969025671482086,0.47637102007865906,0.15603592991828918
1772045508128280600,3.814280517578125,0.2487061619758606,0.4824966490268707,0.27652594447135925
1772045508138267000,3.824266845703125,0.2180750072002411,0.5746526122093201,0.4040021598339081
1772045508148252700,3.834252685546875,0.20910808444023132,0.7264453768730164,0.5416575074195862
1772045508158238700,3.84423876953125,0.2121262401342392,0.9019365310668945,0.7011164426803589
1772045508168224800,3.854224853515625,0.2022329866886139,1.076137661933899,0.8828637599945068
1772045508178210800,3.8642109375,0.1493242383003235,1.175580620765686,1.0519378185272217
1772045508188196600,3.874196533203125,-0.009640558622777462,1.196419596672058,1.2298437356948853
1772045508198183000,3.884182861328125,-0.25792598724365234,1.1755130290985107,1.4373530149459839
1772045508208168700,3.894168701171875,-0.47785404324531555,1.1971828937530518,1.572904109954834
1772045508218154800,3.90415478515625,-0.6614800691604614,1.1214087009429932,1.484063744544983
1772045508228139500,3.914139404296875,-0.8803422451019287,0.6796756982803345,1.0423507690429688
1772045508238125800,3.924125732421875,-1.1170752048492432,-0.2919253408908844,0.16136986017227173
1772045508248111600,3.934111572265625,-1.046739101409912,-1.6547406911849976,-1.074417233467102
1772045508258097700,3.94409765625,-0.5228825807571411,-2.4904837608337402,-2.1781532764434814
1772045508268083700,3.954083740234375,0.19520987570285797,-1.8457812070846558,-2.660764694213867
1772045508278069800,3.96406982421875,0.906050443649292,-0.20484758913516998,-2.4457452297210693
1772045508288055600,3.9740556640625,1.4593006372451782,1.5042752027511597,-1.507693886756897
1772045508298041900,3.984041748046875,1.7300082445144653,2.617873430252075,-0.1308411955833435
1772045508308027600,3.994027587890625,1.622037649154663,2.6029441356658936,1.0376219749450684
1772045508318013700,4.004013671875,1.293147087097168,1.586273431777954,1.9268077611923218
1772045508327999700,4.013999755859375,0.9877945780754089,0.007524159736931324,2.5321433544158936
1772045508337986800,4.02398681640625,0.8586930632591248,-1.3510656356811523,2.696743965148926
1772045508347971600,4.0339716796875,0.9366507530212402,-1.9773679971694946,2.368847608566284
1772045508357958000,4.0439580078125,1.2209690809249878,-1.923474669456482,1.6480021476745605
1772045508367943700,4.053943603515625,1.5832653045654297,-1.385891079902649,0.6909562945365906
1772045508377929700,4.0639296875,1.8506051301956177,-0.6640020608901978,-0.27114444971084595
1772045508387915800,4.073915771484375,1.8650885820388794,-0.09997817873954773,-1.01113760471344
1772045508397901800,4.08390185546875,1.67098069190979,0.2280265837907791,-1.4827247858047485
1772045508407887600,4.0938876953125,1.4254835844039917,0.36248528957366943,-1.7053792476654053
1772045508417874000,4.1038740234375,1.2374136447906494,0.3311854302883148,-1.7067936658859253
1772045508427859700,4.113859619140625,1.1467655897140503,0.19443632662296295,-1.5401780605316162
1772045508437845800,4.123845703125,1.1284936666488647,0.005308737978339195,-1.309831142425537
1772045508447831800,4.133831787109375,1.1855748891830444,-0.19427530467510223,-1.0458457469940186
1772045508457817900,4.14381787109375,1.321501612663269,-0.34135714173316956,-0.7438827157020569
1772045508467803600,4.1538037109375,1.5405266284942627,-0.3671925961971283,-0.3643089234828949
1772045508477789700,4.163789794921875,1.7799296379089355,-0.3206615746021271,0.10255653411149979
1772045508487775700,4.173775634765625,1.93458092212677,-0.27390432357788086,0.6310333609580994
1772045508497761800,4.18376171875,1.9672735929489136,-0.2439032942056656,1.1443105936050415
1772045508507747600,4.19374755859375,1.8849725723266602,-0.25376778841018677,1.5627063512802124
1772045508517734000,4.20373388671875,1.6891684532165527,-0.4080162048339844,1.869370698928833
1772045508527719700,4.2137197265625,1.4151124954223633,-0.7796605825424194,2.061373710632324
1772045508537705700,4.223705810546875,1.1435569524765015,-1.4281426668167114,2.117715358734131
1772045508547691800,4.23369189453125,0.9546103477478027,-2.2960493564605713,2.0470428466796875
1772045508557677800,4.243677734375,0.9041839241981506,-3.14866042137146,1.9044395685195923
1772045508567663600,4.25366357421875,0.990127682685852,-3.6791298389434814,1.7010635137557983
1772045508577650000,4.26364990234375,1.1420173645019531,-3.7440662384033203,1.4286130666732788
1772045508587635700,4.2736357421875,1.3039778470993042,-3.32224440574646,1.1144438982009888
1772045508597621800,4.283621826171875,1.445441722869873,-2.6962718963623047,0.7599616050720215
1772045508607607800,4.29360791015625,1.5152437686920166,-2.124966859817505,0.40440016984939575
1772045508617593900,4.30359375,1.4660838842391968,-1.7609550952911377,0.10951020568609238
1772045508627579600,4.31357958984375,1.3363869190216064,-1.6341469287872314,-0.06524048000574112
1772045508637566000,4.32356591796875,1.2041404247283936,-1.7516705989837646,-0.07105548679828644
1772045508647551700,4.3335517578125,1.1034613847732544,-2.0773653984069824,0.07858289033174515
1772045508657537800,4.343537841796875,1.0705654621124268,-2.364992380142212,0.2680244743824005
1772045508667523800,4.35352392578125,1.109200358390808,-2.398181915283203,0.31784096360206604
1772045508677510000,4.363510009765625,1.2156347036361694,-2.1329712867736816,0.2561536431312561
1772045508687495700,4.37349560546875,1.3667060136795044,-1.6216953992843628,0.10310687124729156
1772045508697482000,4.38348193359375,1.5626864433288574,-1.0218937397003174,-0.11948492377996445
1772045508707467800,4.3934677734375,1.7094247341156006,-0.5733991861343384,-0.3799438178539276
1772045508717453800,4.403453857421875,1.842165470123291,-0.4865622818470001,-0.5799658298492432
1772045508727439600,4.413439697265625,2.0973410606384277,-0.7752482891082764,-0.7154882550239563
1772045508737426000,4.423426025390625,2.610187292098999,-1.291943073272705,-0.8383044600486755
1772045508747411700,4.43341162109375,3.286484718322754,-1.7897229194641113,-1.018837809562683
1772045508757397800,4.443397705078125,3.959843158721924,-2.2070586681365967,-1.3061326742172241
1772045508767383800,4.4533837890625,4.317976474761963,-2.380596876144409,-1.5631508827209473
1772045508777369900,4.463369873046875,4.044244289398193,-1.8841756582260132,-1.6224570274353027
1772045508787355600,4.473355712890625,3.171818971633911,-0.7251989245414734,-1.6095596551895142
1772045508797341700,4.483341796875,2.0831856727600098,0.6476571559906006,-1.6975512504577637
1772045508807327700,4.49332763671875,1.2170912027359009,1.7091631889343262,-1.819465160369873
1772045508817313800,4.503313720703125,0.7249965071678162,1.989691972732544,-1.7665390968322754
1772045508827299800,4.5132998046875,0.4987386465072632,1.4768545627593994,-1.4903266429901123
1772045508837285600,4.52328564453125,0.2957514226436615,0.6142990589141846,-1.084482192993164
1772045508847271700,4.533271728515625,-0.027881905436515808,-0.015619587153196335,-0.6869290471076965
1772045508857257700,4.5432578125,-0.3953901529312134,-0.19704797863960266,-0.4332892894744873
1772045508867243800,4.553243896484375,-0.6806947588920593,-0.08464062958955765,-0.44156160950660706
1772045508877229600,4.5632294921875,-0.8686596155166626,0.055760156363248825,-0.7079722285270691
1772045508887215900,4.5732158203125,-0.9667943120002747,-0.010832046158611774,-1.0902243852615356
1772045508897201700,4.58320166015625,-0.992618203163147,-0.41270172595977783,-1.36576247215271
1772045508907187700,4.593187744140625,-0.9499586224555969,-1.127196192741394,-1.4241443872451782
1772045508917173800,4.603173828125,-0.8411797285079956,-1.931965947151184,-1.2700856924057007
1772045508927159800,4.613159912109375,-0.6714081168174744,-2.5292744636535645,-0.8681811690330505
1772045508937145600,4.6231455078125,-0.43769919872283936,-2.8104584217071533,-0.2779732644557953
1772045508947132000,4.6331318359375,-0.22898826003074646,-2.9180996417999268,0.29727301001548767
1772045508957117700,4.64311767578125,-0.10256107151508331,-2.985790491104126,0.7124510407447815
1772045508967103700,4.653103759765625,-0.05028408765792847,-3.0000715255737305,0.9197820425033569
1772045508977089500,4.663089599609375,-0.0255608968436718,-2.9406039714813232,0.9308855533599854
1772045508987075800,4.673075927734375,0.04295691102743149,-2.817274332046509,0.7598685026168823
1772045508997061600,4.6830615234375,0.1731676459312439,-2.653088331222534,0.46395909786224365
1772045509007047700,4.693047607421875,0.37415653467178345,-2.4689176082611084,0.1223764419555664
1772045509017033700,4.70303369140625,0.6217237114906311,-2.3199806213378906,-0.16938695311546326
1772045509027019800,4.713019775390625,0.8837129473686218,-2.2319581508636475,-0.3690336048603058
1772045509037005600,4.723005615234375,1.1338756084442139,-2.217409133911133,-0.4926697909832001
1772045509046992000,4.732991943359375,1.348503828048706,-2.2608511447906494,-0.5832125544548035
1772045509056977700,4.742977783203125,1.5125020742416382,-2.3247737884521484,-0.6670158505439758
1772045509066963700,4.752963623046875,1.5881905555725098,-2.3540456295013428,-0.7715217471122742
1772045509076949800,4.76294970703125,1.5534509420394897,-2.2954444885253906,-0.9147419929504395
1772045509086935800,4.772935791015625,1.4594902992248535,-2.1819825172424316,-1.0766721963882446
1772045509096921600,4.782921630859375,1.339840054512024,-2.0259299278259277,-1.2303975820541382
1772045509106908000,4.792907958984375,1.2667120695114136,-1.865842580795288,-1.3577964305877686
1772045509116893700,4.802893798828125,1.2577526569366455,-1.7130637168884277,-1.4704622030258179
1772045509126879700,4.812879638671875,1.2805031538009644,-1.5210384130477905,-1.5138825178146362
1772045509136864800,4.82286474609375,1.3346045017242432,-1.2864389419555664,-1.485134482383728
1772045509146850800,4.832850830078125,1.3686755895614624,-0.9841411709785461,-1.4407622814178467
1772045509156836900,4.8428369140625,1.322608232498169,-0.5497900247573853,-1.3652043342590332
1772045509166822700,4.85282275390625,1.2329059839248657,-0.11063721776008606,-1.2746504545211792
1772045509176809000,4.86280908203125,1.1457364559173584,0.19352106750011444,-1.1993703842163086
1772045509186794800,4.872794677734375,1.0813515186309814,0.3303256332874298,-1.2076046466827393
1772045509196780800,4.88278076171875,1.075959324836731,0.3016633689403534,-1.2861032485961914
1772045509206766800,4.892766845703125,1.1290903091430664,0.3571097254753113,-1.3432945013046265
1772045509216752600,4.902752685546875,1.2176694869995117,0.49056580662727356,-1.3453115224838257
1772045509226738700,4.91273876953125,1.3484079837799072,0.58626389503479,-1.2784591913223267
1772045509236724700,4.922724853515625,1.416803002357483,0.522010087966919,-1.1922340393066406
1772045509246710800,4.932710693359375,1.300944447517395,0.16905561089515686,-0.9706388115882874
1772045509256696600,4.942696533203125,1.0482213497161865,-0.6337399482727051,-0.5137868523597717
1772045509266683000,4.952682861328125,0.8880900144577026,-1.7529280185699463,0.11626365035772324
1772045509276668700,4.962668701171875,0.9382240176200867,-2.5855319499969482,0.7321499586105347
1772045509286654700,4.97265478515625,0.9903243184089661,-2.687586784362793,1.129017949104309
1772045509296640800,4.982640869140625,0.7738763689994812,-1.8015273809432983,1.3293260335922241
1772045509306626800,4.992626708984375,0.10561448335647583,-0.07146888226270676,1.5151095390319824
1772045509316612600,5.002612548828125,-1.018068790435791,1.8291045427322388,1.8151860237121582
1772045509326598700,5.0125986328125,-2.209500312805176,3.2701938152313232,2.208855152130127
1772045509336584700,5.022584716796875,-2.940751075744629,3.8691980838775635,2.6200954914093018
1772045509346570800,5.03257080078125,-2.897185802459717,3.516664505004883,2.9953207969665527
1772045509356556500,5.042556640625,-2.4246697425842285,2.5726606845855713,3.3637359142303467
1772045509366542800,5.05254296875,-2.037503957748413,1.4403767585754395,3.6748838424682617
1772045509376528600,5.062528564453125,-1.9892770051956177,0.39401549100875854,3.8866474628448486
1772045509386514700,5.0725146484375,-2.2084801197052,-0.3601776361465454,4.063286304473877
1772045509396500700,5.082500732421875,-2.413851022720337,-0.7065834999084473,4.243790626525879
1772045509406486800,5.09248681640625,-2.463995933532715,-0.5883145928382874,4.417367458343506
1772045509416472600,5.10247265625,-2.356752395629883,-0.09033757448196411,4.540134906768799
1772045509426459000,5.112458984375,-2.1558749675750732,0.5008977055549622,4.56498384475708
1772045509436444700,5.122444580078125,-1.9549165964126587,0.9512715339660645,4.51970100402832
1772045509446430700,5.1324306640625,-1.7735735177993774,1.1754623651504517,4.456628322601318
1772045509456416800,5.142416748046875,-1.6002193689346313,1.1982145309448242,4.369451522827148
1772045509466402800,5.15240283203125,-1.4097036123275757,1.099774956703186,4.292387008666992
1772045509476387800,5.162387939453125,-1.3028764724731445,1.169488787651062,4.251148700714111
1772045509486373600,5.17237353515625,-1.3432704210281372,1.5703827142715454,4.246020317077637
1772045509496360000,5.18235986328125,-1.4335854053497314,2.1427290439605713,4.209247589111328
1772045509506345700,5.192345703125,-1.5049569606781006,2.700200319290161,4.11104679107666
1772045509516331800,5.202331787109375,-1.4872030019760132,3.2099883556365967,3.879875659942627
1772045509526317800,5.21231787109375,-1.3269342184066772,3.6211612224578857,3.4392855167388916
1772045509536303900,5.222303955078125,-1.0254905223846436,3.8323681354522705,2.852679967880249
1772045509546289700,5.23228955078125,-0.6307189464569092,3.717393398284912,2.257298707962036
1772045509556276000,5.24227587890625,-0.22052128612995148,3.317415237426758,1.8062211275100708
1772045509566261800,5.25226171875,0.1867717206478119,2.7511284351348877,1.5548131465911865
1772045509576247800,5.262247802734375,0.5318691730499268,2.2439887523651123,1.4707915782928467
1772045509586233900,5.27223388671875,0.843542754650116,1.8723427057266235,1.4626752138137817
1772045509596220000,5.282219970703125,1.124767541885376,1.553188681602478,1.463400959968567
1772045509606205700,5.292205810546875,1.3228846788406372,1.2002480030059814,1.4519402980804443
1772045509616191700,5.302191650390625,1.3657716512680054,0.7274937033653259,1.4197490215301514
1772045509626177800,5.312177734375,1.2470438480377197,0.210892915725708,1.3654229640960693
1772045509636163600,5.32216357421875,1.057091236114502,-0.20775040984153748,1.251289963722229
1772045509646150000,5.33214990234375,0.9020035862922668,-0.44494950771331787,1.0604444742202759
1772045509656135700,5.3421357421875,0.8134859800338745,-0.5025294423103333,0.8078414797782898
1772045509666121700,5.352121826171875,0.758719265460968,-0.4443192481994629,0.4910249412059784
1772045509676107500,5.362107421875,0.6984785795211792,-0.31174764037132263,0.12762513756752014
1772045509686093800,5.37209375,0.6317861080169678,-0.07878991961479187,-0.24407167732715607
1772045509696079600,5.38207958984375,0.5897547602653503,0.24483928084373474,-0.6229881048202515
1772045509706065700,5.392065673828125,0.5707910656929016,0.6243796944618225,-0.9783387780189514
1772045509716051700,5.4020517578125,0.5870195627212524,0.9347306489944458,-1.3208363056182861
1772045509726037800,5.412037841796875,0.5611472129821777,1.1305352449417114,-1.628097414970398
1772045509736023600,5.4220234375,0.4279758632183075,1.2191240787506104,-1.8420110940933228
1772045509746009900,5.432009765625,0.2264183759689331,1.1720786094665527,-1.9194700717926025
1772045509755995600,5.44199560546875,0.17046216130256653,0.9995883107185364,-1.9434289932250977
1772045509765981700,5.451981689453125,0.5157505869865417,0.7699182033538818,-1.9503483772277832
1772045509775966700,5.461966796875,1.267906904220581,0.3863191306591034,-1.8612648248672485
1772045509785952800,5.471952880859375,2.036465644836426,-0.21962463855743408,-1.5984385013580322
1772045509795938800,5.481938720703125,2.3333959579467773,-0.8807205557823181,-1.209843635559082
1772045509805924600,5.491924560546875,1.9620046615600586,-1.303409457206726,-0.7990039587020874
1772045509815911000,5.501910888671875,1.005362868309021,-1.0351026058197021,-0.47659236192703247
1772045509825896700,5.511896728515625,-0.2253676801919937,-0.27598440647125244,-0.34423115849494934
1772045509835882800,5.5218828125,-1.3521013259887695,0.47615835070610046,-0.40738242864608765
1772045509845868800,5.531868896484375,-2.0307486057281494,1.0595170259475708,-0.42373159527778625
1772045509855854800,5.541854736328125,-2.1683003902435303,1.131026029586792,-0.36207303404808044
1772045509865840600,5.551840576171875,-2.0200467109680176,0.6882675886154175,-0.25904130935668945
1772045509875827000,5.561826904296875,-1.9446042776107788,-0.011815412901341915,-0.22513660788536072
1772045509885812700,5.571812744140625,-2.054123640060425,-0.7108749747276306,-0.3139122724533081
1772045509895798800,5.581798828125,-2.2549948692321777,-1.0882915258407593,-0.562436044216156
1772045509905784800,5.591784912109375,-2.396432399749756,-1.0029935836791992,-0.9937719106674194
1772045509915771000,5.60177099609375,-2.427703619003296,-0.5374962091445923,-1.4983348846435547
1772045509925756700,5.611756591796875,-2.3823862075805664,0.03060644492506981,-1.9435060024261475
1772045509935743000,5.621742919921875,-2.316521644592285,0.3887704610824585,-2.183272361755371
1772045509945728800,5.631728759765625,-2.250584125518799,0.22976413369178772,-2.159404993057251
1772045509955714800,5.64171484375,-2.150939464569092,-0.5009779930114746,-1.9015698432922363
1772045509965700900,5.651700927734375,-1.9824174642562866,-1.5088118314743042,-1.5031706094741821
1772045509975687000,5.66168701171875,-1.748828649520874,-2.374307870864868,-1.088360071182251
1772045509985672700,5.671672607421875,-1.5220937728881836,-2.856318235397339,-0.7587107419967651
1772045509995658800,5.68165869140625,-1.350443720817566,-2.9843387603759766,-0.5385419130325317
1772045510005643800,5.691643798828125,-1.2602699995040894,-2.879084348678589,-0.43778496980667114
1772045510015629800,5.7016298828125,-1.2126177549362183,-2.6246743202209473,-0.46630874276161194
1772045510025615600,5.71161572265625,-1.1851369142532349,-2.38840651512146,-0.6448653936386108
1772045510035602000,5.721601806640625,-1.1676958799362183,-2.190852165222168,-0.9099133014678955
1772045510045587700,5.731587646484375,-1.1309120655059814,-2.0817372798919678,-1.2117465734481812
1772045510055573800,5.74157373046875,-1.0521032810211182,-2.104227304458618,-1.4705281257629395
1772045510065559800,5.751559814453125,-0.8755341172218323,-2.2509145736694336,-1.6362824440002441
1772045510075545900,5.7615458984375,-0.5913082957267761,-2.438145637512207,-1.7048332691192627
1772045510085531600,5.77153173828125,-0.20406898856163025,-2.5715487003326416,-1.6797974109649658
1772045510095518000,5.78151806640625,0.25940385460853577,-2.534238576889038,-1.585800290107727
1772045510105503700,5.791503662109375,0.7651229500770569,-2.361384391784668,-1.465842366218567
1772045510115489800,5.80148974609375,1.2376765012741089,-2.138726234436035,-1.3430352210998535
1772045510125475600,5.8114755859375,1.5911459922790527,-1.922092318534851,-1.239687204360962
1772045510135462000,5.8214619140625,1.770541787147522,-1.713273286819458,-1.1679229736328125
1772045510145447700,5.83144775390625,1.7984498739242554,-1.5083224773406982,-1.1170315742492676
1772045510155433700,5.841433837890625,1.731172800064087,-1.3249402046203613,-1.1042265892028809
1772045510165419800,5.851419677734375,1.6247916221618652,-1.1507062911987305,-1.1578342914581299
1772045510175405800,5.86140576171875,1.531773567199707,-0.9433602690696716,-1.2681975364685059
1772045510185391600,5.8713916015625,1.4846140146255493,-0.696491539478302,-1.385438323020935
1772045510195378000,5.8813779296875,1.4643255472183228,-0.4000374972820282,-1.4354701042175293
1772045510205363700,5.89136376953125,1.4682035446166992,-0.005735547281801701,-1.3576911687850952
1772045510215349800,5.901349853515625,1.4880555868148804,0.46811166405677795,-1.2184501886367798
1772045510225334500,5.91133447265625,1.47886323928833,1.0017154216766357,-1.1173776388168335
1772045510235320800,5.92132080078125,1.4028874635696411,1.4826165437698364,-1.1168851852416992
1772045510245306600,5.931306640625,1.283512830734253,1.918489933013916,-1.1749048233032227
1772045510255292700,5.941292724609375,1.1776548624038696,2.2424991130828857,-1.255823016166687
1772045510265278700,5.95127880859375,1.1606481075286865,2.3810689449310303,-1.3020671606063843
1772045510275264800,5.9612646484375,1.2500581741333008,2.3692798614501953,-1.2540854215621948
1772045510285250600,5.97125048828125,1.6539347171783447,2.072146415710449,-1.2229443788528442
1772045510295236900,5.98123681640625,2.276597023010254,1.5746275186538696,-1.3698363304138184
1772045510305222700,5.99122265625,2.708632469177246,1.0911569595336914,-1.5713732242584229
1772045510315208700,6.001208740234375,2.7416765689849854,0.8538041114807129,-1.6352581977844238
1772045510325194800,6.01119482421875,2.2435977458953857,1.3805609941482544,-1.3893862962722778
1772045510335180800,6.021180908203125,1.1325619220733643,2.842374324798584,-0.6792118549346924
1772045510345166600,6.03116650390625,-0.6137269735336304,4.9661760330200195,0.46248120069503784
1772045510355153000,6.04115283203125,-2.001133441925049,6.760562419891357,1.7495315074920654
1772045510365138700,6.051138671875,-2.4428212642669678,7.219995021820068,2.59710955619812
1772045510375124700,6.061124755859375,-2.233379602432251,6.707397937774658,2.909383773803711
1772045510385110800,6.07111083984375,-1.7743438482284546,5.391244411468506,2.8566882610321045
1772045510395096800,6.081096923828125,-1.4493036270141602,3.539726734161377,2.683856964111328
1772045510405082600,6.09108251953125,-1.3675367832183838,1.6015160083770752,2.672447919845581
1772045510415069000,6.10106884765625,-1.3527597188949585,-0.04722173511981964,2.8672797679901123
1772045510425054700,6.1110546875,-1.3280278444290161,-1.0376112461090088,3.026158332824707
1772045510435040800,6.121040771484375,-1.310107707977295,-1.492262601852417,3.0849826335906982
1772045510445026800,6.13102685546875,-1.2617788314819336,-1.6901016235351562,3.1508994102478027
1772045510455012900,6.141012939453125,-1.1903523206710815,-1.8506715297698975,3.229618549346924
1772045510464998700,6.15099853515625,-1.082231879234314,-2.0372791290283203,3.2343056201934814
1772045510474984700,6.160984619140625,-0.9234006404876709,-2.1919713020324707,3.0619442462921143
1772045510484970800,6.170970703125,-0.7321312427520752,-2.274610996246338,2.735114336013794
1772045510494956800,6.180956787109375,-0.5220616459846497,-2.2479076385498047,2.3835015296936035
1772045510504941800,6.19094189453125,-0.33388206362724304,-2.1073555946350098,2.103344440460205
1772045510514927900,6.200927978515625,-0.2098139077425003,-1.786980390548706,1.9391613006591797
1772045510524913700,6.21091357421875,-0.15708942711353302,-1.3511704206466675,1.8591879606246948
1772045510534899700,6.220899658203125,-0.1768607348203659,-0.9063900113105774,1.829301118850708
1772045510544885800,6.2308857421875,-0.2663488984107971,-0.5133194923400879,1.7987556457519531
1772045510554871800,6.240871826171875,-0.36729228496551514,-0.24701879918575287,1.7210893630981445
1772045510564857600,6.250857666015625,-0.4099898338317871,-0.10408225655555725,1.532379388809204
1772045510574843600,6.26084375,-0.3832697868347168,0.02619079500436783,1.2073224782943726
1772045510584829700,6.27082958984375,-0.26673877239227295,0.11375562101602554,0.7653892636299133
1772045510594815700,6.280815673828125,-0.06633324921131134,0.089157335460186,0.27219098806381226
1772045510604801500,6.290801513671875,0.18796128034591675,-0.06973950564861298,-0.20849309861660004
1772045510614787800,6.300787841796875,0.4447672367095947,-0.2968834340572357,-0.6086178421974182
1772045510624773600,6.310773681640625,0.6774002313613892,-0.5263980627059937,-0.8868803977966309
1772045510634759700,6.320759765625,0.8570150136947632,-0.7363877892494202,-1.025099515914917
1772045510644745700,6.330745849609375,0.9946621060371399,-0.9025045037269592,-1.025505781173706
1772045510654731800,6.340731689453125,1.1474519968032837,-0.9615529179573059,-0.9422867298126221
1772045510664717600,6.350717529296875,1.3018126487731934,-0.9462888240814209,-0.8333536386489868
1772045510674704000,6.360703857421875,1.4367496967315674,-0.8837884664535522,-0.7362614870071411
1772045510684689700,6.370689697265625,1.5425561666488647,-0.8343307375907898,-0.6736661791801453
1772045510694675700,6.38067578125,1.6281306743621826,-0.8115844130516052,-0.6721388697624207
1772045510704661800,6.390661865234375,1.6865900754928589,-0.8396304845809937,-0.7381924986839294
1772045510714647800,6.400647705078125,1.6916319131851196,-0.8519343137741089,-0.8412728309631348
1772045510724633600,6.410633544921875,1.6271874904632568,-0.8484848737716675,-0.9709256291389465
1772045510734620000,6.420619873046875,1.5320523977279663,-0.7769870162010193,-1.115014910697937
1772045510744605700,6.430605712890625,1.495649814605713,-0.6252155303955078,-1.2311216592788696
1772045510754591700,6.440591796875,1.5923230648040771,-0.31117579340934753,-1.279373049736023
1772045510764577800,6.450577880859375,1.784512996673584,0.15800446271896362,-1.299826741218567
1772045510774563800,6.460563720703125,1.9050426483154297,0.6421170830726624,-1.3346915245056152
1772045510784549600,6.470549560546875,1.7901920080184937,1.0028252601623535,-1.4452669620513916
1772045510794535700,6.48053564453125,1.5700665712356567,0.8688892722129822,-1.5971553325653076
1772045510804521700,6.490521728515625,1.7574774026870728,-0.05625781789422035,-1.6703559160232544
1772045510814507800,6.5005078125,2.6701245307922363,-1.4750797748565674,-1.4467968940734863
1772045510824493600,6.51049365234375,4.012619495391846,-2.6909923553466797,-0.8397188782691956
1772045510834479900,6.52047998046875,4.819250106811523,-3.108809471130371,-0.034530770033597946
1772045510844465700,6.530465576171875,4.340510845184326,-2.1804347038269043,0.7076168060302734
1772045510854451700,6.54045166015625,2.7254199981689453,-0.5042636394500732,1.2260913848876953
1772045510864437800,6.550437744140625,0.7639732360839844,1.0121269226074219,1.1536335945129395
1772045510874423800,6.560423828125,-0.6190177202224731,2.177351474761963,0.6243616342544556
1772045510884409600,6.57040966796875,-1.0746021270751953,2.8026580810546875,-0.0797240361571312
1772045510894396000,6.58039599609375,-0.9246076345443726,2.9388158321380615,-0.6513196229934692
1772045510904381700,6.590381591796875,-0.66988205909729,2.5257861614227295,-0.8528224229812622
1772045510914366700,6.60036669921875,-0.6658670902252197,1.7143818140029907,-0.6300567388534546
1772045510924352800,6.610352783203125,-0.9470479488372803,0.8516192436218262,-0.15120549499988556
1772045510934338800,6.6203388671875,-1.3238914012908936,0.23194243013858795,0.3006090819835663
1772045510944324600,6.63032470703125,-1.642241358757019,-0.08364682644605637,0.5597897171974182
1772045510954310700,6.640310546875,-1.8491729497909546,-0.1141461431980133,0.6053289771080017
1772045510964296700,6.650296630859375,-1.9781808853149414,0.009115084074437618,0.5198681950569153
1772045510974282800,6.66028271484375,-2.0669143199920654,0.13283276557922363,0.4044763743877411
1772045510984268500,6.6702685546875,-2.1076242923736572,0.09792263060808182,0.38370639085769653
1772045510994254800,6.6802548828125,-2.101130247116089,-0.17426441609859467,0.5107588768005371
1772045511004240600,6.69024072265625,-2.056816816329956,-0.6187417507171631,0.7786164283752441
1772045511014226700,6.700226806640625,-1.9930429458618164,-1.0810225009918213,1.131751537322998
1772045511024212700,6.710212646484375,-1.9364107847213745,-1.4379677772521973,1.468664288520813
1772045511034198800,6.72019873046875,-1.897739291191101,-1.6517874002456665,1.697571873664856
1772045511044184800,6.730184814453125,-1.8721942901611328,-1.6972243785858154,1.7432336807250977
1772045511054171000,6.7401708984375,-1.85299813747406,-1.5714515447616577,1.5853241682052612
1772045511064156700,6.75015673828125,-1.8735686540603638,-1.3084099292755127,1.23612642288208
1772045511074143000,6.76014306640625,-1.9341554641723633,-0.9236199855804443,0.7725183367729187
1772045511084128800,6.770128662109375,-1.9890843629837036,-0.5082879066467285,0.27380940318107605
1772045511094114800,6.78011474609375,-1.9731289148330688,-0.12794695794582367,-0.19885879755020142
1772045511104100900,6.790100830078125,-1.849623441696167,0.19015032052993774,-0.6187472939491272
1772045511114087000,6.8000869140625,-1.6110646724700928,0.3672705292701721,-0.9429773092269897
1772045511124072700,6.81007275390625,-1.2924996614456177,0.37371155619621277,-1.1284359693527222
1772045511134059000,6.82005908203125,-0.91546231508255,0.2296699583530426,-1.1298946142196655
1772045511144044800,6.830044921875,-0.538663923740387,0.035552412271499634,-0.9634436368942261
1772045511154030800,6.84003076171875,-0.20381566882133484,-0.12779870629310608,-0.6625040173530579
1772045511164017000,6.850016845703125,0.08462054282426834,-0.24215294420719147,-0.30971142649650574
1772045511174003000,6.8600029296875,0.31331151723861694,-0.3093514144420624,0.03775466978549957
1772045511183988700,6.86998876953125,0.47869399189949036,-0.34048911929130554,0.32056042551994324
1772045511193975000,6.87997509765625,0.6173511743545532,-0.36625173687934875,0.48266810178756714
1772045511203960800,6.8899609375,0.7444769144058228,-0.39767831563949585,0.5229155421257019
1772045511213947000,6.89994677734375,0.8662539720535278,-0.43168503046035767,0.4740993082523346
1772045511223933000,6.909932861328125,0.97505122423172,-0.42741602659225464,0.36672279238700867
1772045511233919000,6.9199189453125,1.0737409591674805,-0.353606253862381,0.20981571078300476
1772045511243904800,6.92990478515625,1.1244664192199707,-0.1594589650630951,-0.0034558000043034554
1772045511253891000,6.93989111328125,1.1219176054000854,0.12580633163452148,-0.2105536013841629
1772045511263876900,6.949876953125,1.1172595024108887,0.5342919230461121,-0.3513583838939667
1772045511273863000,6.95986279296875,1.1403274536132812,1.0157525539398193,-0.4103495478630066
1772045511283848700,6.9698486328125,1.159995198249817,1.375786304473877,-0.3632912039756775
1772045511293835000,6.9798349609375,1.2303926944732666,1.5501093864440918,-0.22886550426483154
1772045511303820800,6.98982080078125,1.5168991088867188,1.406418800354004,-0.1547858566045761
1772045511313806800,6.999806884765625,2.187303304672241,0.6819136738777161,-0.26511049270629883
1772045511323793000,7.00979296875,3.125549793243408,-0.69185870885849,-0.4284789562225342
1772045511333779000,7.019779052734375,4.15757417678833,-2.39864444732666,-0.5499563813209534
1772045511343764700,7.0297646484375,4.787962436676025,-3.5952765941619873,-0.5377908945083618
1772045511353751000,7.0397509765625,4.306319236755371,-2.970644950866699,-0.2652304470539093
1772045511363736800,7.04973681640625,2.622729778289795,-0.5189939737319946,0.16274408996105194
1772045511373723000,7.059722900390625,0.5781753659248352,2.3215293884277344,0.29545101523399353
1772045511383709000,7.069708984375,-0.7726592421531677,4.227809429168701,0.1734798699617386
1772045511393695000,7.079695068359375,-1.2047044038772583,4.646289348602295,0.08354572206735611
1772045511403680800,7.0896806640625,-0.9640874266624451,3.712512969970703,0.15682807564735413
1772045511413667000,7.0996669921875,-0.5250208377838135,2.0104095935821533,0.4346487820148468
1772045511423652900,7.10965283203125,-0.2917329967021942,0.213425412774086,0.871654212474823
1772045511433639000,7.119638916015625,-0.3294108510017395,-1.0461277961730957,1.3330470323562622
1772045511443625000,7.129625,-0.5042608380317688,-1.6705974340438843,1.6068768501281738
1772045511453611000,7.139611083984375,-0.7411019206047058,-1.6319162845611572,1.5563935041427612
1772045511463596800,7.1495966796875,-1.019418478012085,-1.05001699924469,1.12078857421875
1772045511473583000,7.1595830078125,-1.2767291069030762,-0.229442298412323,0.4257395565509796
1772045511483569000,7.16956884765625,-1.4715261459350586,0.5388711094856262,-0.29309847950935364
1772045511493555000,7.179554931640625,-1.6263797283172607,1.1161009073257446,-0.8008101582527161
1772045511503541000,7.189541015625,-1.7748795747756958,1.453190803527832,-0.9710173010826111
1772045511513527000,7.199527099609375,-1.9061723947525024,1.4906606674194336,-0.7599236965179443
1772045511523512800,7.209512939453125,-2.0004661083221436,1.282616376876831,-0.26326602697372437
1772045511533499000,7.219498779296875,-2.0966789722442627,0.9147768616676331,0.33344024419784546
1772045511543485000,7.22948486328125,-2.196021795272827,0.4980970323085785,0.896173357963562
1772045511553471000,7.239470947265625,-2.2879340648651123,0.12361796945333481,1.3143563270568848
1772045511563456800,7.249456787109375,-2.3460288047790527,-0.18401147425174713,1.5704303979873657
1772045511573442800,7.25944287109375,-2.346961498260498,-0.3387203514575958,1.7050797939300537
1772045511583428900,7.269428955078125,-2.290921688079834,-0.2814920246601105,1.7310742139816284
1772045511593414700,7.27941455078125,-2.195753812789917,-0.07854770123958588,1.676374912261963
1772045511603401000,7.28940087890625,-2.0815906524658203,0.1785980612039566,1.537443995475769
1772045511613386800,7.29938671875,-1.9655274152755737,0.4457738399505615,1.3238155841827393
1772045511623372800,7.309372802734375,-1.8716304302215576,0.7086524367332458,1.0673038959503174
1772045511633358800,7.31935888671875,-1.7896080017089844,0.9188336133956909,0.7818148732185364
1772045511643345000,7.329344970703125,-1.711417555809021,1.0426615476608276,0.4803275763988495
1772045511653330700,7.33933056640625,-1.6314945220947266,1.0425105094909668,0.19104249775409698
1772045511663317000,7.34931689453125,-1.541340947151184,0.8391500115394592,-0.005933338310569525
1772045511673302800,7.359302734375,-1.4248425960540771,0.4711732864379883,-0.08949960023164749
1772045511683288800,7.369288818359375,-1.2680726051330566,0.07653363794088364,-0.09105648100376129
1772045511693275000,7.37927490234375,-1.0842647552490234,-0.23903071880340576,-0.03074599988758564
1772045511703261000,7.389260986328125,-0.8864206075668335,-0.40182268619537354,0.06944656372070312
1772045511713246700,7.399246826171875,-0.6996278762817383,-0.40218859910964966,0.18622778356075287
1772045511723233000,7.40923291015625,-0.5157129168510437,-0.2863221764564514,0.28690049052238464
1772045511733218800,7.41921875,-0.32306039333343506,-0.1338367462158203,0.3560689091682434
1772045511743204900,7.429204833984375,-0.1094280257821083,0.006900551728904247,0.38371899724006653
1772045511753191000,7.43919091796875,0.1248350664973259,0.13694217801094055,0.3594312369823456
1772045511763177000,7.449177001953125,0.3653561770915985,0.2712595462799072,0.2980711758136749
1772045511773162800,7.459162841796875,0.6341857314109802,0.41219666600227356,0.1872919350862503
1772045511783148800,7.469148681640625,0.9368056058883667,0.5822625756263733,0.0055391062051057816
1772045511793134800,7.479134765625,1.262526512145996,0.7927297949790955,-0.2850666344165802
1772045511803121000,7.489120849609375,1.6175061464309692,1.0347537994384766,-0.632785975933075
1772045511813106700,7.499106689453125,2.0038719177246094,1.2690643072128296,-0.9699613451957703
1772045511823093000,7.509093017578125,2.422173261642456,1.5201314687728882,-1.251962661743164
1772045511833078800,7.519078857421875,2.8731439113616943,1.6270571947097778,-1.4904921054840088
1772045511843064800,7.52906494140625,3.4369826316833496,1.273525595664978,-1.7942827939987183
1772045511853051000,7.53905078125,3.9965665340423584,0.37072765827178955,-2.1143884658813477
1772045511863037000,7.549036865234375,4.315541744232178,-0.7436250448226929,-2.3065924644470215
1772045511873022700,7.559022705078125,4.217059135437012,-1.7517985105514526,-2.3222720623016357
1772045511883009000,7.569009033203125,3.6572940349578857,-1.8407539129257202,-2.0755224227905273
1772045511892994800,7.578994873046875,2.8135366439819336,-0.42387905716896057,-1.5968124866485596
1772045511902980900,7.58898095703125,1.8996180295944214,1.9772549867630005,-1.139162302017212
1772045511912967000,7.598966796875,1.1597639322280884,4.097136974334717,-0.9921038746833801
1772045511922953000,7.608952880859375,0.7072034478187561,5.370495319366455,-1.1111445426940918
1772045511932938800,7.618938720703125,0.45775821805000305,5.73362922668457,-1.2294583320617676
1772045511942925000,7.628925048828125,0.39363372325897217,5.283716678619385,-1.1429632902145386
1772045511952910800,7.638910888671875,0.34432318806648254,4.395193099975586,-0.8335790634155273
1772045511962897000,7.64889697265625,0.2004072070121765,3.507310390472412,-0.3495585322380066
1772045511972883000,7.658883056640625,0.03142377361655235,2.889514446258545,0.17659421265125275
1772045511982868000,7.668867919921875,-0.0708288624882698,2.593606948852539,0.5839784741401672
1772045511992853800,7.678853759765625,-0.06532517075538635,2.608696699142456,0.7655863165855408
1772045512002839800,7.68883984375,0.022646332159638405,2.832167387008667,0.7625560760498047
1772045512012825900,7.698825927734375,0.1296398937702179,3.1707606315612793,0.6545100212097168
1772045512022812000,7.70881201171875,0.169510617852211,3.4600048065185547,0.488471657037735
1772045512032797700,7.718797607421875,0.14312322437763214,3.6352474689483643,0.32547369599342346
1772045512042784300,7.7287841796875,0.10373890399932861,3.664796829223633,0.22426831722259521
1772045512052770000,7.73877001953125,0.06797930598258972,3.511361598968506,0.1887103170156479
1772045512062756000,7.748756103515625,0.04835747182369232,3.258025646209717,0.20006045699119568
1772045512072742100,7.7587421875,0.04315977916121483,2.9775643348693848,0.26103806495666504
1772045512082728200,7.768728271484375,0.06566708534955978,2.740297794342041,0.3570204973220825
1772045512092714000,7.7787138671875,0.09933982044458389,2.5252950191497803,0.5115416646003723
1772045512102700300,7.7887001953125,0.11141457408666611,2.3034234046936035,0.6771053075790405
1772045512112686000,7.79868603515625,0.08664664626121521,2.1071810722351074,0.7884994745254517
1772045512122672000,7.808672119140625,0.0583195686340332,2.007810115814209,0.8007672429084778
1772045512132658200,7.818658203125,0.0686315968632698,1.6761735677719116,0.8465685844421387
1772045512142644200,7.828644287109375,0.05391134321689606,1.4037286043167114,0.885879397392273
1772045512152630000,7.838630126953125,0.0061438241973519325,1.247535228729248,0.8439191579818726
1772045512162616000,7.848615966796875,-0.060653042048215866,1.112554907798767,0.7405873537063599
1772045512172602000,7.85860205078125,-0.07963179051876068,0.885251522064209,0.5958056449890137
1772045512182588200,7.868588134765625,-0.10967415571212769,0.6957523822784424,0.44888707995414734
1772045512192574000,7.878573974609375,-0.23073826730251312,0.6179375052452087,0.2422233670949936
1772045512202560300,7.888560302734375,-0.36494338512420654,0.5113286972045898,0.03569236397743225
1772045512212546000,7.898546142578125,-0.4632907211780548,0.7807247638702393,0.005279865115880966
1772045512222532000,7.908531982421875,-0.5267499685287476,1.6616227626800537,0.20398148894309998
1772045512232518100,7.91851806640625,-0.5419760346412659,2.1510448455810547,0.19121137261390686
1772045512242504200,7.928504150390625,-0.5461112856864929,1.9772388935089111,-0.118841752409935
1772045512252490000,7.938489990234375,-0.6196398138999939,1.5166375637054443,-0.38357993960380554
1772045512262476300,7.948476318359375,-0.7028777003288269,1.2341015338897705,-0.46720489859580994
1772045512272462000,7.958462158203125,-0.7318789958953857,1.230102300643921,-0.49724718928337097
1772045512282448100,7.9684482421875,-0.7161679863929749,1.273835301399231,-0.524657666683197
1772045512292434200,7.97843408203125,-0.6810675263404846,1.1622395515441895,-0.5432334542274475
1772045512302420200,7.988420166015625,-0.6440405249595642,0.9355765581130981,-0.54311203956604
1772045512312406000,7.998406005859375,-0.5764806270599365,0.7568163871765137,-0.5120102763175964
1772045512322392300,8.008392333984375,-0.4787927269935608,0.665162205696106,-0.46572229266166687
1772045512332378000,8.018378173828125,-0.3862942159175873,0.7141577005386353,-0.42721670866012573
1772045512342364200,8.0283642578125,-0.3245104253292084,0.8654471635818481,-0.41989952325820923
1772045512352350200,8.03835009765625,-0.24267122149467468,1.0155353546142578,-0.41640278697013855
1772045512362336300,8.048336181640625,-0.14021486043930054,1.1165200471878052,-0.38744428753852844
1772045512372322000,8.058322021484376,-0.0453658401966095,1.0927298069000244,-0.30693507194519043
1772045512382308400,8.068308349609374,0.025499453768134117,0.9512120485305786,-0.14504040777683258
1772045512392294100,8.078294189453125,0.03542638570070267,0.7283539175987244,0.08897902816534042
1772045512402280200,8.0882802734375,0.00019497238099575043,0.5235856175422668,0.3608782887458801
1772045512412266000,8.098265869140626,-0.0182785764336586,0.37973254919052124,0.6396185755729675
1772045512422252300,8.108252197265625,0.06384339183568954,0.28162235021591187,0.900860607624054
1772045512432238000,8.118238037109375,0.1735139638185501,0.28126201033592224,1.1175453662872314
1772045512442224000,8.12822412109375,0.1847522109746933,0.31754523515701294,1.2259198427200317
1772045512452210200,8.138210205078124,0.16059041023254395,0.23976735770702362,1.2387522459030151
1772045512462196200,8.1481962890625,0.18070119619369507,0.06534697115421295,1.1718696355819702
1772045512472182000,8.15818212890625,0.21767573058605194,-0.13610012829303741,1.0385048389434814
1772045512482168300,8.168168212890626,0.23682337999343872,-0.2897292673587799,0.8747062683105469
1772045512492154000,8.178154052734374,0.24297688901424408,-0.3646351993083954,0.6869992017745972
1772045512502140200,8.18814013671875,0.24286794662475586,-0.35913848876953125,0.4763060510158539
1772045512512126200,8.198126220703125,0.24025511741638184,-0.2908981740474701,0.24795490503311157
1772045512522112300,8.2081123046875,0.22617943584918976,-0.17711035907268524,0.028618453070521355
1772045512532098000,8.21809814453125,0.2118833214044571,-0.05977973714470863,-0.14521671831607819
1772045512542084000,8.228083984375,0.19972939789295197,0.019264427945017815,-0.24556171894073486
1772045512552070100,8.238070068359375,0.1898954063653946,0.06843889504671097,-0.2739803194999695
1772045512562056200,8.24805615234375,0.18856312334537506,0.10852030664682388,-0.23484358191490173
1772045512572042200,8.258042236328125,0.19369876384735107,0.1601819097995758,-0.15630564093589783
1772045512582028000,8.268028076171875,0.20810158550739288,0.20576001703739166,-0.04134146124124527
1772045512592014000,8.27801416015625,0.21519970893859863,0.22733427584171295,0.08765220642089844
1772045512602000100,8.288000244140624,0.21422827243804932,0.2371741533279419,0.22789902985095978
1772045512611986200,8.297986083984375,0.19328917562961578,0.2280253916978836,0.3601643741130829
1772045512621972000,8.307971923828125,0.1548478901386261,0.1901874542236328,0.4631299674510956
1772045512631957000,8.31795703125,0.10898959636688232,0.12832675874233246,0.5435861945152283
1772045512641943300,8.327943359375,0.06122836098074913,0.04884030297398567,0.5696147084236145
1772045512651929000,8.33792919921875,0.026216577738523483,-0.055850155651569366,0.5176034569740295
1772045512661915100,8.3479150390625,0.0052915895357728004,-0.17446064949035645,0.4184384346008301
1772045512671901200,8.357901123046876,-0.010022120550274849,-0.2895198464393616,0.30454516410827637
1772045512681887200,8.36788720703125,-0.009676950983703136,-0.36284148693084717,0.18551301956176758
1772045512691873000,8.377873046875,-0.0004299227148294449,-0.37837570905685425,0.05907038599252701
1772045512701859300,8.387859375,0.00497762206941843,-0.3386838138103485,-0.050037115812301636
1772045512711845000,8.39784521484375,0.004731546156108379,-0.23550309240818024,-0.11333246529102325
1772045512721831200,8.4078310546875,-0.0006629526615142822,-0.07273495197296143,-0.12257283180952072
1772045512731817200,8.417817138671875,-0.007139760535210371,0.0755394771695137,-0.11205015331506729
1772045512741803300,8.42780322265625,-0.017006007954478264,0.16702550649642944,-0.08211178332567215
1772045512751789000,8.4377890625,-0.030785469338297844,0.19939222931861877,-0.0297071672976017
1772045512761775000,8.447775146484375,-0.0479574017226696,0.21042941510677338,0.046122677624225616
1772045512771761200,8.45776123046875,-0.058998335152864456,0.20113950967788696,0.11884934455156326
1772045512781747200,8.467747314453124,-0.07247710973024368,0.14885751903057098,0.18903207778930664
1772045512791733000,8.47773291015625,-0.07542602717876434,0.09141471982002258,0.23860575258731842
1772045512801719300,8.48771923828125,-0.06961525231599808,0.007013885769993067,0.2593427300453186
1772045512811705000,8.497705078125,-0.06822055578231812,-0.06648589670658112,0.265474408864975
1772045512821691100,8.507691162109374,-0.06688600778579712,-0.0948629230260849,0.25532469153404236
1772045512831677200,8.51767724609375,-0.07765582948923111,-0.0786203071475029,0.23679867386817932
1772045512841663200,8.527663330078125,-0.08187595754861832,-0.05552823096513748,0.22899475693702698
1772045512851649000,8.53764892578125,-0.0713769719004631,-0.05634235963225365,0.23343504965305328
1772045512861635300,8.54763525390625,-0.05353577435016632,-0.07136939465999603,0.22198569774627686
1772045512871621000,8.55762109375,-0.03431813418865204,-0.07718120515346527,0.18653608858585358
1772045512881607200,8.567607177734375,-0.011733200401067734,-0.07561241090297699,0.11846699565649033
1772045512891593200,8.57759326171875,0.0009879209101200104,-0.04505609720945358,0.04199725762009621
1772045512901579300,8.587579345703125,0.0069118766114115715,0.004975291434675455,-0.016769440844655037
1772045512911565000,8.59756494140625,0.013483491726219654,0.06560375541448593,-0.05319802090525627
1772045512921551000,8.607551025390626,0.010046262294054031,0.11441750824451447,-0.06940560787916183
1772045512931537200,8.617537109375,-0.00037575140595436096,0.13953085243701935,-0.05962594598531723
1772045512941523200,8.627523193359375,-0.02764788642525673,0.15591466426849365,-0.015020216815173626
1772045512951509200,8.63750927734375,-0.0626671239733696,0.16396406292915344,0.03394652530550957
1772045512961495000,8.6474951171875,-0.10561073571443558,0.1574385166168213,0.07446125149726868
1772045512971481000,8.657481201171874,-0.14875632524490356,0.1408502161502838,0.1151873767375946
1772045512981467100,8.667467041015625,-0.1866389811038971,0.1247301772236824,0.15812955796718597
1772045512991452200,8.6774521484375,-0.20070020854473114,0.10991182178258896,0.20088526606559753
1772045513001438200,8.687438232421876,-0.20531177520751953,0.07180389761924744,0.2209150791168213
1772045513011424000,8.697424072265624,-0.19896891713142395,0.048686329275369644,0.2442781925201416
1772045513021410300,8.707410400390625,-0.17572280764579773,0.04245889186859131,0.2412651926279068
1772045513031396000,8.71739599609375,-0.15451578795909882,0.06717249751091003,0.2091197669506073
1772045513041382700,8.727382568359374,-0.11818068474531174,0.12446480989456177,0.16022013127803802
1772045513051368400,8.737368408203125,-0.07618129998445511,0.20930035412311554,0.08969616144895554
1772045513061354500,8.7473544921875,-0.02657640352845192,0.31060945987701416,0.01017991453409195
1772045513071340500,8.757340576171876,0.014327354729175568,0.38832396268844604,-0.06867308914661407
1772045513081326600,8.76732666015625,0.05396613851189613,0.4125595986843109,-0.15151774883270264
1772045513091312400,8.7773125,0.07972529530525208,0.3900907635688782,-0.22289952635765076
1772045513101298700,8.787298583984375,0.1118643581867218,0.367735892534256,-0.2576141357421875
1772045513111284500,8.797284423828126,0.11911480873823166,0.29877468943595886,-0.27736467123031616
1772045513121270500,8.8072705078125,0.11819817870855331,0.21115438640117645,-0.27368560433387756
1772045513131256600,8.817256591796875,0.10946939140558243,0.14983350038528442,-0.24458976089954376
1772045513141242600,8.82724267578125,0.08107798546552658,0.09977474063634872,-0.2015114724636078
