time,seconds_elapsed,z,y,x
1772045913159348700,0.0733486328125,-0.6220137082129716,0.16535101345926523,-0.1430978997927159
1772045913169334500,0.08333447265625,-0.3427677277654409,0.16261040951423347,-0.06265585120357572
1772045913179320600,0.093320556640625,-0.006510989329218864,0.10370375477634369,0.0843354758311063
1772045913189305600,0.1033056640625,0.4145242194652557,0.029050080330297347,0.27216025997027754
1772045913199291600,0.113291748046875,0.7482008782804012,0.16416655291505158,0.4746238103147596
1772045913209277700,0.123277587890625,0.8085375658214092,-0.14400485856980086,0.5720427857331931
1772045913219262700,0.1332626953125,0.7943950587004422,-0.26373883390985425,0.11254625579304993
1772045913229248500,0.14324853515625,0.6430488974571228,0.07784859802983701,-0.21403116547614334
1772045913239233800,0.15323388671875,0.2563864983856678,0.14295425353832542,-0.057066287568211554
1772045913249219600,0.163219482421875,-0.14535773448348044,0.15352701241374014,0.21686237031407654
1772045913259205600,0.17320556640625,-0.39059856947660443,0.3712866968937218,0.457278050173074
1772045913269190700,0.183190673828125,-0.4069996691793203,0.6197234783839434,0.6312273806296289
1772045913279176700,0.1931767578125,-0.40861470316052434,0.560763559088856,0.7384666891209781
1772045913289161700,0.20316162109375,-0.6168406894892454,0.22141440759524703,0.6765564686529338
1772045913299147500,0.2131474609375,-0.8845511304438114,0.17655490984506905,0.2722729996297508
1772045913309133600,0.223133544921875,-1.029307976424694,0.34458244903720914,-0.2858440635383129
1772045913319118800,0.233118896484375,-0.9968091438800096,0.09523255302375182,-0.3129800538755953
1772045913329104600,0.243104736328125,-0.6362620137959718,-0.07769087758432142,-0.04849149757698178
1772045913339090700,0.253090576171875,-0.08648819688558577,-0.1541518663138151,0.22350451174229383
1772045913349075500,0.263075439453125,0.49225160226821896,-0.06039836373352445,0.35429895640946923
1772045913359061800,0.273061767578125,1.0031254874199629,0.10141931536728516,0.4379400933008641
1772045913369046800,0.283046875,1.135436108803749,0.1550442851088941,0.49562823909446596
1772045913379032600,0.293032470703125,0.7076333055704832,-0.08127312911842018,0.6733676094837486
1772045913389018600,0.3030185546875,0.21966215710043907,-0.30062727971561254,0.8562719614207744
1772045913399003600,0.313003662109375,-0.06799041716456412,-0.3970528601825237,0.9604944063089788
1772045913408989700,0.32298974609375,0.1386018304824829,-0.542021668413654,1.3620588986970483
1772045913418975500,0.3329755859375,0.41457916452288623,-0.8349955107666551,1.7523662301421163
1772045913428960500,0.34296044921875,0.7944991035968065,-1.0101489563159645,2.0910496112033723
1772045913438947000,0.352947021484375,0.8389379647821188,-0.5312763294503092,1.8850149974390864
1772045913448931800,0.362931884765625,0.5086807590216398,0.3745408033188432,1.0230314534384757
1772045913458918100,0.372918212890625,0.179122641441226,0.494742761496827,0.7047838344234972
1772045913468904000,0.382904052734375,-0.09986731841862201,0.3075347575491294,0.8357393148712814
1772045913478889000,0.392888916015625,-0.33886604415178295,0.3496006425254047,1.0144595129914582
1772045913488875000,0.402875,-0.5527648154199123,0.2877418599836528,1.218027517446503
1772045913498861000,0.412861083984375,-0.6710580173671246,0.2511917062215507,1.393088681602478
1772045913508846000,0.42284619140625,-0.7032739413172007,0.33064266141410914,1.4881604363076388
1772045913518831900,0.432831787109375,-0.6886877820819616,0.4533786315817386,1.2424512531504035
1772045913528817000,0.44281689453125,-0.6130483114689588,0.38269656418040393,0.990070921666175
1772045913538803200,0.45280322265625,-0.41780338726639743,0.19285083214025944,0.9124249335363507
1772045913548789000,0.4627890625,-0.22730828793942928,0.13076434178985655,0.6615313334785401
1772045913558774000,0.47277392578125,-0.18137305071651935,0.10546101023983209,0.4131724760627374
1772045913568759800,0.482759765625,-0.35196401065587996,0.023201536965183914,0.3828544216232374
1772045913578746000,0.49274609375,-0.5185270302534103,-0.09956705683041363,0.35682920553945
1772045913588731100,0.502731201171875,-0.6045376727551222,-0.23139519192688165,0.2685536137804389
1772045913598717000,0.512717041015625,-0.6027262394189834,-0.2740713177559897,0.1255664443532005
1772045913608702000,0.522701904296875,-0.5555383717864751,-0.1926777040630579,-0.0984469302266836
1772045913618688000,0.53268798828125,-0.4976309572190046,-0.09745185477472841,-0.2942721750678494
1772045913628674000,0.542674072265625,-0.395485756996274,-0.07321965958755462,-0.3558740967717022
1772045913638659000,0.5526591796875,-0.2854430815219879,-0.09090893593728541,-0.4743102143209427
1772045913648644900,0.562644775390625,-0.2535352006077766,-0.19363876764755694,-0.6404640685956925
1772045913658630000,0.5726298828125,-0.09362170202732085,-0.15866123349703848,-0.8285941923569887
1772045913668616000,0.582615966796875,0.017343933510780334,-0.14807481142245232,-0.8388190145775676
1772045913678602000,0.59260205078125,0.14521978731751442,-0.0947790553689003,-0.6808190945334732
1772045913688587000,0.6025869140625,0.22880817110836504,0.03677994392998516,-0.5413670404298231
1772045913698573000,0.612572998046875,0.22422551949322223,0.09525938623175025,-0.39712954214792695
1772045913708559000,0.62255908203125,0.15600889235734938,0.07113178393021226,-0.3376063994795084
1772045913718544100,0.632544189453125,0.13841595252156258,-0.04225917905867099,-0.38486207165122027
1772045913728530000,0.642530029296875,0.2297995202332735,-0.14170096554160116,-0.49357452143505215
1772045913738515000,0.652514892578125,0.425987862765789,-0.1728787786155939,-0.6071302099989727
1772045913748501000,0.6625009765625,0.6844803935199976,-0.18080036539509892,-0.6110322954714298
1772045913758487000,0.672487060546875,0.8596966751724481,-0.12494170005097985,-0.5704131021721288
1772045913768472000,0.68247216796875,0.9238327549964189,-0.01685739210285246,-0.4747264669716358
1772045913778458000,0.6924580078125,0.8191974915236234,0.15865743410475552,-0.4305074225494638
1772045913788444200,0.702444091796875,0.6223024620264769,0.3231105488762259,-0.3751218180771917
1772045913798429000,0.712428955078125,0.46971185368001456,0.46366760507971044,-0.33721268745418637
1772045913808415000,0.7224150390625,0.3251028917372227,0.5504558078251779,-0.3003084230247885
1772045913818400000,0.73239990234375,0.2277075163900852,0.5760426690243184,-0.2696762976674363
1772045913828386000,0.742385986328125,0.12211246797442435,0.5454099226124585,-0.3068499901553616
1772045913838372000,0.7523720703125,-0.14026771786808967,0.4271897128362208,-0.42175256328359245
1772045913848356900,0.76235693359375,-0.42696342979967594,0.2759372212257236,-0.517084832088463
1772045913858343200,0.77234326171875,-0.6221744517326354,0.2531705320138484,-0.6276181040912866
1772045913868329000,0.782328857421875,-0.6604489450693131,0.3377827058944851,-0.7130898174107074
1772045913878314000,0.79231396484375,-0.5579021783083677,0.4654451361462474,-0.7762078792985528
1772045913888300000,0.802300048828125,-0.33877252064943314,0.5647331203069538,-0.7879430330168455
1772045913898284800,0.812284912109375,-0.0758171652674675,0.4794005231972783,-0.8914996344074606
1772045913908271000,0.82227099609375,0.10301263070702552,0.2196103538479656,-1.151990426306799
1772045913918257000,0.8322568359375,0.19811200407147406,-0.07116765896119177,-1.4132853741958737
1772045913928242000,0.842241943359375,0.13046236316859722,-0.34134668198637663,-1.6273393360257147
1772045913938228000,0.85222802734375,0.03487608307003975,-0.6457409860853105,-1.7938130699045955
1772045913948214000,0.862214111328125,-0.031606267619132995,-0.9618384413290768,-1.9442562909588217
1772045913958199000,0.872198974609375,-0.1276958210647106,-1.2226946324747054,-2.144272082825005
1772045913968184800,0.882184814453125,-0.16994389420747755,-1.3665620553351938,-2.1897690747611223
1772045913978169900,0.892169921875,-0.08629238205254078,-1.4118483271300792,-1.9663550177812574
1772045913988156200,0.90215625,0.07512918300330639,-1.3240674600854516,-1.608472430731356
1772045913998142000,0.912141845703125,0.16091069292426108,-1.1133348246980457,-1.2093432757314293
1772045914008127000,0.922126953125,0.03399520858228206,-0.8868636451698839,-0.7965299518372863
1772045914018113000,0.932113037109375,-0.18391455189287662,-0.7084704870469868,-0.4025278575275093
1772045914028099000,0.94209912109375,-0.23315058422684667,-0.5321943941432983,-0.08517601830847561
1772045914038084000,0.952083984375,-0.009560440027713776,-0.35282464607320724,0.14447218382060528
1772045914048070000,0.96206982421875,0.34044366873204707,-0.2114885683212429,0.3145676883932203
1772045914058055000,0.972054931640625,0.6778145058900118,-0.10180493541769682,0.46557066222205756
1772045914068041000,0.982041015625,0.849442992183566,-0.015741905141621826,0.5804857660382986
1772045914078027000,0.992027099609375,0.8447644789785146,0.031218364280089735,0.664794938384369
1772045914088012000,1.002011962890625,0.7757879733860492,0.138702368247509,0.7320849521946161
1772045914097997800,1.011997802734375,0.710619627904892,0.26933979572206734,0.7570978128980844
1772045914107984100,1.021984130859375,0.610823036634922,0.43278760590851306,0.6850758021298795
1772045914117969200,1.03196923828125,0.4689046289503574,0.6053584876187146,0.6089316699303686
1772045914127955000,1.041954833984375,0.3887783683121204,0.6808940594658255,0.4836761546898633
1772045914137940000,1.05193994140625,0.42435704669356344,0.7036395597591996,0.2788771471351385
1772045914147926000,1.061926025390625,0.5528074855178594,0.6667717183500528,0.03985153339505195
1772045914157912000,1.071912109375,0.7112129176229238,0.5926347612544894,-0.26655367213487624
1772045914167897000,1.08189697265625,0.8399456805199385,0.4971072256058454,-0.5714158129412681
1772045914177883000,1.0918828125,0.8973200111240148,0.35867724455893035,-0.781085568337515
1772045914187868200,1.1018681640625,0.9859592485636473,0.17311207591481506,-0.7799118483830243
1772045914197854000,1.11185400390625,0.9747820209890603,0.06677329645976424,-0.5793707174684852
1772045914207840000,1.121840087890625,0.6634849517643451,0.06751439715065062,-0.257404808582738
1772045914217825000,1.131824951171875,0.13078735733926294,0.13032010515369474,0.07700155274644493
1772045914227811000,1.14181103515625,-0.3703261812984943,0.23724742508642374,0.22062742193602025
1772045914237797000,1.151797119140625,-0.6862678614586591,0.30011786888875064,0.15087949357964098
1772045914247782000,1.161781982421875,-0.7893740156680346,0.18700747640691698,-0.10809636371210217
1772045914257768000,1.171767822265625,-0.7055009697169065,-0.02941489505469799,-0.42945334691926834
1772045914267753200,1.181753173828125,-0.42338440226912494,-0.18268888255544005,-0.7518187034513801
1772045914277739000,1.191739013671875,-0.09198387169241905,-0.2191441245757043,-0.9800818078976123
1772045914287725000,1.20172509765625,-0.052773558810353276,-0.15720906192734838,-1.010055286683142
1772045914297709800,1.211709716796875,-0.5566197372823953,-0.12750296537373215,-0.8664031140085309
1772045914307696000,1.221696044921875,-1.1737275532752274,-0.13758501812275498,-0.7822641105975955
1772045914317682000,1.231681884765625,-1.4528233115971088,0.06441241254732012,-0.9057141838513314
1772045914327667000,1.2416669921875,-1.3793383886694908,0.22883315941914914,-1.0233701108083129
1772045914337653000,1.251653076171875,-1.0524205564647913,0.2291386451717466,-0.9663710432574152
1772045914347638000,1.261637939453125,-0.5059001883924007,0.18510613629762082,-0.7594334893040359
1772045914357624000,1.2716240234375,0.0947872386753559,0.1953815196616575,-0.47646461587585504
1772045914367609900,1.28160986328125,0.5293307483404874,0.301881006103754,-0.16734145662412048
1772045914377595000,1.291594970703125,0.7907178314924239,0.3512046436559409,0.03970708342306316
1772045914387581200,1.301581298828125,0.9673848964750766,0.3847014377294108,0.12055157533325254
1772045914397567000,1.31156689453125,1.1205968515902758,0.43753578681629146,0.13849544749855994
1772045914407552000,1.321552001953125,1.1956167290002107,0.45826293302457777,0.12807349527068435
1772045914417538000,1.3315380859375,1.1084797128170727,0.4821914690900594,0.08250073468461633
1772045914427522800,1.341522705078125,0.7138602172613143,0.4720784366808831,0.05709975144639611
1772045914437508900,1.3515087890625,0.1788315495401621,0.35030875426214186,0.05936418924704194
1772045914447495000,1.361494873046875,-0.24642273825407027,0.23583036136273294,-0.0076742609549313775
1772045914457480000,1.37147998046875,-0.4238613721311092,0.15646686525791884,-0.16252587303593755
1772045914467466000,1.381466064453125,-0.40495033543407916,0.1446640531308949,-0.303400032364577
1772045914477450800,1.39145068359375,-0.20047405702769755,0.09468560493178665,-0.32352059098184105
1772045914487437000,1.40143701171875,0.10879589028358459,0.08023848884105682,-0.2235976699184626
1772045914497422800,1.4114228515625,0.373027256950736,0.1268930533144623,-0.07992503897771239
1772045914507408000,1.421407958984375,0.5201595998913049,0.21254260741882025,0.0773894560854882
1772045914517394000,1.431393798828125,0.5622574509084224,0.3171950046895072,0.24400895511060952
1772045914527380000,1.4413798828125,0.5524217010706662,0.31711525398418305,0.36799481574147935
1772045914537365000,1.451364990234375,0.5103139131814242,0.33320111372526734,0.3801923993397504
1772045914547350800,1.461350830078125,0.23149989441037178,0.39278873646464196,0.4402664904218167
1772045914557335800,1.471335693359375,0.023819267004728317,0.40783915221076456,0.4059173538353294
1772045914567322000,1.481322021484375,0.019644027146697045,0.454601487907581,0.34490503205507994
1772045914577308000,1.491307861328125,0.04898293435573577,0.4020003995873034,0.19285043028146026
1772045914587293000,1.50129296875,0.11829086385965347,0.2902402526706457,0.08655402866341173
1772045914597278700,1.51127880859375,0.13063128999471663,0.15772731364779174,0.008789236459508538
1772045914607265000,1.52126513671875,0.02295066747665405,0.02148340793568641,-0.050875543169304725
1772045914617250000,1.53125,-0.1940793875545263,-0.02254829722084105,-0.1236222880154848
1772045914627235800,1.54123583984375,-0.4303063104867935,-0.021814795314520595,-0.1828977030005306
1772045914637220900,1.551220947265625,-0.5448655866026878,0.03412055199500173,-0.18191724059581754
1772045914647207000,1.56120703125,-0.5244055668979883,0.12406973952203988,-0.13330883864089846
1772045914657193000,1.57119287109375,-0.4191518792659044,0.1657606171734631,-0.05052724118828773
1772045914667178000,1.581177978515625,-0.3331517581582069,0.11686068492606282,0.02675086347721517
1772045914677163800,1.591163818359375,-0.26891572509109973,0.05963752629570663,0.03148439480513334
1772045914687148800,1.601148681640625,-0.23553777162432668,0.042231048942729825,0.0030575609397143124
1772045914697134800,1.611134765625,-0.21476620175242422,0.009680120884627103,-0.024035978495329617
1772045914707121000,1.621120849609375,-0.15895722076892851,-0.045846609091386194,0.0045149932064116
1772045914717106000,1.63110595703125,-0.08492050917744635,-0.07161489127203821,0.041700595327839256
1772045914727092000,1.641092041015625,-0.0002215337961912155,-0.06170267866458744,0.09754420923329889
1772045914737078000,1.651078125,0.07547171283066273,-0.037689715718664224,0.190045528928563
1772045914747063000,1.66106298828125,0.10315759213566779,-0.001044504084251821,0.2850879114087671
1772045914757048800,1.671048828125,0.09945639953017234,0.04071837935745716,0.3568148847531527
1772045914767033900,1.681033935546875,0.15093348878920076,0.12794168558456004,0.41186121080107985
1772045914777020000,1.69102001953125,0.21656068395376205,0.21041553226225077,0.47475467015281314
1772045914787006000,1.701005859375,0.2494493925988674,0.24362032111920415,0.5617633107159287
1772045914796991000,1.710990966796875,0.2947141832143068,0.2669930134002119,0.633856194763258
1772045914806977000,1.72097705078125,0.30293431454896924,0.28706845423411576,0.649958238454163
1772045914816962000,1.730962158203125,0.3359703227102756,0.2724456893155351,0.6695547001320868
1772045914826947800,1.74094775390625,0.31369594705998893,0.23264953936953095,0.6615337446313351
1772045914836934000,1.750933837890625,0.23274083438217638,0.1893393534205854,0.590917728203535
1772045914846919000,1.7609189453125,0.15375439142882824,0.18094930887911467,0.515032100809738
1772045914856905000,1.770905029296875,0.07210252865850925,0.1762008722430095,0.4259685004781931
1772045914866891000,1.78089111328125,0.03866729204654693,0.1425131952399388,0.36819559901058674
1772045914876875800,1.790875732421875,0.012368483185768126,0.09365611575357616,0.30873817852213975
1772045914886862000,1.800862060546875,-0.005935819789767265,0.059519927798025306,0.23758717843480406
1772045914896847000,1.81084716796875,-0.07365501879751682,0.009132643069699405,0.1515816139670089
1772045914906833000,1.8208330078125,-0.17007131997942923,-0.024140534848347304,0.08600249572787433
1772045914916819000,1.83081884765625,-0.29761808796226974,-0.0036243279770016667,0.044700617394037544
1772045914926803700,1.8408037109375,-0.39553485683500766,0.035506343797594306,0.05307831391058862
1772045914936790000,1.8507900390625,-0.37390930048227305,0.06899363939035684,0.045243930490501225
1772045914946775000,1.860775146484375,-0.26957974195778367,0.06609693156816066,0.03870630888268351
1772045914956760800,1.8707607421875,-0.11251812567710875,0.04304415542390197,0.05184742040876299
1772045914966747000,1.880746826171875,0.023964812955260276,0.010518069546110927,0.07504862858038396
1772045914976732000,1.89073193359375,0.10681786820888518,-0.022135442103631792,0.10873086222335696
1772045914986718000,1.900718017578125,0.09079261608123779,-0.016982224058918655,0.11220599098801612
1772045914996703700,1.910703857421875,0.05483399847149849,0.016086773056536913,0.08912139493338764
1772045915006688800,1.920688720703125,0.01691664800941944,0.03144713153466582,0.1119182600878179
1772045915016675000,1.930675048828125,0.001616203024983406,0.011844313181191682,0.15141688839197157
1772045915026659800,1.940659912109375,0.014824059644341468,0.0353435909839347,0.20680494054965673
1772045915036646000,1.95064599609375,0.062417585468292236,0.060361493188701563,0.2473586308646947
1772045915046632000,1.9606318359375,0.13691782291829585,0.058650670682825146,0.26662797948010264
1772045915056617000,1.970616943359375,0.21587153264582157,0.059226863135583695,0.27687632870674134
1772045915066603000,1.98060302734375,0.2383247719943523,0.04781089490167796,0.2937858163230121
1772045915076588000,1.990588134765625,0.2141185514986515,0.02012567318379879,0.3154874335866421
1772045915086573800,2.00057373046875,0.14369009353220463,0.0030156580267474056,0.3171761903911829
1772045915096560000,2.01056005859375,0.030343700337409973,0.028721834756620226,0.2777522347584367
1772045915106545000,2.020544921875,-0.04001169239282608,0.03331409445032477,0.23684227835163474
1772045915116531000,2.030531005859375,-0.05929740762114524,0.04118683711942285,0.24138737443536518
1772045915126516000,2.040515869140625,-0.07975859636962414,0.04314297615587711,0.2575209823083132
1772045915136502000,2.050501953125,-0.0945171895623207,0.02672514451406896,0.23985461191013455
1772045915146488000,2.060488037109375,-0.09203589414060115,0.041326062927022574,0.17280695548839867
1772045915156472800,2.070472900390625,-0.017124737802147863,0.06852989433612675,0.10341580468043685
1772045915166459000,2.080458984375,0.07718202387988567,0.07775145779829472,0.058469140103459355
1772045915176445000,2.09044482421875,0.11874445284605026,0.06940134340841322,0.045533889880403876
1772045915186430000,2.100429931640625,0.15291735608279705,0.08619827402830123,0.03494860031697899
1772045915196416000,2.110416015625,0.14291326394081114,0.13224961191155016,0.015485373097285628
1772045915206400800,2.12040087890625,0.1071393552482128,0.1817325316786766,0.017205986344814298
1772045915216387000,2.130386962890625,0.04559036930799484,0.18844481573365626,0.04073810697123408
1772045915226372900,2.140372802734375,-0.01795709697306156,0.19914956695828587,0.057526379360631104
1772045915236358000,2.15035791015625,-0.10247837769985198,0.19788930123150347,0.05470569591671228
1772045915246344000,2.160343994140625,-0.20419395433366297,0.19681776300985365,-0.00724924047589302
1772045915256328700,2.17032861328125,-0.2625081961363554,0.18232680777739732,-0.07430712603069842
1772045915266315000,2.18031494140625,-0.251208803486824,0.15734733788687735,-0.11707330476343632
1772045915276300800,2.19030078125,-0.21874738034307956,0.1483454450573772,-0.13578684612698852
1772045915286285800,2.200285888671875,-0.10891045657396316,0.1316456181364134,-0.15499379703067243
1772045915296272100,2.210272216796875,0.04833996027708053,0.09177143451813607,-0.17892858017385005
1772045915306257000,2.2202568359375,0.18792261849045752,0.04385875974241644,-0.17359189532101155
1772045915316243000,2.230242919921875,0.2569967392385006,0.022467085210792718,-0.17169227224476635
1772045915326228700,2.240228759765625,0.26135318088233467,0.017710063409432767,-0.16015556370802222
1772045915336213800,2.2502138671875,0.15636194357872008,0.012625892012938856,-0.09708462889753282
1772045915346200000,2.260199951171875,-0.022039397850632667,0.03674925653077662,-0.015418372275680303
1772045915356184800,2.270184814453125,-0.12538345246911048,0.08436890317667275,0.056538610432296986
1772045915366171000,2.2801708984375,-0.15916004986464977,0.11316880813818424,0.0956215706076473
1772045915376157000,2.290156982421875,-0.11883680730462073,0.09974226726684719,0.11614099234938621
1772045915386142000,2.300141845703125,-0.0012257424026727675,0.06747662242352961,0.10930690854564308
1772045915396128000,2.3101279296875,0.1221931319952011,0.0496959779959172,0.07143339722529053
1772045915406113800,2.32011376953125,0.23750819491446018,0.045626974991336465,0.02776990432664752
1772045915416098800,2.330098876953125,0.3231266232281923,0.04378978615943342,0.011501929484307765
1772045915426085000,2.340085205078125,0.3339168973118067,0.04431114315241575,0.010736278874054551
1772045915436070000,2.35006982421875,0.28690497076809407,0.047840340191870924,0.03529489300400018
1772045915446056200,2.36005615234375,0.17417057199180125,0.04077368974126875,0.07087335218973458
1772045915456042200,2.370042236328125,0.05496668494045734,0.053218763560894874,0.07707783285304903
1772045915466027300,2.38002734375,-0.08511866209805011,0.07863594901524484,0.0602854688104242
1772045915476013000,2.390012939453125,-0.19339491242170334,0.10540042089270427,0.035894247136637566
1772045915485998000,2.399998046875,-0.20721359441578388,0.11328439734186976,0.012151844760403036
1772045915495984000,2.409984130859375,-0.18841244783401487,0.10939871501494199,0.002609671041741967
1772045915505970200,2.41997021484375,-0.08421265316903591,0.12057941318824887,0.0641780192695558
1772045915515955200,2.429955078125,0.048096799170970914,0.11410583325996994,0.13378814659044147
1772045915525941200,2.439941162109375,0.12681085492372512,0.11497350120628252,0.1872332479868084
1772045915535926000,2.449926025390625,0.14641688814759254,0.11718723173299804,0.2260197824988514
1772045915545912300,2.459912353515625,0.13906243373155594,0.1347898161799647,0.21335282782316206
1772045915555898000,2.469898193359375,0.10100538253784179,0.13171040873462334,0.15734043322205543
1772045915565883100,2.479883056640625,0.019028525596857068,0.1186644464123994,0.09803871475197375
1772045915575869200,2.489869140625,-0.06888882730901241,0.08494843836398795,0.04428732388541102
1772045915585854200,2.499854248046875,-0.12875731281638145,0.046768272247258574,-0.0037049919977784154
1772045915595840300,2.50984033203125,-0.12652327015399933,0.038692408221494404,-0.009898585940897464
1772045915605826000,2.519825927734375,-0.061387073376774785,0.02865183826033026,-0.00678315733410418
1772045915615811000,2.52981103515625,-0.005951601880788803,0.04069607619410381,-0.0002189765129238367
1772045915625797400,2.53979736328125,-0.0024631752431392667,0.0721993400964886,0.019439663681015372
1772045915635782100,2.5497822265625,-0.00006955810487270355,0.07413416235027834,0.0616504735533148
1772045915645768200,2.559768310546875,0.007267360654473304,0.0666184712242335,0.08647606805637478
1772045915655754000,2.56975390625,0.020617256093025206,0.0739266570794396,0.065923766958341
1772045915665739000,2.579739013671875,0.03548632392287254,0.05328888792134821,0.01730827767550945
1772045915675725300,2.589725341796875,0.046751814302802085,0.023814079372957347,0.0034377193637192245
1772045915685710000,2.5997099609375,0.027005495825409887,0.02244089132361114,0.01867532824501395
1772045915695696100,2.609696044921875,-0.01528232480585575,0.015065978641435503,0.05846724040731787
1772045915705682200,2.61968212890625,-0.07352057876288891,-0.008335647473111748,0.08633746330328285
1772045915715667200,2.629667236328125,-0.13451017725467682,-0.0005025061620399355,0.10410948603302239
1772045915725653200,2.6396533203125,-0.14687281522154808,-0.000905132146179676,0.1259318070668727
1772045915735638000,2.649637939453125,-0.11759352924525737,0.006878580532595515,0.1397800074163824
1772045915745624000,2.6596240234375,-0.05564414581060409,0.022702939793281255,0.1536488121625036
1772045915755610000,2.669610107421875,0.053800563770532606,0.021559578444436192,0.17469700701870022
1772045915765595100,2.67959521484375,0.17052373992204664,0.014406345688924193,0.20992402241826055
1772045915775581200,2.689581298828125,0.28538813646435734,0.0011744871394708753,0.2335138645812869
1772045915785567200,2.699567138671875,0.338545141634345,-0.0031146614218130705,0.24959603452794252
1772045915795552300,2.70955224609375,0.31123277181684966,0.006401537605375051,0.24819150149226188
1772045915805538300,2.719538330078125,0.19243454295694826,0.01144113920778036,0.25118659165501594
1772045915815523000,2.729523193359375,-0.0007692308068275451,-0.0071686495203524825,0.22674195929355917
1772045915825509000,2.739509033203125,-0.21614684245586394,-0.013122589488700032,0.17306794451214372
1772045915835495200,2.7494951171875,-0.3623702538579702,-0.014191168568283319,0.13924604667015372
1772045915845480200,2.759480224609375,-0.3696937286138534,-0.03183171040546149,0.11626103853248058
1772045915855466200,2.76946630859375,-0.2769967402160168,-0.029792788456380365,0.10098770075067877
1772045915865451000,2.779450927734375,-0.12632044105827808,-0.021389957498572764,0.09584858429655432
1772045915875437300,2.789437255859375,0.05577274062633514,-0.012233531694486736,0.08498933662995696
1772045915885423000,2.799423095703125,0.16424012960791587,-0.009908047888986766,0.09582001578919588
1772045915895408000,2.809408203125,0.24858663828969,-0.007201273148320615,0.11990816286318004
1772045915905394200,2.819394287109375,0.2529921797722578,-0.009031922641582786,0.1338499597802758
1772045915915379200,2.829379150390625,0.17804478307664393,-0.010903415601886807,0.13122275308184325
1772045915925365200,2.839365234375,0.07436872002482414,-0.01957702632509172,0.12656937431804835
1772045915935351000,2.84935107421875,-0.025400983238220213,-0.022115604892000554,0.10879004506468773
1772045915945336000,2.859336181640625,-0.13576222314238548,-0.02109572379235178,0.07692498037889599
1772045915955322400,2.869322265625,-0.20722002415657043,-0.03380494670718908,0.04493219766020774
1772045915965307100,2.87930712890625,-0.18249299465715885,-0.03523972875066101,0.02727664091698825
1772045915975293200,2.889293212890625,-0.10904314304292201,-0.04317760907784104,0.031107305121049283
1772045915985279000,2.899279052734375,-0.009030278673768042,-0.035996648065187035,0.0575101588781923
1772045915995264300,2.90926416015625,0.08869067536592483,-0.030329489148966965,0.06934248936064541
1772045916005250300,2.919250244140625,0.16736206102073192,-0.025245938806980846,0.10296236182451247
1772045916015235000,2.929235107421875,0.20098083750605583,-0.016289200293458997,0.1367027919281274
1772045916025221000,2.93922119140625,0.17806173421144483,-0.01662785766329616,0.14191161261759697
1772045916035207200,2.949207275390625,0.13108721706867218,-0.02763173796497285,0.13559410003386438
1772045916045192200,2.959192138671875,0.06547054329812527,-0.015913243120536207,0.12251790697015821
1772045916055178200,2.96917822265625,-0.015468787288665771,0.0071804130233824245,0.1063676402233541
1772045916065163000,2.9791630859375,-0.02946750202476978,0.023879947683401404,0.0778776049286127
1772045916075149000,2.989149169921875,-0.0006716156512498855,0.02356715540718287,0.04570720062069594
1772045916085135000,2.999135009765625,-0.009137830701470374,0.006554024753347039,0.02086706613563001
1772045916095120100,3.0091201171875,-0.024777882903814313,-0.009112769325450062,0.007784004939720034
1772045916105106200,3.019106201171875,0.007061608949303627,-0.0012132482472807168,0.0025501228742301463
1772045916115091200,3.02909130859375,0.06950549790263176,0.006487352725304663,0.003167962511628866
1772045916125077200,3.0390771484375,0.14250760574936866,-0.00042323038075119254,0.0031611674446612595
1772045916135063300,3.049063232421875,0.21647475923597811,0.002926226177625358,-0.003374517934396863
1772045916145048000,3.059048095703125,0.22582827851474283,-0.0010561945220455527,-0.0000010229133069515227
1772045916155034000,3.0690341796875,0.20599954245090482,-0.007260200261324644,0.024007263857498764
1772045916165019400,3.079019287109375,0.12851765884160996,0.0010964899998158217,0.04171294335275888
1772045916175005200,3.089005126953125,0.029603695625066755,0.012367058413662016,0.04774170212298631
1772045916184991200,3.0989912109375,-0.07546762117743491,0.008628091081045567,0.05434964902065694
1772045916194976000,3.10897607421875,-0.14628069454729556,-0.005200162458978593,0.03898819456398487
1772045916204962300,3.11896240234375,-0.15097674340903758,-0.03593921878952533,0.00046067631430923937
1772045916214947300,3.128947265625,-0.0900035115301609,-0.06515800675023346,-0.040965924377739424
1772045916224933000,3.13893310546875,-0.0006195932030677795,-0.08642784500047564,-0.05072466345652937
1772045916234919200,3.148919189453125,0.08051262960731982,-0.08794968427289276,-0.03161445092558861
1772045916244904200,3.158904296875,0.13808219052255152,-0.0643515126729384,0.008561199857294558
1772045916254890200,3.16889013671875,0.10221534284949302,-0.053145533927902576,0.05812894836366176
1772045916264875300,3.178875244140625,0.046696284723281856,-0.047252201572991905,0.10681874499171971
1772045916274861000,3.188861083984375,-0.01545709685087204,-0.03163563984408974,0.13157631575986742
1772045916284847400,3.198847412109375,-0.08511398592293262,-0.022123751665838062,0.13986417856849728
1772045916294832000,3.20883203125,-0.10824527066349983,-0.01899268709849566,0.12360628672875464
1772045916304818200,3.218818115234375,-0.09537935934960842,0.004354578480310738,0.12690481681749224
1772045916314803200,3.22880322265625,-0.06899637933671474,0.013193389702588319,0.15085158265940843
1772045916324789200,3.238789306640625,-0.03367489058673381,0.014299085922166704,0.16537395594343543
1772045916334775300,3.248775390625,-0.0190098208963871,0.028358846663124857,0.177190504334867
1772045916344760000,3.258760009765625,0.0025759879678487778,0.02485197105333209,0.12718962510824203
1772045916354746000,3.26874609375,0.04588087668716907,0.001661211210489273,0.07377813372053206
1772045916364731100,3.278731201171875,0.09406067796647548,-0.020303002512082457,0.052818201669678086
1772045916374717200,3.28871728515625,0.14649112242758272,-0.02793492216262966,0.029593101165816187
1772045916384703200,3.298703125,0.16504326268434524,-0.022552169678360223,0.037408231896162034
1772045916394688300,3.308688232421875,0.14301613979339597,-0.018532631838694212,0.024226386500895022
1772045916404674300,3.31867431640625,0.12706219933629034,0.0009595292145386338,0.029856574407592415
1772045916414659300,3.328659423828125,0.1443535258769989,-0.014628646670095622,0.054797538918629284
1772045916424645000,3.33864501953125,0.10338438662886619,-0.01686276239771396,0.10818024260327219
1772045916434631200,3.348631103515625,0.015827099207043647,-0.02288699112329632,0.14434709613621233
1772045916444616200,3.3586162109375,-0.03571721006929874,-0.02807809349298477,0.15995996807068585
1772045916454602200,3.368602294921875,-0.07548866396546364,-0.014225216968357561,0.1799049509253353
1772045916464587300,3.378587158203125,-0.11963994038105011,0.001181939793564379,0.18539098112098873
1772045916474573000,3.388572998046875,-0.12385375868380069,0.021133973443508147,0.1770892359174788
1772045916484559000,3.39855908203125,-0.05877601409554481,0.01825662790890783,0.17115027432255445
1772045916494544400,3.40854443359375,0.02877075193226337,-0.0005448839990422129,0.1545717722263187
1772045916504530200,3.4185302734375,0.12400281176567077,-0.03107015144843608,0.14410963411852717
1772045916514515200,3.42851513671875,0.17766659741401672,-0.05011332662515342,0.14014452987983822
1772045916524501000,3.4385009765625,0.2095043357014656,-0.048746714447066186,0.13511997971609235
1772045916534486000,3.448486083984375,0.17924305295050144,-0.03955525386221707,0.17585275292508304
1772045916544472300,3.458472412109375,0.11308335834443568,-0.04147628505267203,0.2291810960739851
1772045916554458000,3.4684580078125,0.05921791264414787,-0.024100166305340825,0.2660566823981702
1772045916564443100,3.478443115234375,0.0014408464580774306,0.01817771745380014,0.2483515874247998
1772045916574429200,3.48842919921875,-0.08525777830779552,0.02890566689092666,0.23266075488328933
1772045916584414200,3.498414306640625,-0.16391688900291917,0.020244038866460323,0.18854155410639942
1772045916594400300,3.508400146484375,-0.15912848568260668,-0.009913052857667207,0.12107172674983739
1772045916604386000,3.518385986328125,-0.09957447295188904,-0.049004123274236915,0.041818011162430044
1772045916614371000,3.52837109375,-0.025808394995331763,-0.06707878221236169,-0.017163827703520654
1772045916624357000,3.538357177734375,0.05349368977844715,-0.07451134336590766,-0.061086848321184516
1772045916634342100,3.548342041015625,0.11156769308447838,-0.06359389923866837,-0.055635451047495
1772045916644328200,3.558328125,0.1431599321782589,-0.04349894998669624,-0.03125073217973113
1772045916654314200,3.568314208984375,0.129918173289299,-0.020002302532456814,-0.012475523756816983
1772045916664299300,3.57829931640625,0.12073942605555057,-0.008140015303157269,0.014813757446035742
1772045916674285000,3.58828515625,0.0894324336439371,-0.007320588679052889,0.048030309806019064
1772045916684270000,3.59827001953125,0.02519464701116085,0.008330167580395937,0.07909114543683826
1772045916694256000,3.608256103515625,-0.03532148874998092,0.008170921898074448,0.10190547318272292
1772045916704242200,3.6182421875,-0.06940612918138504,0.020113434756733477,0.12363288247473538
1772045916714227200,3.628227294921875,-0.058308396583795545,0.013368965465202927,0.13751257394105196
1772045916724213200,3.638213134765625,-0.010072481203079223,0.006091667938604951,0.12251491129547357
1772045916734198000,3.648197998046875,0.03911445129215717,0.006181757374852896,0.09778715114369987
1772045916744184300,3.658184326171875,0.09270984787940978,0.0020283640224486588,0.07830547495186328
1772045916754170000,3.668170166015625,0.15278993031084537,0.005061521173268556,0.0807737647615373
1772045916764155100,3.678155029296875,0.16125672988295553,0.014199205744266509,0.0764234605975449
1772045916774141200,3.68814111328125,0.13679916497468947,0.01043039126265794,0.09432539331726729
1772045916784126200,3.698126220703125,0.08148001333475112,0.008767536084353923,0.10895699912942945
1772045916794112300,3.7081123046875,0.019349428114295006,-0.000813252611644566,0.11966200608238577
1772045916804098000,3.71809814453125,-0.06335808118879795,-0.00184515294265002,0.10160853606276214
1772045916814083000,3.7280830078125,-0.1486263808906078,-0.004122157963924109,0.08015051829665899
1772045916824069400,3.7380693359375,-0.1626736109435558,0.004359802644699812,0.06151939451955259
1772045916834054100,3.74805419921875,-0.1135749412536621,0.004384133368358016,0.033287717900052666
1772045916844040200,3.758040283203125,-0.05698796163499355,0.008902451043017208,0.029500819772481916
1772045916854026000,3.76802587890625,0.03658113342225552,0.02879895511344075,0.03691233813799918
1772045916864011300,3.77801123046875,0.09828267957568168,0.03995517643261701,0.03570332767441869
1772045916873997300,3.787997314453125,0.15907763227820396,0.029555764830112456,0.03584456277601421
1772045916883982000,3.797982177734375,0.17771219012141226,0.020161365551687776,0.03693623047024011
1772045916893968100,3.807968017578125,0.16960311794579028,0.001923369278013706,0.044151787872239945
1772045916903953200,3.817953125,0.15224574043154715,-0.003626191140525043,0.04221490152552724
1772045916913939200,3.827939208984375,0.08220832760930061,-0.010676292315125464,0.04211173341199755
1772045916923925200,3.83792529296875,-0.004180500555038452,-0.001514825009740889,0.05805259519182145
1772045916933910000,3.847909912109375,-0.10677227550148963,0.019289697283692658,0.08437113166637718
1772045916943896000,3.85789599609375,-0.1572363883256912,0.041583325623720885,0.11440941931642591
1772045916953881300,3.86788134765625,-0.19193068508803843,0.052570400921069085,0.134194170108065
1772045916963867100,3.8778671875,-0.170299283516407,0.046624753857031465,0.12395327353551983
1772045916973853200,3.887853271484375,-0.09360825802385807,0.05323799798432737,0.09263495601229368
1772045916983838200,3.897838134765625,0.0037806875824928283,0.041619931307062506,0.04970686471611261
1772045916993824300,3.90782421875,0.08881050235331057,0.014305844456516205,0.017072715353965758
1772045917003809300,3.917809326171875,0.1556423971325159,0.012531089868955313,-0.00517016917951405
1772045917013795000,3.927795166015625,0.19619944844841955,0.013684899546578526,-0.010878902215138077
1772045917023781000,3.937781005859375,0.16200491790175436,0.011007241302542388,-0.016647402613982558
1772045917033766100,3.94776611328125,0.09915069458186626,0.0023111630192026496,-0.010777195406332611
1772045917043752200,3.957752197265625,0.02945873419642448,0.006645429363846779,-0.0003713905956596136
1772045917053737200,3.9677373046875,-0.01233867256939411,0.025534509957395493,0.03470028811171651
1772045917063723000,3.977722900390625,-0.0048848494321107865,0.03369465473312885,0.08375899111740291
1772045917073709300,3.987709228515625,0.030246085181832312,0.025588468634337187,0.13220927990116177
1772045917083694300,3.9976943359375,0.055225628137588495,0.015728716866485772,0.15868600261211394
1772045917093680000,4.00768017578125,0.05165829104483127,0.015740699565224347,0.16873071902543305
1772045917103665200,4.0176650390625,0.061250295254588125,0.016160715075582265,0.16304631671346723
1772045917113651200,4.027651123046875,0.04657996486723423,-0.011420059887133538,0.148357500821352
1772045917123636200,4.03763623046875,0.020778584134578705,-0.027702830439805985,0.12837540082670748
1772045917133622300,4.047622314453125,-0.017965280279517173,-0.040635231118649244,0.10116809881888329
1772045917143608000,4.057608154296875,-0.04153028026223182,-0.030187596460245547,0.08180917222388089
1772045917153593000,4.067593017578125,-0.05052081144750118,-0.031001323995925485,0.07418576467335224
1772045917163579100,4.0775791015625,-0.05642565157711506,-0.05036722832098603,0.06829692583046854
1772045917173564200,4.087564208984375,-0.06256137785315513,-0.03841130799148232,0.06251775790713728
1772045917183550200,4.09755029296875,-0.0816074391067028,-0.01932480512969196,0.04581190310418606
1772045917193536300,4.107536376953125,-0.08004384305179119,-0.019677454492263494,0.044796515516564245
1772045917203521300,4.117521240234375,-0.050206923192739485,-0.030301249435171485,0.06791340640559793
1772045917213507000,4.127507080078125,0.034441783306002616,-0.02638666980732232,0.09151048202700912
1772045917223492000,4.1374921875,0.11717208896279334,-0.020568156254291533,0.12930223334804178
1772045917233478100,4.14747802734375,0.18036299689114094,-0.01059274221751839,0.1514359584186226
1772045917243464200,4.157464111328125,0.20156477487385271,0.0035376360742375252,0.1686346382398158
1772045917253449200,4.16744921875,0.20995909373164176,0.007591697238013148,0.16262100397348403
1772045917263435000,4.17743505859375,0.18552549422085285,0.00979169150032103,0.17297990090250967
1772045917273420000,4.187419921875,0.13002046461999417,0.012993592814169824,0.17752090533301232
1772045917283406300,4.19740625,0.04817278701663017,0.007456051626987755,0.15946159009449182
1772045917293392100,4.20739208984375,-0.04341711692214012,0.016995996855944395,0.1391249775737524
1772045917303377200,4.217377197265625,-0.12069792500138282,0.006134338036552071,0.09759038646258414
1772045917313363200,4.22736328125,-0.17645722162425517,0.008767207290790974,0.04814100363887846
1772045917323348200,4.23734814453125,-0.18073650637865066,-0.0008994695903733372,0.015209332634881138
1772045917333334300,4.247334228515625,-0.09159984081089496,-0.016730075928755105,-0.011741802654787897
1772045917343319300,4.2573193359375,0.032954175096750256,-0.0200535212630406,-0.025273630531504748
1772045917353305000,4.26730517578125,0.1166033491641283,-0.005657770033366978,-0.03397876890413463
1772045917363291100,4.277291015625,0.17640227656662463,0.02081873348187655,-0.03598258300721645
1772045917373276200,4.287276123046875,0.22311901955604552,0.033187545461207626,-0.0037498540528118607
1772045917383262200,4.29726220703125,0.22649872512221336,0.04863269614595919,0.015290508112311363
1772045917393247200,4.307247314453125,0.19314064539968967,0.03521178129781037,0.050957668494805694
1772045917403233300,4.3172333984375,0.13681319350004195,0.01924381231535226,0.08339161910973489
1772045917413219300,4.32721923828125,0.07949731508493423,0.015925591145455838,0.09322013548910617
1772045917423204000,4.3372041015625,0.02728898894190788,-0.00822831464111805,0.10764511281326412
1772045917433190100,4.347190185546875,-0.04044131598174572,-0.022060075312480328,0.10325425744317471
1772045917443175200,4.357175048828125,-0.12083236503601073,-0.00973923066072166,0.04843837915025651
1772045917453161000,4.367160888671875,-0.12817395997047423,0.002786342782899737,0.003864128082245588
1772045917463147300,4.377147216796875,-0.05414543168544769,0.0058066404521465295,-0.019281039053201676
1772045917473132000,4.387132080078125,0.009057751202583312,-0.025255912211723623,-0.010082710336148739
1772045917483118000,4.3971181640625,0.029050737917423245,-0.02525291653703898,0.0014436229370534419
1772045917493103000,4.40710302734375,-0.014801847812533377,-0.016402341811731457,0.023460370564460754
1772045917503089000,4.4170888671875,-0.08466741119921208,-0.013899820938892662,0.03277063522338867
1772045917513075200,4.4270751953125,-0.15373276411890982,-0.03171418497301638,0.01631985116004944
1772045917523060000,4.43706005859375,-0.15367898810505867,-0.04121836476884782,-0.012420505633950233
1772045917533046000,4.4470458984375,-0.07859598233103751,-0.05317662318591028,-0.04151026038751006
1772045917543031000,4.457031005859375,0.04946399587094784,-0.06052932403627783,-0.040901115513220426
1772045917553017000,4.46701708984375,0.1486357332408428,-0.06763977709598838,-0.023819047809019684
1772045917563002000,4.477002197265625,0.15662439390718935,-0.04434548381343484,0.008257540735602378
1772045917572988200,4.48698828125,0.12312076823413372,-0.012020181204751134,0.04025236928090453
1772045917582974000,4.496973876953125,0.07098609184920787,0.03199307497963309,0.0737776953291148
1772045917592959200,4.506959228515625,0.04113222085535526,0.07973112384080887,0.12483480561040342
1772045917602945000,4.516945068359375,0.0138859020113945,0.06763974056337028,0.21240509864427148
1772045917612930000,4.526929931640625,-0.05955459725260734,0.027451778288185597,0.27639380588680507
1772045917622916000,4.536916015625,-0.19586744001507758,0.005002594060264528,0.2669255011219531
1772045917632902100,4.546902099609375,-0.31602818939983846,-0.035528080705367025,0.23038053499162195
1772045917642887200,4.55688720703125,-0.3846738556027412,-0.03259710528738796,0.12542919130697847
1772045917652873000,4.566873046875,-0.3567126664876938,0.004123327007703483,-0.022653438095748425
1772045917662858000,4.57685791015625,-0.26967677259147166,-0.0029246918076649307,-0.050813145457580686
1772045917672844000,4.586843994140625,-0.1735807894051075,0.016661979128606615,-0.07298347621150314
1772045917682830000,4.596830078125,-0.10839724635481834,0.047964770289137953,-0.06166757081858813
1772045917692815000,4.606815185546875,-0.029452888977527618,0.04593531028814614,-0.02842171929888427
1772045917702801000,4.61680078125,0.11562778213024139,0.0641536885458976,0.016265855950489638
1772045917712786000,4.626785888671875,0.25745968057513235,0.10289740682952106,0.0856646786082536
1772045917722772200,4.636772216796875,0.3386684757530689,0.09918021293729543,0.12848930952996016
1772045917732757000,4.646757080078125,0.38758711270093915,0.07425481132157147,0.15560761808007956
1772045917742743000,4.656742919921875,0.34332536164820193,0.062107423540577286,0.14859233249053358
1772045917752728800,4.666728759765625,0.21468319964408875,0.04730535653233528,0.10991086578816175
1772045917762714000,4.676714111328125,0.03119476420879364,0.01768361379392445,0.04450505828931928
1772045917772700200,4.6867001953125,-0.09179682468771934,0.033066476364806294,-0.05177563381418585
1772045917782685000,4.696684814453125,-0.11764613621532917,0.0468059556428343,-0.08340615909174084
1772045917792671000,4.7066708984375,-0.15411387239098548,0.06514920238927006,-0.04676123971827328
1772045917802657000,4.716656982421875,-0.20401918228864668,0.09285817030891776,0.01535604762919247
1772045917812642000,4.72664208984375,-0.2851163337856531,0.04702683185189962,0.09859854059182106
1772045917822628000,4.736628173828125,-0.2966711625009775,-0.10320194273404776,0.28970285785831507
1772045917832612900,4.74661279296875,-0.17778116370439528,0.18803017051815984,0.16024901414513587
1772045917842599200,4.75659912109375,-0.11747954747676849,0.11318060817383228,0.0739390233706683
1772045917852584200,4.766584228515625,0.05009644855558872,-0.15045023531690238,0.23360994536690413
1772045917862570000,4.776570068359375,0.32082536054849625,-1.1992226445376872,1.1080810688883065
1772045917872556000,4.78655615234375,0.5304752422004938,-0.8792189025703817,1.270380585822463
1772045917882541000,4.796541015625,0.5713678090810775,-0.12220029238834977,0.9521694263603537
1772045917892527000,4.806527099609375,0.46605800734758374,0.281197260645777,0.7097393379390239
1772045917902512000,4.81651220703125,0.30655484313368797,0.3924487273879349,0.6714945821534842
1772045917912498000,4.826497802734375,0.1806301233947277,0.35763891448713836,0.6990485056418925
1772045917922484200,4.836484130859375,0.07319675363600253,0.2795401410885155,0.6145587160319089
1772045917932469200,4.84646923828125,-0.009786649999022482,0.10199775457605718,0.4064069639831781
1772045917942455000,4.856455078125,-0.06558744767606257,-0.06691665045320987,0.22896292327865958
1772045917952440000,4.866440185546875,-0.08183598716557025,-0.16371807849518955,0.12342428122535347
1772045917962425900,4.87642578125,-0.1347585990577936,-0.21542707681395112,0.0272195769675076
1772045917972412200,4.886412109375,-0.22336159614026546,-0.2853024309422821,-0.06446399660408496
1772045917982397200,4.896397216796875,-0.21583763037621972,-0.258679139367491,-0.14709084188640117
1772045917992383000,4.906383056640625,-0.18947861576080322,-0.17174955538995562,-0.21705080555826425
1772045918002368000,4.916367919921875,-0.12309504927098751,-0.03088423695489764,-0.23626038681045172
1772045918012354000,4.92635400390625,-0.06890168679058552,0.12091069096922874,-0.20778803330287335
1772045918022339000,4.936339111328125,-0.06904840178489685,0.20967819443102925,-0.18337533044964074
1772045918032325000,4.9463251953125,-0.09402560665309428,0.28538565224632617,-0.13448840381428598
1772045918042311000,4.956310791015625,-0.08740764981806277,0.3635883244108408,-0.09150997057035565
1772045918052296200,4.966296142578125,-0.0823965436577797,0.4439323194529861,-0.08816723601371049
1772045918062282000,4.976281982421875,-0.11261632535457611,0.48531003950200974,-0.16286971803754566
1772045918072267000,4.98626708984375,-0.1876227587610483,0.32136976962350305,-0.3457088957838714
1772045918082253000,4.996253173828125,-0.09127952281534671,0.01966682350039482,-0.4312368693351745
1772045918092239000,5.006239013671875,0.10666998417079449,-0.1410907977540046,-0.5083217164508999
1772045918102224100,5.01622412109375,0.2118517756104469,-0.16514664999358356,-0.5431384705491363
1772045918112210000,5.0262099609375,0.2534194652736187,-0.09751132987700402,-0.4617332760162651
1772045918122195000,5.03619482421875,0.2765530881017446,0.008472790921479463,-0.31533114704638715
1772045918132181200,5.04618115234375,0.27891806366741656,0.09457629933841526,-0.1740735413581133
1772045918142166000,5.056166015625,0.3181003194987774,0.1363882460862398,-0.042795624022930856
1772045918152152000,5.066152099609375,0.3974930051654577,0.202785841101408,0.12633183923512697
1772045918162138000,5.07613818359375,0.5030553203552961,0.23723127766922114,0.3638911798149347
1772045918172123000,5.086122802734375,0.5117220264136791,0.22124380026869475,0.5133182095639407
1772045918182109200,5.096109130859375,0.4623568147420883,0.16142748333998025,0.4969821379214525
1772045918192094200,5.10609423828125,0.2840355528116226,0.03664696520008147,0.33742680512890216
1772045918202080000,5.116080078125,0.044407297003269196,-0.019233254388719798,0.10011924735307692
1772045918212066000,5.126066162109375,-0.08564297823309898,-0.0500085510764271,-0.08218246251568198
1772045918222051000,5.136051025390625,-0.06809037040770054,-0.09879910466521978,-0.13192264497950673
1772045918232037000,5.146037109375,-0.004826981765031814,-0.12517748156823216,-0.10676745319589973
1772045918242022100,5.156022216796875,0.013407178583741188,-0.11504640204571187,-0.025492460913956162
1772045918252008000,5.166008056640625,-0.018229484173655507,-0.05409669717289507,0.08140227192342281
1772045918261993000,5.175992919921875,-0.07103051551282405,0.031993367240577934,0.18715514124929905
1772045918271979000,5.18597900390625,-0.11706219884753226,0.07315707921274006,0.22452932474538684
1772045918281965000,5.195965087890625,-0.1964028620660305,0.058602411094307895,0.17429215254485605
1772045918291950000,5.2059501953125,-0.2014993084222078,0.015191358586773276,0.14191022437810896
1772045918301936000,5.21593603515625,-0.13384557586610316,-0.00751907039321959,0.12630275927111506
1772045918311921200,5.225921142578125,-0.06432195778489112,-0.057481736501306294,0.12935688614472746
1772045918321907000,5.235906982421875,-0.033981764578819275,-0.10038520481288432,0.10375321994125843
1772045918331893000,5.24589306640625,-0.013483166429400444,-0.06932232335545122,0.03933686187118292
1772045918341878000,5.2558779296875,0.039220249754190445,-0.007734101383388042,0.015609949325025081
1772045918351864000,5.265864013671875,0.14824527261853218,-0.021000775517895816,0.05697247180491685
1772045918361849000,5.27584912109375,0.1954039141565561,-0.04586202585622668,0.10154825724288821
1772045918371835000,5.2858349609375,0.15711422325074673,-0.04512728184089064,0.13288959031552075
1772045918381820000,5.29581982421875,0.04819733693599701,0.002821560226753354,0.07862462390363216
1772045918391806200,5.30580615234375,-0.07209492987394332,0.03725245681256056,0.024040946931391954
1772045918401791000,5.315791015625,-0.15898352425396442,0.02947363950461149,-0.004774082534015178
1772045918411777000,5.325777099609375,-0.2485387074947357,0.03523476031459868,-0.034631752920150756
1772045918421762800,5.3357626953125,-0.3096820352435112,0.0816722479712218,-0.01739931695982814
1772045918431748000,5.345748046875,-0.2783732892662287,0.1111122774671763,0.009942205886915325
1772045918441734400,5.355734375,-0.20528116504848,0.11841544008739292,0.05132277548015118
1772045918451719200,5.36571923828125,-0.1281628540545702,0.06141797997169196,0.0897281286548823
1772045918461705500,5.37570556640625,-0.09868833776712417,0.015035948829352854,0.07093173131346703
1772045918471691300,5.385691162109375,-0.08455985917150974,0.0507397148951888,0.07387786776795983
1772045918481676300,5.39567626953125,-0.031657705545425414,0.06422178534604608,0.11755495080053806
1772045918491662300,5.405662353515625,0.045019875943660734,0.06834916747435928,0.12614661886133252
1772045918501647400,5.4156474609375,0.20898528026342392,0.038269524900615214,0.10389964267462491
1772045918511633400,5.42563330078125,0.33123803349137304,-0.02038666220754385,0.05106142113022506
1772045918521618400,5.435618408203125,0.39906712261438365,-0.0450918452013284,0.020644363295659423
1772045918531604200,5.445604248046875,0.4140583555191755,-0.029868045649677512,0.02056895997188985
1772045918541590500,5.455590576171875,0.31012334927022456,-0.029781755605712532,0.05789323991164565
1772045918551575300,5.4655751953125,0.20238836621642112,0.005033317992091179,0.08216894544698297
1772045918561561300,5.475561279296875,0.1988777277469635,0.06613952860087156,0.13723441458679736
1772045918571546400,5.48554638671875,0.23590134423971174,0.03849091256633401,0.1934608903300017
1772045918581532400,5.495532470703125,0.3100374245524406,0.0395548154707998,0.2077870103895664
1772045918591518500,5.5055185546875,0.3816740892648697,0.0460991225477308,0.24554990094229578
1772045918601503500,5.51550341796875,0.418063499507308,0.07488982128947973,0.30645218647681177
1772045918611489300,5.5254892578125,0.34865269415080546,0.05042392694428563,0.32046368762925265
1772045918621474300,5.535474365234375,0.12193301975429058,-0.011032266145944594,0.23601810248717664
1772045918631460400,5.54546044921875,-0.10826222179830074,-0.033179289089515805,0.09359656758606433
1772045918641445400,5.5554453125,-0.3110679366439581,-0.050053632327169174,-0.006042860360816121
1772045918651431400,5.565431396484375,-0.4717150101959705,-0.06931998526789247,-0.10823336102999746
1772045918661417500,5.57541748046875,-0.46088206601440906,-0.05636405758298933,-0.16913330847695468
1772045918671402500,5.585402587890625,-0.3390934231668711,-0.0061173869017511606,-0.12376827235743403
1772045918681388300,5.59538818359375,-0.19388941794037817,0.03183898039646447,-0.03817446702830493
1772045918691373300,5.605373291015625,-0.1035188266634941,0.05291135984584689,0.02790865521021187
1772045918701359400,5.615359375,-0.10532324573695659,0.061330374753475185,0.06138575820252299
1772045918711344400,5.625344482421875,-0.15574410394132138,0.04809745675809681,0.08184957729950547
1772045918721330400,5.635330322265625,-0.18451076422035692,0.040403906580805775,0.10235270549356937
1772045918731316200,5.645316162109375,-0.17317396216988562,0.02528707453496754,0.08720964302793145
1772045918741301200,5.65530126953125,-0.08415595454573631,0.0555037874918431,0.06770210174247622
1772045918751287600,5.66528759765625,0.04266717533767223,0.05820515540502965,0.07869082100763916
1772045918761272300,5.675272216796875,0.17948036883771418,0.04826287645287811,0.1105484330393374
1772045918771258400,5.68525830078125,0.2678413738578558,0.040076793518289924,0.12030907181426882
1772045918781244200,5.695244140625,0.31988778743743895,0.02515307289175689,0.12836517169363795
1772045918791229400,5.7052294921875,0.3150187200963497,0.022063144052401184,0.14011435393728314
1772045918801215500,5.715215576171875,0.20095687210857868,0.02341740820556879,0.12176613875478505
1772045918811200300,5.7252001953125,0.04667758002281189,0.011605097597837448,0.09503821776174008
1772045918821186300,5.735186279296875,-0.08104805165827274,0.01142155772447586,0.04995031808316707
1772045918831172400,5.74517236328125,-0.1035194111853838,0.009116860978677869,0.03119944038391113
1772045918841157400,5.755157470703125,-0.05724982744157314,-0.002064969705790281,0.026457725749537347
1772045918851143400,5.765143310546875,0.007006663891673088,-0.0341129166778177,0.036968233043700456
1772045918861128400,5.77512841796875,0.04511866014301777,-0.04870879358947277,0.02982851735688746
1772045918871114500,5.785114501953125,0.09611059623360634,-0.0262272049292922,0.033080870216339826
1772045918881099500,5.795099609375,0.1229383974045515,-0.007847133303806186,0.07514058118015528
1772045918891085300,5.805085205078125,0.11929098081290722,0.018966639341786502,0.15320837491862474
1772045918901071400,5.8150712890625,0.03971417075097561,0.0481932452827692,0.18305800812877712
1772045918911056400,5.825056396484375,-0.09780395614802836,0.06156009185612201,0.1545364817172289
1772045918921042400,5.83504248046875,-0.16024901414513587,0.06126220488809049,0.09959566187039016
1772045918931027500,5.84502734375,-0.1581868209183216,0.05249160006381571,0.05015161280892789
1772045918941013200,5.85501318359375,-0.08934300179481505,0.020615429462119937,0.01861205375045538
1772045918950998300,5.864998291015625,0.06674012484252452,-0.007157397473976016,-0.008999299013614653
1772045918960984600,5.874984619140625,0.18785715203881262,-0.031202289928123354,-0.022687559561058876
1772045918970970400,5.884970458984375,0.2564683314502239,-0.05139985930435359,-0.0014908230796456337
1772045918980955400,5.894955322265625,0.277542683660984,-0.05525068951360881,0.030760610575228928
1772045918990941200,5.904941162109375,0.2238122625172138,-0.04983107561767101,0.07433160288482904
1772045919000926500,5.914926513671875,0.0551864651709795,-0.035689883670955894,0.13502367973476648
1772045919010912500,5.92491259765625,-0.09199380856454371,0.013403525321930647,0.16201960401423274
1772045919020898300,5.934898193359375,-0.13902736241817473,0.03902092778980732,0.1415444598056376
1772045919030883300,5.94488330078125,-0.19053133968412875,0.04340652246288955,0.16344466838128863
1772045919040869400,5.954869384765625,-0.23391923051178454,0.022128245177865026,0.11943754967674612
1772045919050854400,5.9648544921875,-0.18608663523495197,0.004627586735412478,0.04882314068414271
1772045919060840400,5.97484033203125,-0.06926935105919838,-0.05159859674684703,0.04003215065896511
1772045919070825200,5.9848251953125,0.008981763356924057,-0.027794527311250566,0.02067782717384398
1772045919080811500,5.9948115234375,0.05327332502603531,-0.05273790297508239,0.01868482672572136
1772045919090797300,6.00479736328125,0.0751285984814167,-0.04828326165378093,0.04454634014777839
1772045919100782300,6.0147822265625,0.07856850980222224,-0.023320231441408393,0.06587021014019846
1772045919110768400,6.024768310546875,0.08916764522790908,-0.007257423782348633,0.1136849774993956
1772045919120753400,6.03475341796875,0.02702712313532829,0.0016930676534771918,0.1303684743400663
1772045919130739500,6.044739501953125,-0.03214811941087246,0.0018695932641625403,0.09230755068883299
1772045919140725200,6.054725341796875,-0.035814240702986715,0.03448832586146891,0.06616736645586788
1772045919150710300,6.064710205078125,0.011349077010154723,0.022227540833875535,0.0851036837246269
1772045919160696300,6.0746962890625,0.04084463608562946,-0.005574146870523691,0.09634951955601573
1772045919170681600,6.084681640625,0.08489771282374858,-0.008176803649589419,0.0953643809761852
1772045919180667400,6.09466748046875,0.11900456508696079,-0.037334655203297734,0.08260280681960284
1772045919190652400,6.10465234375,0.1493108560234308,-0.0586010959200561,0.08609298702292144
1772045919200638200,6.11463818359375,0.14015607418715953,-0.0656963148780167,0.1001724388450384
1772045919210624500,6.12462451171875,0.06649637921452523,-0.04829604807011783,0.10924977153092622
1772045919220609500,6.134609619140625,-0.0043909284353256224,-0.016144567658379672,0.10108027440495788
1772045919230595300,6.14459521484375,-0.052121816903352734,-0.03161854257881641,0.10019647730775177
1772045919240580400,6.154580322265625,-0.0593342325001955,-0.010838862465694547,0.0961805196646601
1772045919250566400,6.16456640625,-0.038302550387382506,-0.0022507015362381935,0.07904971744790673
1772045919260552400,6.174552490234375,0.020827683973312378,0.021435805934295057,0.08057115486152469
1772045919270537500,6.184537353515625,0.03628945699930191,0.016433394537121056,0.07381101307682693
1772045919280523300,6.194523193359375,0.047338089758157724,0.023222835481539368,0.055696533584967255
1772045919290508300,6.20450830078125,0.07730477347671985,-0.0033048136990517377,0.035632527460530396
1772045919300494300,6.214494384765625,0.10658113684356212,-0.04029818118400871,0.0363285469006747
1772045919310479400,6.224479248046875,0.11911387068033218,-0.05413045331202447,0.05223134169243276
1772045919320465400,6.23446533203125,0.0875461815059185,-0.04972359665520489,0.05879881044924259
1772045919330451500,6.244451416015625,0.030238486397266385,-0.00866173762232065,0.07200798224285244
1772045919340436500,6.2544365234375,-0.00865267753303051,0.029896102700382468,0.08317118129208684
1772045919350422300,6.26442236328125,-0.024933950248360634,0.05121456586532294,0.0925972543504089
1772045919360407300,6.2744072265625,0.01416997964978218,0.06220774210989475,0.08380699497759342
1772045919370393300,6.284393310546875,0.022758359774947164,0.039483284604549404,0.025972937907278535
1772045919380378400,6.29437841796875,-0.004604863446950912,-0.004699190666899084,-0.03726823890358209
1772045919390364400,6.304364501953125,-0.03873977276086807,-0.04367774061970413,-0.10391951641887426
1772045919400350200,6.31435009765625,-0.05026771346926689,-0.054699996828287835,-0.11578165751770138
1772045919410335200,6.324335205078125,-0.01857493661046028,-0.01354680625014007,-0.061244084709510205
1772045919420321500,6.334321533203125,-0.03129530197381973,0.0006865209594368935,-0.036325405095517634
1772045919430306600,6.344306640625,-0.05747603741288185,0.03571837911307812,0.003177095666155219
1772045919440292400,6.354292236328125,-0.16949088974297047,0.08427760816402732,0.09913308585993945
1772045919450278400,6.3642783203125,-0.306399944832921,0.04754859070368111,0.12736812348030507
1772045919460263400,6.374263427734375,-0.4154389962226152,0.06885996654070914,0.031060324174165724
1772045919470249500,6.38424951171875,-0.3776104930877685,0.0914623320363462,0.026048487361520527
1772045919480234500,6.394234375,-0.27314941713809965,0.028203546503558753,0.021954203785210846
1772045919490220300,6.40422021484375,-0.17025778246223924,-0.02434526364021003,0.009742153270170093
1772045919500205300,6.414205322265625,-0.1998965494006872,-0.07101093402951955,-0.028706308393925427
1772045919510191400,6.42419140625,-0.20863573617339132,-0.009704232412576674,-0.009410729358717798
1772045919520177400,6.434177490234375,-0.14730419237613676,0.06353351082094014,0.08984517916329204
1772045919530162400,6.444162353515625,0.02590776371657848,0.12269253288470208,0.21142595141381024
1772045919540148500,6.4541484375,0.221342657533288,0.20021752498336134,0.2665285376936197
1772045919550133500,6.464133544921875,0.3460433884352445,0.136800041757524,0.23976481473483144
1772045919560119300,6.474119384765625,0.3637859658747911,-0.00034508711062371727,0.14930077302083372
1772045919570105300,6.484105224609375,0.3211415868908167,-0.01389934601485729,0.057525721773505206
1772045919580090400,6.49409033203125,0.29724048682153226,-0.04059767558723688,0.019658347932994365
1772045919590076400,6.504076416015625,0.3004378215581178,-0.05959405248016118,0.029979177873954176
1772045919600061400,6.5140615234375,0.27318331940770146,-0.07508030236028135,0.05414170535840094
1772045919610047200,6.524047119140625,0.23615794934928416,-0.04095204198285937,0.0619819705300033
1772045919620032300,6.5340322265625,0.22689152383208275,-0.010458338715508579,0.08441687050424515
1772045919630018600,6.5440185546875,0.21815409062504768,-0.003339300490543246,0.11610533651411532
