time,seconds_elapsed,z,y,x
1772045913159348700,0.0733486328125,0.14111967384815216,0.08273262530565262,0.3210083544254303
1772045913169334500,0.08333447265625,0.20646953582763672,0.25959181785583496,0.26571840047836304
1772045913179320600,0.093320556640625,0.28987014293670654,0.3775216341018677,0.1524972915649414
1772045913189305600,0.1033056640625,0.3831433355808258,0.4212980270385742,0.017235297709703445
1772045913199291600,0.113291748046875,0.4554457664489746,0.39146557450294495,-0.0777258351445198
1772045913209277700,0.123277587890625,0.3896656930446625,0.3597245216369629,-0.13987448811531067
1772045913219262700,0.1332626953125,0.2687893509864807,0.29969313740730286,-0.16685257852077484
1772045913229248500,0.14324853515625,0.21809883415699005,0.26992538571357727,-0.12239863723516464
1772045913239233800,0.15323388671875,0.2553524672985077,0.2966960072517395,-0.015966475009918213
1772045913249219600,0.163219482421875,0.34196627140045166,0.34966322779655457,0.13685506582260132
1772045913259205600,0.17320556640625,0.4527228772640228,0.329233318567276,0.30701881647109985
1772045913269190700,0.183190673828125,0.5365611910820007,0.13717156648635864,0.4768996834754944
1772045913279176700,0.1931767578125,0.5444028973579407,-0.18093156814575195,0.6567407846450806
1772045913289161700,0.20316162109375,0.4156818687915802,-0.4428214430809021,0.8566645383834839
1772045913299147500,0.2131474609375,0.1863272488117218,-0.5859991312026978,1.0680603981018066
1772045913309133600,0.223133544921875,-0.03872225433588028,-0.647335946559906,1.2518329620361328
1772045913319118800,0.233118896484375,-0.24016988277435303,-0.7081806659698486,1.362194299697876
1772045913329104600,0.243104736328125,-0.4015659689903259,-0.7886835336685181,1.3834141492843628
1772045913339090700,0.253090576171875,-0.5433287024497986,-0.8680627942085266,1.325803518295288
1772045913349075500,0.263075439453125,-0.6718827486038208,-0.9120873212814331,1.2065619230270386
1772045913359061800,0.273061767578125,-0.7909777164459229,-0.9028653502464294,1.0553053617477417
1772045913369046800,0.283046875,-0.8916932344436646,-0.8071876168251038,0.9191756248474121
1772045913379032600,0.293032470703125,-0.9527664184570312,-0.6212920546531677,0.8232368230819702
1772045913389018600,0.3030185546875,-0.9707993865013123,-0.35907986760139465,0.7496989369392395
1772045913399003600,0.313003662109375,-0.9255374073982239,0.06542667001485825,0.6510599851608276
1772045913408989700,0.32298974609375,-0.7795003652572632,0.42136818170547485,0.47146809101104736
1772045913418975500,0.3329755859375,-0.5174394249916077,0.5458205938339233,0.1817537248134613
1772045913428960500,0.34296044921875,-0.2987506687641144,0.5356823801994324,-0.1411287933588028
1772045913438947000,0.352947021484375,-0.27758681774139404,0.6835030317306519,-0.37590348720550537
1772045913448931800,0.362931884765625,-0.34110650420188904,0.8855343461036682,-0.5354728102684021
1772045913458918100,0.372918212890625,-0.4174894392490387,0.951827347278595,-0.6443936824798584
1772045913468904000,0.382904052734375,-0.48563653230667114,0.8879727125167847,-0.6938826441764832
1772045913478889000,0.392888916015625,-0.49808600544929504,0.7843315601348877,-0.6619929075241089
1772045913488875000,0.402875,-0.45271795988082886,0.6752331256866455,-0.5571246147155762
1772045913498861000,0.412861083984375,-0.3862782120704651,0.602191686630249,-0.4056672155857086
1772045913508846000,0.42284619140625,-0.32511481642723083,0.56561279296875,-0.22425122559070587
1772045913518831900,0.432831787109375,-0.2427469789981842,0.5191643238067627,-0.051572926342487335
1772045913528817000,0.44281689453125,-0.14069020748138428,0.4594579041004181,0.08463504165410995
1772045913538803200,0.45280322265625,-0.0611351877450943,0.34392252564430237,0.17882786691188812
1772045913548789000,0.4627890625,-0.005671985913068056,0.1650795042514801,0.23588649928569794
1772045913558774000,0.47277392578125,0.017459698021411896,-0.04295599088072777,0.2773735225200653
1772045913568759800,0.482759765625,0.010165274143218994,-0.19248650968074799,0.29376986622810364
1772045913578746000,0.49274609375,-0.0010956358164548874,-0.2800917327404022,0.2830650210380554
1772045913588731100,0.502731201171875,-0.017110712826251984,-0.2945749759674072,0.24849437177181244
1772045913598717000,0.512717041015625,-0.047924019396305084,-0.24616855382919312,0.20463822782039642
1772045913608702000,0.522701904296875,-0.08009027689695358,-0.13558423519134521,0.1700669676065445
1772045913618688000,0.53268798828125,-0.11160852760076523,-0.02452215552330017,0.14677442610263824
1772045913628674000,0.542674072265625,-0.13323874771595,0.017767904326319695,0.15518279373645782
1772045913638659000,0.5526591796875,-0.16081711649894714,0.08027682453393936,0.1767466813325882
1772045913648644900,0.562644775390625,-0.21347734332084656,0.12230875343084335,0.19499120116233826
1772045913658630000,0.5726298828125,-0.26057401299476624,0.16574516892433167,0.20448510348796844
1772045913668616000,0.582615966796875,-0.28307223320007324,0.21866418421268463,0.19847606122493744
1772045913678602000,0.59260205078125,-0.2728683352470398,0.22836235165596008,0.17788901925086975
1772045913688587000,0.6025869140625,-0.23306262493133545,0.21472202241420746,0.16830065846443176
1772045913698573000,0.612572998046875,-0.18480268120765686,0.1779743880033493,0.17579399049282074
1772045913708559000,0.62255908203125,-0.15553539991378784,0.1436285823583603,0.20653870701789856
1772045913718544100,0.632544189453125,-0.14849266409873962,0.11126399040222168,0.2374524176120758
1772045913728530000,0.642530029296875,-0.16986218094825745,0.05290927365422249,0.25432831048965454
1772045913738515000,0.652514892578125,-0.19815772771835327,-0.04382019862532616,0.2553398013114929
1772045913748501000,0.6625009765625,-0.21333996951580048,-0.1643410176038742,0.24594925343990326
1772045913758487000,0.672487060546875,-0.2218112200498581,-0.2543739676475525,0.2274586707353592
1772045913768472000,0.68247216796875,-0.21806767582893372,-0.31978780031204224,0.20206159353256226
1772045913778458000,0.6924580078125,-0.19531655311584473,-0.31545934081077576,0.16551265120506287
1772045913788444200,0.702444091796875,-0.1508568972349167,-0.26623424887657166,0.1170019656419754
1772045913798429000,0.712428955078125,-0.0899709016084671,-0.2089291661977768,0.06750791519880295
1772045913808415000,0.7224150390625,-0.02272149547934532,-0.17088085412979126,0.012335598468780518
1772045913818400000,0.73239990234375,0.03216225653886795,-0.1627398282289505,-0.02892635390162468
1772045913828386000,0.742385986328125,0.07696706056594849,-0.18054349720478058,-0.03989294171333313
1772045913838372000,0.7523720703125,0.09820204228162766,-0.20192468166351318,-0.004445203579962254
1772045913848356900,0.76235693359375,0.10816892981529236,-0.20932351052761078,0.05107143148779869
1772045913858343200,0.77234326171875,0.1215696856379509,-0.19787271320819855,0.10598554462194443
1772045913868329000,0.782328857421875,0.15371136367321014,-0.17823797464370728,0.13855189085006714
1772045913878314000,0.79231396484375,0.2069905698299408,-0.19554293155670166,0.157914936542511
1772045913888300000,0.802300048828125,0.24149192869663239,-0.22506213188171387,0.150631844997406
1772045913898284800,0.812284912109375,0.24529226124286652,-0.27743104100227356,0.1258212924003601
1772045913908271000,0.82227099609375,0.21646574139595032,-0.3322298526763916,0.09297052025794983
1772045913918257000,0.8322568359375,0.16841831803321838,-0.34779444336891174,0.0606410838663578
1772045913928242000,0.842241943359375,0.11038355529308319,-0.32051900029182434,0.03992901369929314
1772045913938228000,0.85222802734375,0.02239856868982315,-0.28391385078430176,0.022161470726132393
1772045913948214000,0.862214111328125,-0.1136409118771553,-0.2416244000196457,0.009221557527780533
1772045913958199000,0.872198974609375,-0.2664152681827545,-0.21343350410461426,0.008484927006065845
1772045913968184800,0.882184814453125,-0.40978366136550903,-0.22685787081718445,0.01801406405866146
1772045913978169900,0.892169921875,-0.5109313130378723,-0.2718125581741333,0.027246711775660515
1772045913988156200,0.90215625,-0.5695721507072449,-0.33606091141700745,0.0328579843044281
1772045913998142000,0.912141845703125,-0.5964932441711426,-0.41674432158470154,0.07983161509037018
1772045914008127000,0.922126953125,-0.5903867483139038,-0.42734742164611816,0.162544846534729
1772045914018113000,0.932113037109375,-0.5689837336540222,-0.40891677141189575,0.25818267464637756
1772045914028099000,0.94209912109375,-0.5359971523284912,-0.3694622814655304,0.3087273836135864
1772045914038084000,0.952083984375,-0.49518340826034546,-0.31228208541870117,0.3086024820804596
1772045914048070000,0.96206982421875,-0.4459197223186493,-0.25893497467041016,0.2616903483867645
1772045914058055000,0.972054931640625,-0.390533447265625,-0.23415401577949524,0.21782329678535461
1772045914068041000,0.982041015625,-0.3263794481754303,-0.22358882427215576,0.18746398389339447
1772045914078027000,0.992027099609375,-0.25170519948005676,-0.2222023755311966,0.17232178151607513
1772045914088012000,1.002011962890625,-0.17179851233959198,-0.20700615644454956,0.15674394369125366
1772045914097997800,1.011997802734375,-0.08108218014240265,-0.1825205236673355,0.13975882530212402
1772045914107984100,1.021984130859375,0.028826631605625153,-0.1287570297718048,0.1355995088815689
1772045914117969200,1.03196923828125,0.14238008856773376,-0.04861798137426376,0.12919966876506805
1772045914127955000,1.041954833984375,0.2576559782028198,0.05004630982875824,0.11458496004343033
1772045914137940000,1.05193994140625,0.3588244318962097,0.14484871923923492,0.07190115004777908
1772045914147926000,1.061926025390625,0.4443538784980774,0.25181734561920166,0.001507367705926299
1772045914157912000,1.071912109375,0.49510443210601807,0.34578806161880493,-0.0970892459154129
1772045914167897000,1.08189697265625,0.4980643391609192,0.4136306345462799,-0.21115919947624207
1772045914177883000,1.0918828125,0.4609034061431885,0.41779956221580505,-0.32100316882133484
1772045914187868200,1.1018681640625,0.41148242354393005,0.3299628794193268,-0.41673171520233154
1772045914197854000,1.11185400390625,0.3671722114086151,0.22025926411151886,-0.47363123297691345
1772045914207840000,1.121840087890625,0.3408189117908478,0.1574341505765915,-0.4832673668861389
1772045914217825000,1.131824951171875,0.338413268327713,0.16871237754821777,-0.47647976875305176
1772045914227811000,1.14181103515625,0.33335238695144653,0.2410515695810318,-0.48032376170158386
1772045914237797000,1.151797119140625,0.3288585841655731,0.30453044176101685,-0.4968031048774719
1772045914247782000,1.161781982421875,0.3079872131347656,0.3438683748245239,-0.5169513821601868
1772045914257768000,1.171767822265625,0.2844720482826233,0.35235506296157837,-0.5515645146369934
1772045914267753200,1.181753173828125,0.24462947249412537,0.307510644197464,-0.6053945422172546
1772045914277739000,1.191739013671875,0.2011437863111496,0.17412038147449493,-0.6401301622390747
1772045914287725000,1.20172509765625,0.18372491002082825,0.04108908027410507,-0.5852820873260498
1772045914297709800,1.211709716796875,0.18744534254074097,0.0029491514433175325,-0.4603862166404724
1772045914307696000,1.221696044921875,0.17924022674560547,0.03496910259127617,-0.3175877034664154
1772045914317682000,1.231681884765625,0.16596117615699768,0.08604906499385834,-0.197167307138443
1772045914327667000,1.2416669921875,0.1394330859184265,0.11589010059833527,-0.10500159859657288
1772045914337653000,1.251653076171875,0.11391759663820267,0.10132980346679688,-0.039729658514261246
1772045914347638000,1.261637939453125,0.08596467971801758,0.016144534572958946,-0.007568109780550003
1772045914357624000,1.2716240234375,0.07622096687555313,-0.11245684325695038,0.011228480376303196
1772045914367609900,1.28160986328125,0.08109307289123535,-0.22984787821769714,0.0017129679908975959
1772045914377595000,1.291594970703125,0.08971638977527618,-0.3152370750904083,-0.03778011351823807
1772045914387581200,1.301581298828125,0.09096709638834,-0.3713568449020386,-0.09668106585741043
1772045914397567000,1.31156689453125,0.08704080432653427,-0.38356611132621765,-0.17687150835990906
1772045914407552000,1.321552001953125,0.07509162276983261,-0.3794380724430084,-0.2617397606372833
1772045914417538000,1.3315380859375,0.05195434391498566,-0.3555452525615692,-0.2978074848651886
1772045914427522800,1.341522705078125,0.02320246770977974,-0.3107095956802368,-0.2658691108226776
1772045914437508900,1.3515087890625,-0.01711326465010643,-0.2331354320049286,-0.1924031525850296
1772045914447495000,1.361494873046875,-0.07410891354084015,-0.14434510469436646,-0.11943557113409042
1772045914457480000,1.37147998046875,-0.1417156457901001,-0.04453408718109131,-0.05351727455854416
1772045914467466000,1.381466064453125,-0.21649040281772614,0.030229490250349045,-0.009777665138244629
1772045914477450800,1.39145068359375,-0.289861261844635,0.06132029742002487,0.004602339118719101
1772045914487437000,1.40143701171875,-0.3492963910102844,0.06495711207389832,-0.007013570982962847
1772045914497422800,1.4114228515625,-0.3945552110671997,0.056881342083215714,-0.023238880559802055
1772045914507408000,1.421407958984375,-0.40790003538131714,0.03736189380288124,-0.043290916830301285
1772045914517394000,1.431393798828125,-0.40442487597465515,0.05264657363295555,-0.06804979592561722
1772045914527380000,1.4413798828125,-0.39966654777526855,0.02752244845032692,-0.09378602355718613
1772045914537365000,1.451364990234375,-0.3735361695289612,0.022692807018756866,-0.09068717062473297
1772045914547350800,1.461350830078125,-0.34667104482650757,0.08371489495038986,-0.0826321393251419
1772045914557335800,1.471335693359375,-0.31689396500587463,0.14822064340114594,-0.09184268116950989
1772045914567322000,1.481322021484375,-0.28926849365234375,0.2182946503162384,-0.11057915538549423
1772045914577308000,1.491307861328125,-0.27762436866760254,0.2584836184978485,-0.13099494576454163
1772045914587293000,1.50129296875,-0.2759647071361542,0.25640618801116943,-0.1345532238483429
1772045914597278700,1.51127880859375,-0.28437843918800354,0.22984835505485535,-0.1180858314037323
1772045914607265000,1.52126513671875,-0.30127936601638794,0.19723092019557953,-0.06882303208112717
1772045914617250000,1.53125,-0.32239264249801636,0.18872983753681183,-0.009081137366592884
1772045914627235800,1.54123583984375,-0.33722811937332153,0.2017635554075241,0.049203746020793915
1772045914637220900,1.551220947265625,-0.348736435174942,0.24214346706867218,0.09088993817567825
1772045914647207000,1.56120703125,-0.35107454657554626,0.2739890217781067,0.10284759849309921
1772045914657193000,1.57119287109375,-0.3544660806655884,0.29352810978889465,0.09634202718734741
1772045914667178000,1.581177978515625,-0.35696500539779663,0.29718104004859924,0.08176517486572266
1772045914677163800,1.591163818359375,-0.36435022950172424,0.2869182825088501,0.06390175223350525
1772045914687148800,1.601148681640625,-0.37225258350372314,0.25524741411209106,0.05339118465781212
1772045914697134800,1.611134765625,-0.3778076767921448,0.2093699425458908,0.05143322795629501
1772045914707121000,1.621120849609375,-0.38588714599609375,0.14767202734947205,0.054048050194978714
1772045914717106000,1.63110595703125,-0.3870309591293335,0.08751122653484344,0.059415917843580246
1772045914727092000,1.641092041015625,-0.38467684388160706,0.03535369783639908,0.0637688934803009
1772045914737078000,1.651078125,-0.37777259945869446,-0.010035357438027859,0.0646384134888649
1772045914747063000,1.66106298828125,-0.36145105957984924,-0.03468150645494461,0.07193895429372787
1772045914757048800,1.671048828125,-0.33840087056159973,-0.03992500156164169,0.0759454146027565
1772045914767033900,1.681033935546875,-0.3112039268016815,-0.039949141442775726,0.06865373998880386
1772045914777020000,1.69102001953125,-0.27404218912124634,-0.03118734061717987,0.05215918645262718
1772045914787006000,1.701005859375,-0.23098905384540558,-0.009443040005862713,0.029555318877100945
1772045914796991000,1.710990966796875,-0.1847967952489853,0.00704698683694005,-0.002151742810383439
1772045914806977000,1.72097705078125,-0.14203009009361267,0.014747831039130688,-0.024764545261859894
1772045914816962000,1.730962158203125,-0.09791881591081619,0.011288384906947613,-0.046264246106147766
1772045914826947800,1.74094775390625,-0.06398317217826843,0.014558745548129082,-0.0632079467177391
1772045914836934000,1.750933837890625,-0.035949137061834335,0.030753960832953453,-0.07128504663705826
1772045914846919000,1.7609189453125,-0.013392849825322628,0.05502474308013916,-0.07991623133420944
1772045914856905000,1.770905029296875,0.00784080009907484,0.07686986029148102,-0.08849294483661652
1772045914866891000,1.78089111328125,0.027974527329206467,0.10122436285018921,-0.09635118395090103
1772045914876875800,1.790875732421875,0.04034624248743057,0.11120429635047913,-0.10155366361141205
1772045914886862000,1.800862060546875,0.04727919399738312,0.1206107884645462,-0.0983906239271164
1772045914896847000,1.81084716796875,0.0470709353685379,0.1198003888130188,-0.08475550264120102
1772045914906833000,1.8208330078125,0.04417124018073082,0.11757417023181915,-0.05800660327076912
1772045914916819000,1.83081884765625,0.047751061618328094,0.11675791442394257,-0.022306928411126137
1772045914926803700,1.8408037109375,0.04954616725444794,0.11082130670547485,0.006327203009277582
1772045914936790000,1.8507900390625,0.05695880576968193,0.09495898336172104,0.02429315261542797
1772045914946775000,1.860775146484375,0.059435926377773285,0.05693861097097397,0.029191870242357254
1772045914956760800,1.8707607421875,0.05814269185066223,0.008977213874459267,0.02176111936569214
1772045914966747000,1.880746826171875,0.054077230393886566,-0.036335282027721405,0.012842180207371712
1772045914976732000,1.89073193359375,0.05013148486614227,-0.06934037059545517,0.008130781352519989
1772045914986718000,1.900718017578125,0.035842571407556534,-0.08210337907075882,0.004535488318651915
1772045914996703700,1.910703857421875,0.02822539582848549,-0.08505256474018097,0.0029133567586541176
1772045915006688800,1.920688720703125,0.015072179958224297,-0.08080645650625229,0.005520523991435766
1772045915016675000,1.930675048828125,0.007191088050603867,-0.07721837610006332,0.0028341934084892273
1772045915026659800,1.940659912109375,0.004434891045093536,-0.05887521058320999,-0.00017415685579180717
1772045915036646000,1.95064599609375,0.006304429844021797,-0.04592905193567276,-0.010155152529478073
1772045915046632000,1.9606318359375,0.008684676140546799,-0.03602438047528267,-0.02876909449696541
1772045915056617000,1.970616943359375,0.014632314443588257,-0.03156571462750435,-0.05057399347424507
1772045915066603000,1.98060302734375,0.024290211498737335,-0.034767698496580124,-0.06626399606466293
1772045915076588000,1.990588134765625,0.02635788917541504,-0.034055836498737335,-0.0659438893198967
1772045915086573800,2.00057373046875,0.03149890899658203,-0.021080052480101585,-0.05448750779032707
1772045915096560000,2.01056005859375,0.03323636204004288,-0.00772989122197032,-0.04206546023488045
1772045915106545000,2.020544921875,0.043175745755434036,0.00784402433782816,-0.02918265014886856
1772045915116531000,2.030531005859375,0.05909239500761032,0.01804579608142376,-0.017642641440033913
1772045915126516000,2.040515869140625,0.06694270670413971,0.028613081201910973,-0.005432596430182457
1772045915136502000,2.050501953125,0.08201034367084503,0.03769152984023094,0.006636317819356918
1772045915146488000,2.060488037109375,0.09094926714897156,0.045047540217638016,0.008158102631568909
1772045915156472800,2.070472900390625,0.09812701493501663,0.03766392543911934,0.002620591316372156
1772045915166459000,2.080458984375,0.10403436422348022,0.02208579331636429,-0.0050781466998159885
1772045915176445000,2.09044482421875,0.11043793708086014,0.005001083482056856,-0.015063401311635971
1772045915186430000,2.100429931640625,0.11493319272994995,-0.008549750782549381,-0.024764247238636017
1772045915196416000,2.110416015625,0.11539871990680695,-0.0160880945622921,-0.032209914177656174
1772045915206400800,2.12040087890625,0.11911176145076752,-0.024463219568133354,-0.037417490035295486
1772045915216387000,2.130386962890625,0.12267401814460754,-0.03303540125489235,-0.03757648169994354
1772045915226372900,2.140372802734375,0.12177639454603195,-0.03722931444644928,-0.03217073157429695
1772045915236358000,2.15035791015625,0.11757659167051315,-0.0290472861379385,-0.014888415113091469
1772045915246344000,2.160343994140625,0.11070740222930908,-0.012813410721719265,0.003994555212557316
1772045915256328700,2.17032861328125,0.09842570126056671,-0.005068139638751745,0.02096501551568508
1772045915266315000,2.18031494140625,0.08115719258785248,0.011186119168996811,0.03283084183931351
1772045915276300800,2.19030078125,0.06821928918361664,0.021126901730895042,0.03958221897482872
1772045915286285800,2.200285888671875,0.051914967596530914,0.017629606649279594,0.03421176224946976
1772045915296272100,2.210272216796875,0.042224787175655365,0.0055497754365205765,0.014815425500273705
1772045915306257000,2.2202568359375,0.027389220893383026,-0.012900810688734055,-0.007277235388755798
1772045915316243000,2.230242919921875,0.013848379254341125,-0.02942652441561222,-0.03106006421148777
1772045915326228700,2.240228759765625,0.006001517176628113,-0.05054207891225815,-0.03557216748595238
1772045915336213800,2.2502138671875,0.005555437877774239,-0.058274298906326294,-0.02543617971241474
1772045915346200000,2.260199951171875,0.0028347205370664597,-0.060286641120910645,-0.0036759860813617706
1772045915356184800,2.270184814453125,0.006369801238179207,-0.05700722336769104,0.017219174653291702
1772045915366171000,2.2801708984375,0.013211295939981937,-0.044675312936306,0.029705289751291275
1772045915376157000,2.290156982421875,0.013997727073729038,-0.039782289415597916,0.031158309429883957
1772045915386142000,2.300141845703125,0.012487558647990227,-0.028721852228045464,0.01883864775300026
1772045915396128000,2.3101279296875,0.005369462072849274,-0.018730737268924713,-0.006645938381552696
1772045915406113800,2.32011376953125,0.0006863195449113846,-0.01957658678293228,-0.032891448587179184
1772045915416098800,2.330098876953125,-0.005781433545053005,-0.023436572402715683,-0.06389676779508591
1772045915426085000,2.340085205078125,-0.0058906651102006435,-0.038920264691114426,-0.07698209583759308
1772045915436070000,2.35006982421875,-0.006058976985514164,-0.045720383524894714,-0.08525760471820831
1772045915446056200,2.36005615234375,-0.005017321556806564,-0.04892648756504059,-0.08121144771575928
1772045915456042200,2.370042236328125,-0.00605808524414897,-0.04227417707443237,-0.06476243585348129
1772045915466027300,2.38002734375,-0.004118959419429302,-0.015231672674417496,-0.042556121945381165
1772045915476013000,2.390012939453125,-0.003948783501982689,0.010165296494960785,-0.015143142081797123
1772045915485998000,2.399998046875,-0.010824518278241158,0.020590757951140404,0.013197788968682289
1772045915495984000,2.409984130859375,-0.017250725999474525,0.020350541919469833,0.031217535957694054
1772045915505970200,2.41997021484375,-0.021071869879961014,0.019833894446492195,0.030119914561510086
1772045915515955200,2.429955078125,-0.01611492969095707,0.010039320215582848,0.021089402958750725
1772045915525941200,2.439941162109375,-0.010867330245673656,0.0034264035057276487,0.005149684846401215
1772045915535926000,2.449926025390625,0.0005871914327144623,-0.005817961413413286,-0.008453208953142166
1772045915545912300,2.459912353515625,0.010861111804842949,-0.013737043365836143,-0.017367154359817505
1772045915555898000,2.469898193359375,0.016304880380630493,-0.021561410278081894,-0.024450363591313362
1772045915565883100,2.479883056640625,0.012712804600596428,-0.034730393439531326,-0.014559623785316944
1772045915575869200,2.489869140625,0.0027714911848306656,-0.04011743888258934,0.003007651073858142
1772045915585854200,2.499854248046875,-0.01058263797312975,-0.04402020946145058,0.016281964257359505
1772045915595840300,2.50984033203125,-0.019191838800907135,-0.0368879958987236,0.01866682432591915
1772045915605826000,2.519825927734375,-0.024947138503193855,-0.03112591803073883,0.012645944021642208
1772045915615811000,2.52981103515625,-0.03176163509488106,-0.03316589817404747,0.009873593226075172
1772045915625797400,2.53979736328125,-0.03230217844247818,-0.0389401949942112,0.011218560859560966
1772045915635782100,2.5497822265625,-0.03115169145166874,-0.04118311032652855,0.015127016231417656
1772045915645768200,2.559768310546875,-0.02506079524755478,-0.03699812293052673,0.011712232604622841
1772045915655754000,2.56975390625,-0.03174106776714325,-0.03281189873814583,0.007167281582951546
1772045915665739000,2.579739013671875,-0.04172134771943092,-0.03495856374502182,-0.002274204744026065
1772045915675725300,2.589725341796875,-0.046915844082832336,-0.041307006031274796,-0.007525159046053886
1772045915685710000,2.5997099609375,-0.052407629787921906,-0.05022643506526947,-0.012519190087914467
1772045915695696100,2.609696044921875,-0.05322468653321266,-0.06444106251001358,-0.005953697953373194
1772045915705682200,2.61968212890625,-0.05742930620908737,-0.06587915122509003,0.011813744902610779
1772045915715667200,2.629667236328125,-0.06373993307352066,-0.06248361989855766,0.030192751437425613
1772045915725653200,2.6396533203125,-0.06423427164554596,-0.049221593886613846,0.047973912209272385
1772045915735638000,2.649637939453125,-0.0681118369102478,-0.03962516039609909,0.05448960140347481
1772045915745624000,2.6596240234375,-0.0668502151966095,-0.031716663390398026,0.05990814045071602
1772045915755610000,2.669610107421875,-0.06689070165157318,-0.023708807304501534,0.047905538231134415
1772045915765595100,2.67959521484375,-0.05835731700062752,-0.022215867415070534,0.02355632744729519
1772045915775581200,2.689581298828125,-0.05061656981706619,-0.024097124114632607,-0.003921103663742542
1772045915785567200,2.699567138671875,-0.03792865201830864,-0.025129826739430428,-0.03358310088515282
1772045915795552300,2.70955224609375,-0.03246677666902542,-0.03426819667220116,-0.054335519671440125
1772045915805538300,2.719538330078125,-0.024273522198200226,-0.04089336842298508,-0.04421982914209366
1772045915815523000,2.729523193359375,-0.016752224415540695,-0.03087295964360237,-0.01775093749165535
1772045915825509000,2.739509033203125,-0.014359701424837112,-0.01880171336233616,0.01950616016983986
1772045915835495200,2.7494951171875,-0.013949308544397354,0.0015309881418943405,0.05159592255949974
1772045915845480200,2.759480224609375,-0.01199842058122158,0.014263608492910862,0.0702316164970398
1772045915855466200,2.76946630859375,-0.012255416251718998,0.02770138531923294,0.07254297286272049
1772045915865451000,2.779450927734375,-0.015465587377548218,0.02816895768046379,0.06046365201473236
1772045915875437300,2.789437255859375,-0.020433448255062103,0.019881732761859894,0.04942671209573746
1772045915885423000,2.799423095703125,-0.019533976912498474,0.008845987729728222,0.024144776165485382
1772045915895408000,2.809408203125,-0.017634078860282898,-0.00807866733521223,0.0013851358089596033
1772045915905394200,2.819394287109375,-0.014260262250900269,-0.018104173243045807,-0.00839698500931263
1772045915915379200,2.829379150390625,-0.016064820811152458,-0.028135500848293304,-0.015890320762991905
1772045915925365200,2.839365234375,-0.015976302325725555,-0.022827595472335815,-0.01205706037580967
1772045915935351000,2.84935107421875,-0.019884224981069565,-0.015499376691877842,-0.0031083065550774336
1772045915945336000,2.859336181640625,-0.02503446862101555,0.00031873019179329276,0.022895995527505875
1772045915955322400,2.869322265625,-0.030503802001476288,0.007776380050927401,0.04259273409843445
1772045915965307100,2.87930712890625,-0.03584428131580353,0.009525999426841736,0.05901815742254257
1772045915975293200,2.889293212890625,-0.03212650865316391,0.0003607305698096752,0.06417643278837204
1772045915985279000,2.899279052734375,-0.035606253892183304,-0.009114429354667664,0.058195825666189194
1772045915995264300,2.90926416015625,-0.0338890478014946,-0.0238393135368824,0.04157344251871109
1772045916005250300,2.919250244140625,-0.02623744308948517,-0.03408673778176308,0.02454177476465702
1772045916015235000,2.929235107421875,-0.023154035210609436,-0.03795764222741127,0.012163136154413223
1772045916025221000,2.93922119140625,-0.018860649317502975,-0.0393948070704937,0.006574640981853008
1772045916035207200,2.949207275390625,-0.015596412122249603,-0.031056983396410942,0.005902991630136967
1772045916045192200,2.959192138671875,-0.01464039832353592,-0.019982825964689255,0.009057248942553997
1772045916055178200,2.96917822265625,-0.010608639568090439,-0.0066917878575623035,0.012660506181418896
1772045916065163000,2.9791630859375,-0.012209240347146988,-0.0013053553411737084,0.02189459279179573
1772045916075149000,2.989149169921875,-0.012690740637481213,0.00020119486725889146,0.027652880176901817
1772045916085135000,2.999135009765625,-0.014947747811675072,0.003264268161728978,0.03351297974586487
1772045916095120100,3.0091201171875,-0.010588419623672962,0.009333878755569458,0.039515744894742966
1772045916105106200,3.019106201171875,-0.015232408419251442,0.018269924446940422,0.0374806746840477
1772045916115091200,3.02909130859375,-0.012931703589856625,0.025141945108771324,0.02659979648888111
1772045916125077200,3.0390771484375,-0.01963692158460617,0.0275129284709692,0.009422782808542252
1772045916135063300,3.049063232421875,-0.025682030245661736,0.02124757692217827,-0.008636112324893475
1772045916145048000,3.059048095703125,-0.02713865414261818,0.017987916246056557,-0.02293945662677288
1772045916155034000,3.0690341796875,-0.026688581332564354,0.00439167907461524,-0.03168341517448425
1772045916165019400,3.079019287109375,-0.03202688694000244,0.009964609518647194,-0.027496125549077988
1772045916175005200,3.089005126953125,-0.031038854271173477,0.004900875501334667,-0.020994285121560097
1772045916184991200,3.0989912109375,-0.031690243631601334,0.01407244149595499,-0.006551350001245737
1772045916194976000,3.10897607421875,-0.035180848091840744,0.01904482953250408,0.010273436084389687
1772045916204962300,3.11896240234375,-0.04837619885802269,0.0203553419560194,0.020305367186665535
1772045916214947300,3.128947265625,-0.05612173303961754,0.018736671656370163,0.02015170268714428
1772045916224933000,3.13893310546875,-0.07014300674200058,0.013713502325117588,0.014330585487186909
1772045916234919200,3.148919189453125,-0.07628744840621948,0.0022784213069826365,0.007714227773249149
1772045916244904200,3.158904296875,-0.07362031936645508,-0.011038172990083694,0.0008293252903968096
1772045916254890200,3.16889013671875,-0.07014463096857071,-0.01817411370575428,-0.002811215817928314
1772045916264875300,3.178875244140625,-0.06817081570625305,-0.025962308049201965,-0.0009227290283888578
1772045916274861000,3.188861083984375,-0.06543920934200287,-0.025595590472221375,0.007916835136711597
1772045916284847400,3.198847412109375,-0.06674991548061371,-0.018852325156331062,0.01988336443901062
1772045916294832000,3.20883203125,-0.06578505039215088,-0.017000894993543625,0.029621746391057968
1772045916304818200,3.218818115234375,-0.06593066453933716,-0.025623079389333725,0.03732040524482727
1772045916314803200,3.22880322265625,-0.0685163289308548,-0.03366689383983612,0.03893454372882843
1772045916324789200,3.238789306640625,-0.06367792189121246,-0.03607366234064102,0.040841780602931976
1772045916334775300,3.248775390625,-0.0596725270152092,-0.031883444637060165,0.0405416414141655
1772045916344760000,3.258760009765625,-0.06323432177305222,-0.0299140065908432,0.03997191786766052
1772045916354746000,3.26874609375,-0.06885305792093277,-0.02395172230899334,0.03889387100934982
1772045916364731100,3.278731201171875,-0.07425284385681152,-0.0193506870418787,0.028213709592819214
1772045916374717200,3.28871728515625,-0.07672744989395142,-0.01682254858314991,0.01574665494263172
1772045916384703200,3.298703125,-0.08154807984828949,-0.004436710849404335,0.01293315552175045
1772045916394688300,3.308688232421875,-0.08470392227172852,0.006021256558597088,0.0062507521361112595
1772045916404674300,3.31867431640625,-0.08464363217353821,0.007076459005475044,-0.0002618806902319193
1772045916414659300,3.328659423828125,-0.078643798828125,0.00363538833335042,-0.00621591042727232
1772045916424645000,3.33864501953125,-0.07300027459859848,-0.001662266324274242,-0.00007804413326084614
1772045916434631200,3.348631103515625,-0.06740763783454895,-0.0008236368885263801,0.0067740026861429214
1772045916444616200,3.3586162109375,-0.058118343353271484,-0.005426797550171614,0.01161212008446455
1772045916454602200,3.368602294921875,-0.05149586498737335,-0.0005649309023283422,0.025376133620738983
1772045916464587300,3.378587158203125,-0.038945261389017105,-0.0004457735922187567,0.038213588297367096
1772045916474573000,3.388572998046875,-0.031081214547157288,0.005615314468741417,0.045903466641902924
1772045916484559000,3.39855908203125,-0.02742564119398594,0.005649631842970848,0.04216406121850014
1772045916494544400,3.40854443359375,-0.024320393800735474,0.007311710622161627,0.03616182878613472
1772045916504530200,3.4185302734375,-0.016834106296300888,0.0039190626703202724,0.021749107167124748
1772045916514515200,3.42851513671875,-0.022163357585668564,-0.0009124442585743964,0.009765679948031902
1772045916524501000,3.4385009765625,-0.02319498360157013,-0.004717331379652023,0.00020686606876552105
1772045916534486000,3.448486083984375,-0.016835354268550873,-0.00870008859783411,-0.004415582865476608
1772045916544472300,3.458472412109375,-0.008006975054740906,-0.002997728530317545,-0.006463819183409214
1772045916554458000,3.4684580078125,0.002177218906581402,-0.002965770661830902,-0.0036259551998227835
1772045916564443100,3.478443115234375,0.016619112342596054,-0.007851729169487953,0.005642792209982872
1772045916574429200,3.48842919921875,0.027863778173923492,0.0010235209483653307,0.022754134610295296
1772045916584414200,3.498414306640625,0.03336062654852867,0.0050304848700761795,0.03614510968327522
1772045916594400300,3.508400146484375,0.03250548616051674,0.007729331962764263,0.048076070845127106
1772045916604386000,3.518385986328125,0.028084099292755127,0.008818214759230614,0.05154450982809067
1772045916614371000,3.52837109375,0.01961284875869751,0.004331853706389666,0.04497528821229935
1772045916624357000,3.538357177734375,0.013325714506208897,-0.002012615092098713,0.03146770969033241
1772045916634342100,3.548342041015625,0.005358601920306683,-0.009381048381328583,0.02014980837702751
1772045916644328200,3.558328125,0.0009598042815923691,-0.013277235440909863,0.009016000665724277
1772045916654314200,3.568314208984375,-0.003854125738143921,-0.013068443164229393,-0.0013969594147056341
1772045916664299300,3.57829931640625,-0.008832033723592758,-0.010208056308329105,-0.005304872058331966
1772045916674285000,3.58828515625,-0.0102914460003376,-0.010813659057021141,-0.005074509419500828
1772045916684270000,3.59827001953125,-0.012195035815238953,-0.0017178227426484227,0.0068451594561338425
1772045916694256000,3.608256103515625,-0.012880266644060612,0.0009149782708846033,0.016114825382828712
1772045916704242200,3.6182421875,-0.012724719941616058,0.001346048666164279,0.024098262190818787
1772045916714227200,3.628227294921875,-0.009445569477975368,0.0019694948568940163,0.024382155388593674
1772045916724213200,3.638213134765625,-0.006833825726062059,0.006944641005247831,0.02282865345478058
1772045916734198000,3.648197998046875,-0.00221830140799284,0.008804859593510628,0.014001872390508652
1772045916744184300,3.658184326171875,0.0020526284351944923,0.009189857169985771,0.0035296031273901463
1772045916754170000,3.668170166015625,0.0023732734844088554,0.0031929509714245796,-0.012432851828634739
1772045916764155100,3.678155029296875,0.006130273453891277,-0.007657147943973541,-0.02414325438439846
1772045916774141200,3.68814111328125,0.012814807705581188,-0.011915542185306549,-0.0300418883562088
1772045916784126200,3.698126220703125,0.01682804897427559,-0.01824662648141384,-0.028715142980217934
1772045916794112300,3.7081123046875,0.020912539213895798,-0.024661116302013397,-0.01900419220328331
1772045916804098000,3.71809814453125,0.020531482994556427,-0.01614230126142502,0.0003718137741088867
1772045916814083000,3.7280830078125,0.018247291445732117,-0.004382848273962736,0.021482158452272415
1772045916824069400,3.7380693359375,0.012132628820836544,0.003559335134923458,0.0363117940723896
1772045916834054100,3.74805419921875,0.013944110833108425,0.007558071985840797,0.03983169421553612
1772045916844040200,3.758040283203125,0.00969260185956955,0.004661008715629578,0.035456493496894836
1772045916854026000,3.76802587890625,0.01059860922396183,0.0037342288997024298,0.02681560255587101
1772045916864011300,3.77801123046875,0.011911984533071518,-0.00652245944365859,0.01500036008656025
1772045916873997300,3.787997314453125,0.01084299199283123,-0.012889011763036251,0.0036995019763708115
1772045916883982000,3.797982177734375,0.012441776692867279,-0.016501085832715034,-0.01192462258040905
1772045916893968100,3.807968017578125,0.009994331747293472,-0.01834239438176155,-0.02245662547647953
1772045916903953200,3.817953125,0.008531749248504639,-0.019289959222078323,-0.027109067887067795
1772045916913939200,3.827939208984375,-0.0016780123114585876,-0.0194417592138052,-0.02395721711218357
1772045916923925200,3.83792529296875,-0.005423187278211117,-0.015656352043151855,-0.011340128257870674
1772045916933910000,3.847909912109375,-0.00026624277234077454,-0.015723729506134987,0.0019043047213926911
1772045916943896000,3.85789599609375,0.0032907621935009956,-0.016868384554982185,0.020702827721834183
1772045916953881300,3.86788134765625,0.00861016009002924,-0.016568245366215706,0.03807729110121727
1772045916963867100,3.8778671875,0.006989274173974991,-0.016571680083870888,0.04592209681868553
1772045916973853200,3.887853271484375,0.0026243524625897408,-0.015722930431365967,0.04743264243006706
1772045916983838200,3.897838134765625,-0.0006491942331194878,-0.01618250645697117,0.036517735570669174
1772045916993824300,3.90782421875,-0.006375789176672697,-0.01240081712603569,0.02566668577492237
1772045917003809300,3.917809326171875,-0.01324731670320034,-0.018150925636291504,0.008856921456754208
1772045917013795000,3.927795166015625,-0.020300965756177902,-0.01596180722117424,-0.0011006377171725035
1772045917023781000,3.937781005859375,-0.025670040398836136,-0.012370752170681953,-0.007575354538857937
1772045917033766100,3.94776611328125,-0.033729568123817444,-0.006870259530842304,-0.0065002357587218285
1772045917043752200,3.957752197265625,-0.037424955517053604,0.004807255696505308,-0.0010716307442635298
1772045917053737200,3.9677373046875,-0.0400678776204586,0.016491342335939407,0.0040525575168430805
1772045917063723000,3.977722900390625,-0.03673684969544411,0.015050859190523624,0.0036736181937158108
1772045917073709300,3.987709228515625,-0.02924191579222679,0.014733144082129002,0.0033244777005165815
1772045917083694300,3.9976943359375,-0.022292234003543854,0.01897435076534748,-0.00264297379180789
1772045917093680000,4.00768017578125,-0.016655389219522476,0.018947718665003777,-0.007609236985445023
1772045917103665200,4.0176650390625,-0.014156746678054333,0.013285903260111809,-0.01074698194861412
1772045917113651200,4.027651123046875,-0.013845423236489296,0.006858364213258028,-0.0158701054751873
1772045917123636200,4.03763623046875,-0.012460105121135712,-0.006588183343410492,-0.017068497836589813
1772045917133622300,4.047622314453125,-0.013211116194725037,-0.01166576612740755,-0.013062838464975357
1772045917143608000,4.057608154296875,-0.008813334628939629,-0.022960888221859932,-0.0095803402364254
1772045917153593000,4.067593017578125,-0.012870660983026028,-0.030389243736863136,-0.006646069698035717
1772045917163579100,4.0775791015625,-0.013741038739681244,-0.035993579775094986,0.001109883887693286
1772045917173564200,4.087564208984375,-0.014334923587739468,-0.03314559534192085,0.016165798529982567
1772045917183550200,4.09755029296875,-0.01679089106619358,-0.02723577618598938,0.030302656814455986
1772045917193536300,4.107536376953125,-0.019114764407277107,-0.025588344782590866,0.03870892524719238
1772045917203521300,4.117521240234375,-0.021350659430027008,-0.022630315274000168,0.03815325349569321
1772045917213507000,4.127507080078125,-0.01968591846525669,-0.022062528878450394,0.029655370861291885
1772045917223492000,4.1374921875,-0.013059373944997787,-0.024328013882040977,0.020668789744377136
1772045917233478100,4.14747802734375,-0.0016541201621294022,-0.025576237589120865,0.00817403756082058
1772045917243464200,4.157464111328125,0.00476970337331295,-0.028538381680846214,-0.009072843007743359
1772045917253449200,4.16744921875,0.010436378419399261,-0.029084861278533936,-0.025043820962309837
1772045917263435000,4.17743505859375,0.018215205520391464,-0.024952968582510948,-0.03686719015240669
1772045917273420000,4.187419921875,0.022241104394197464,-0.026301858946681023,-0.04171201214194298
1772045917283406300,4.19740625,0.02667864039540291,-0.025542033836245537,-0.03432447090744972
1772045917293392100,4.20739208984375,0.026785701513290405,-0.018682528287172318,-0.019894132390618324
1772045917303377200,4.217377197265625,0.023564085364341736,-0.009990685619413853,0.001151291886344552
1772045917313363200,4.22736328125,0.014929316937923431,0.000036914818338118494,0.021360423415899277
1772045917323348200,4.23734814453125,0.006071282550692558,0.009166973643004894,0.03226380795240402
1772045917333334300,4.247334228515625,-0.0012388285249471664,0.01663314551115036,0.02869810163974762
1772045917343319300,4.2573193359375,-0.006916811224073172,0.022375673055648804,0.017989303916692734
1772045917353305000,4.26730517578125,-0.009313389658927917,0.0256593506783247,0.005006927065551281
1772045917363291100,4.277291015625,-0.010751811787486076,0.02699769288301468,-0.011729619465768337
1772045917373276200,4.287276123046875,-0.013609383255243301,0.025225624442100525,-0.025287240743637085
1772045917383262200,4.29726220703125,-0.009279634803533554,0.02454048953950405,-0.0375429168343544
1772045917393247200,4.307247314453125,-0.009478306397795677,0.031962718814611435,-0.04758010804653168
1772045917403233300,4.3172333984375,-0.01335993967950344,0.036277689039707184,-0.05223775655031204
1772045917413219300,4.32721923828125,-0.013524789363145828,0.04460219666361809,-0.0509067103266716
1772045917423204000,4.3372041015625,-0.016213422641158104,0.05317416787147522,-0.04229738190770149
1772045917433190100,4.347190185546875,-0.023130983114242554,0.0703534260392189,-0.02855840139091015
1772045917443175200,4.357175048828125,-0.028584975749254227,0.08669177442789078,-0.011709260754287243
1772045917453161000,4.367160888671875,-0.031344007700681686,0.0893794372677803,-0.004814603365957737
1772045917463147300,4.377147216796875,-0.041383497416973114,0.08483720570802689,-0.004771106876432896
1772045917473132000,4.387132080078125,-0.04425465315580368,0.07232540845870972,-0.007992200553417206
1772045917483118000,4.3971181640625,-0.045723918825387955,0.05990256369113922,-0.006572202779352665
1772045917493103000,4.40710302734375,-0.04810824617743492,0.05572193115949631,0.008417399600148201
1772045917503089000,4.4170888671875,-0.05348043143749237,0.05109657347202301,0.025062451139092445
1772045917513075200,4.4270751953125,-0.061681102961301804,0.05609159916639328,0.04307767003774643
1772045917523060000,4.43706005859375,-0.0741901695728302,0.0614403560757637,0.046274296939373016
1772045917533046000,4.4470458984375,-0.08671635389328003,0.06578104197978973,0.03859800100326538
1772045917543031000,4.457031005859375,-0.09444813430309296,0.051978886127471924,0.022592538967728615
1772045917553017000,4.46701708984375,-0.10415083169937134,0.04317287728190422,0.010538272559642792
1772045917563002000,4.477002197265625,-0.10875973105430603,0.02824312075972557,0.004910321906208992
1772045917572988200,4.48698828125,-0.1091429591178894,0.020078668370842934,0.0006303559057414532
1772045917582974000,4.496973876953125,-0.10237858444452286,0.002538044238463044,0.0013465082738548517
1772045917592959200,4.506959228515625,-0.08827927708625793,-0.02574046514928341,-0.0013494095765054226
1772045917602945000,4.516945068359375,-0.07589518278837204,-0.06109379976987839,0.0031902373302727938
1772045917612930000,4.526929931640625,-0.06484093517065048,-0.07616329938173294,0.02055164985358715
1772045917622916000,4.536916015625,-0.06030404940247536,-0.08195476233959198,0.04430486634373665
1772045917632902100,4.546902099609375,-0.05796393007040024,-0.07200732082128525,0.0780859962105751
1772045917642887200,4.55688720703125,-0.061021365225315094,-0.06049220263957977,0.1090012788772583
1772045917652873000,4.566873046875,-0.06657245755195618,-0.04514307156205177,0.1307941973209381
1772045917662858000,4.57685791015625,-0.08232437819242477,-0.035578299313783646,0.14682920277118683
1772045917672844000,4.586843994140625,-0.0878637507557869,-0.03488427773118019,0.16152052581310272
1772045917682830000,4.596830078125,-0.0959935188293457,-0.029124325141310692,0.16994301974773407
1772045917692815000,4.606815185546875,-0.10041676461696625,-0.03627970814704895,0.15994179248809814
1772045917702801000,4.61680078125,-0.10055256634950638,-0.053447872400283813,0.13158771395683289
1772045917712786000,4.626785888671875,-0.08960377424955368,-0.07617128640413284,0.09535994380712509
1772045917722772200,4.636772216796875,-0.08390362560749054,-0.11441097408533096,0.06053803488612175
1772045917732757000,4.646757080078125,-0.07689258456230164,-0.1572979986667633,0.02822643704712391
1772045917742743000,4.656742919921875,-0.07231256365776062,-0.1755203753709793,0.010736281052231789
1772045917752728800,4.666728759765625,-0.07940109819173813,-0.16243359446525574,0.009485661052167416
1772045917762714000,4.676714111328125,-0.08946354687213898,-0.1425515115261078,0.0225384384393692
1772045917772700200,4.6867001953125,-0.10506728291511536,-0.12278339266777039,0.04034965857863426
1772045917782685000,4.696684814453125,-0.1186329796910286,-0.10473690927028656,0.05916649103164673
1772045917792671000,4.7066708984375,-0.12444186210632324,-0.08872838318347931,0.08093330264091492
1772045917802657000,4.716656982421875,-0.11132321506738663,-0.0798720121383667,0.11581744998693466
1772045917812642000,4.72664208984375,-0.08680295944213867,-0.07912446558475494,0.14964039623737335
1772045917822628000,4.736628173828125,-0.09777398407459259,-0.0831342488527298,0.15652170777320862
1772045917832612900,4.74661279296875,-0.09060847759246826,-0.0708291158080101,0.15741945803165436
1772045917842599200,4.75659912109375,-0.01744949072599411,-0.092427559196949,0.132304385304451
1772045917852584200,4.766584228515625,0.19080783426761627,-0.181015744805336,0.04748324304819107
1772045917862570000,4.776570068359375,0.2793181836605072,-0.30361104011535645,-0.009830432943999767
1772045917872556000,4.78655615234375,0.29460152983665466,-0.4643634557723999,-0.06458848714828491
1772045917882541000,4.796541015625,0.3088095188140869,-0.5119089484214783,-0.11664574593305588
1772045917892527000,4.806527099609375,0.31962114572525024,-0.4902752935886383,-0.15162397921085358
1772045917902512000,4.81651220703125,0.3425273299217224,-0.45186394453048706,-0.1669161319732666
1772045917912498000,4.826497802734375,0.37071847915649414,-0.42559531331062317,-0.17109888792037964
1772045917922484200,4.836484130859375,0.39657706022262573,-0.41512441635131836,-0.16630274057388306
1772045917932469200,4.84646923828125,0.4188171327114105,-0.4004429280757904,-0.16000117361545563
1772045917942455000,4.856455078125,0.42707228660583496,-0.40528348088264465,-0.14499841630458832
1772045917952440000,4.866440185546875,0.4247795343399048,-0.41319891810417175,-0.12551473081111908
1772045917962425900,4.87642578125,0.4193011224269867,-0.3972112238407135,-0.09965121746063232
1772045917972412200,4.886412109375,0.4134964942932129,-0.3593091070652008,-0.07127869129180908
1772045917982397200,4.896397216796875,0.3959954082965851,-0.32159924507141113,-0.03790225833654404
1772045917992383000,4.906383056640625,0.36520126461982727,-0.2761835753917694,-0.0011365215759724379
1772045918002368000,4.916367919921875,0.308544784784317,-0.23653161525726318,0.03881752863526344
1772045918012354000,4.92635400390625,0.24138493835926056,-0.20875324308872223,0.07102899253368378
1772045918022339000,4.936339111328125,0.18984706699848175,-0.16977235674858093,0.10053673386573792
1772045918032325000,4.9463251953125,0.14746364951133728,-0.13053201138973236,0.12209795415401459
1772045918042311000,4.956310791015625,0.10239364951848984,-0.0883212611079216,0.13940978050231934
1772045918052296200,4.966296142578125,0.05375553295016289,-0.031846530735492706,0.15856802463531494
1772045918062282000,4.976281982421875,0.036305882036685944,0.009275814518332481,0.1826745569705963
1772045918072267000,4.98626708984375,0.027457796037197113,0.04156211391091347,0.20147088170051575
1772045918082253000,4.996253173828125,-0.008102454245090485,0.03838171809911728,0.19812120497226715
1772045918092239000,5.006239013671875,-0.06247301772236824,0.026101350784301758,0.18634018301963806
1772045918102224100,5.01622412109375,-0.11393465101718903,0.03147481754422188,0.16264992952346802
1772045918112210000,5.0262099609375,-0.14738741517066956,0.044947218149900436,0.1407821774482727
1772045918122195000,5.03619482421875,-0.16578957438468933,0.061352647840976715,0.11592770367860794
1772045918132181200,5.04618115234375,-0.1790105700492859,0.08722072839736938,0.08845826238393784
1772045918142166000,5.056166015625,-0.18535803258419037,0.09308556467294693,0.05540171265602112
1772045918152152000,5.066152099609375,-0.17328804731369019,0.08286701887845993,0.010882982052862644
1772045918162138000,5.07613818359375,-0.14021089673042297,0.06866496056318283,-0.029968522489070892
1772045918172123000,5.086122802734375,-0.1030278429389,0.0516207255423069,-0.07230959087610245
1772045918182109200,5.096109130859375,-0.0794990137219429,0.041165225207805634,-0.09975587576627731
1772045918192094200,5.10609423828125,-0.08293262869119644,0.0682612955570221,-0.0932588279247284
1772045918202080000,5.116080078125,-0.09459299594163895,0.1046493723988533,-0.0682995393872261
1772045918212066000,5.126066162109375,-0.10988646745681763,0.13200883567333221,-0.05067526549100876
1772045918222051000,5.136051025390625,-0.12446123361587524,0.14631696045398712,-0.04628511518239975
1772045918232037000,5.146037109375,-0.1289643794298172,0.14611642062664032,-0.04443687945604324
1772045918242022100,5.156022216796875,-0.12710599601268768,0.13552618026733398,-0.04383499175310135
1772045918252008000,5.166008056640625,-0.1105472594499588,0.12265779078006744,-0.04072388634085655
1772045918261993000,5.175992919921875,-0.08777173608541489,0.11717072129249573,-0.03138498216867447
1772045918271979000,5.18597900390625,-0.06305014342069626,0.12615782022476196,-0.009675958193838596
1772045918281965000,5.195965087890625,-0.05574164539575577,0.12687884271144867,0.013639404438436031
1772045918291950000,5.2059501953125,-0.052174076437950134,0.12834997475147247,0.029389338567852974
1772045918301936000,5.21593603515625,-0.04537374526262283,0.1251848191022873,0.03728537634015083
1772045918311921200,5.225921142578125,-0.04614899307489395,0.12737900018692017,0.03968887776136398
1772045918321907000,5.235906982421875,-0.04783429205417633,0.1312180459499359,0.039377111941576004
1772045918331893000,5.24589306640625,-0.05043167620897293,0.1393662542104721,0.04667417332530022
1772045918341878000,5.2558779296875,-0.045286841690540314,0.1332128942012787,0.03899944946169853
1772045918351864000,5.265864013671875,-0.03898340463638306,0.12744128704071045,0.013286098837852478
1772045918361849000,5.27584912109375,-0.028306614607572556,0.08838331699371338,-0.0034986066166311502
1772045918371835000,5.2858349609375,-0.0268368162214756,0.09781889617443085,-0.003058386268094182
1772045918381820000,5.29581982421875,-0.02879403904080391,0.11253724247217178,0.0073806182481348515
1772045918391806200,5.30580615234375,-0.031105663627386093,0.12057758867740631,0.025687187910079956
1772045918401791000,5.315791015625,-0.03853137791156769,0.12682607769966125,0.0568472258746624
1772045918411777000,5.325777099609375,-0.04889000952243805,0.13704462349414825,0.08694919943809509
1772045918421762800,5.3357626953125,-0.054746173322200775,0.1713528335094452,0.10879427194595337
1772045918431748000,5.345748046875,-0.04430311918258667,0.17121276259422302,0.12692400813102722
1772045918441734400,5.355734375,-0.04049595445394516,0.15012800693511963,0.1355893313884735
1772045918451719200,5.36571923828125,-0.04297056421637535,0.14269299805164337,0.14303287863731384
1772045918461705500,5.37570556640625,-0.03739207610487938,0.1168302446603775,0.15025979280471802
1772045918471691300,5.385691162109375,-0.02692452073097229,0.09008384495973587,0.15738214552402496
1772045918481676300,5.39567626953125,-0.014419064857065678,0.09236607700586319,0.1524280458688736
1772045918491662300,5.405662353515625,-0.00007954053580760956,0.09967086464166641,0.12558364868164062
1772045918501647400,5.4156474609375,0.003623071126639843,0.08994463086128235,0.09376641362905502
1772045918511633400,5.42563330078125,0.0009316802024841309,0.10303620249032974,0.05702624097466469
1772045918521618400,5.435618408203125,-0.005361809860914946,0.07899270951747894,0.030272789299488068
1772045918531604200,5.445604248046875,-0.008556271903216839,0.0680183544754982,0.010533706285059452
1772045918541590500,5.455590576171875,-0.012898487970232964,0.08533802628517151,-0.0021083310712128878
1772045918551575300,5.4655751953125,-0.010391121730208397,0.0949360579252243,-0.0130302207544446
1772045918561561300,5.475561279296875,-0.008100342005491257,0.103128582239151,-0.03016078844666481
1772045918571546400,5.48554638671875,-0.004463795572519302,0.11417032033205032,-0.05839215964078903
1772045918581532400,5.495532470703125,0.0017213784158229828,0.10786192119121552,-0.09654468297958374
1772045918591518500,5.5055185546875,0.01705346256494522,0.08829620480537415,-0.13650541007518768
1772045918601503500,5.51550341796875,0.042758312076330185,0.058039940893650055,-0.17271608114242554
1772045918611489300,5.5254892578125,0.06127740442752838,0.03458547964692116,-0.18198680877685547
1772045918621474300,5.535474365234375,0.06531471759080887,0.022042183205485344,-0.16890710592269897
1772045918631460400,5.54546044921875,0.05601043254137039,0.020891431719064713,-0.1333102285861969
1772045918641445400,5.5554453125,0.03752472251653671,0.03605499118566513,-0.0843537449836731
1772045918651431400,5.565431396484375,0.018279122188687325,0.05719036981463432,-0.04125181958079338
1772045918661417500,5.57541748046875,0.0015040114521980286,0.0578816756606102,-0.013241940177977085
1772045918671402500,5.585402587890625,-0.004672124981880188,0.04652382805943489,-0.0018657154869288206
1772045918681388300,5.59538818359375,-0.0019441237673163414,0.03020341508090496,0.0063811480067670345
1772045918691373300,5.605373291015625,0.00576492864638567,0.008694926276803017,0.012496298179030418
1772045918701359400,5.615359375,0.007419709116220474,-0.010705013759434223,0.02886154316365719
1772045918711344400,5.625344482421875,0.007543280720710754,-0.024875428527593613,0.038959719240665436
1772045918721330400,5.635330322265625,0.006992521695792675,-0.023847272619605064,0.055830031633377075
1772045918731316200,5.645316162109375,0.006808762438595295,-0.017046622931957245,0.06173825263977051
1772045918741301200,5.65530126953125,0.0026476318016648293,-0.011680266819894314,0.054994966834783554
1772045918751287600,5.66528759765625,0.005651145242154598,-0.014460873790085316,0.0385960191488266
1772045918761272300,5.675272216796875,0.010423154570162296,-0.0201061200350523,0.01748659461736679
1772045918771258400,5.68525830078125,0.012537172995507717,-0.018344173207879066,-0.009120247326791286
1772045918781244200,5.695244140625,0.01649061217904091,-0.02779608964920044,-0.03714577108621597
1772045918791229400,5.7052294921875,0.014036775566637516,-0.030276024714112282,-0.05108661949634552
1772045918801215500,5.715215576171875,0.013533459976315498,-0.02457980439066887,-0.04613752290606499
1772045918811200300,5.7252001953125,0.009405825287103653,-0.008498572744429111,-0.031678155064582825
1772045918821186300,5.735186279296875,0.005460279993712902,0.008883382193744183,-0.018147818744182587
1772045918831172400,5.74517236328125,0.001933455467224121,0.019204195588827133,-0.014114459045231342
1772045918841157400,5.755157470703125,-0.0010946821421384811,0.017190266400575638,-0.01823965646326542
1772045918851143400,5.765143310546875,-0.004890752024948597,0.01768295094370842,-0.021581390872597694
1772045918861128400,5.77512841796875,-0.00697020348161459,0.01907908171415329,-0.0278924573212862
1772045918871114500,5.785114501953125,-0.005374171305447817,0.007906854152679443,-0.035315483808517456
1772045918881099500,5.795099609375,-0.004316256381571293,-0.006659427657723427,-0.046371717005968094
1772045918891085300,5.805085205078125,0.007323089987039566,-0.017531516030430794,-0.048356570303440094
1772045918901071400,5.8150712890625,0.010999636724591255,-0.016464408487081528,-0.042708832770586014
1772045918911056400,5.825056396484375,0.006270395591855049,-0.006753991357982159,-0.02487524226307869
1772045918921042400,5.83504248046875,0.001066974364221096,0.005756871309131384,-0.0055092452093958855
1772045918931027500,5.84502734375,-0.004593574441969395,0.018599966540932655,0.006728246808052063
1772045918941013200,5.85501318359375,-0.009497963823378086,0.02388135902583599,0.0005184912588447332
1772045918950998300,5.864998291015625,-0.019350063055753708,0.030634069815278053,-0.01098742987960577
1772045918960984600,5.874984619140625,-0.019866755232214928,0.03898095339536667,-0.02934948354959488
1772045918970970400,5.884970458984375,-0.01740945503115654,0.028915535658597946,-0.049597498029470444
1772045918980955400,5.894955322265625,-0.01924600638449192,0.015294990502297878,-0.06596916913986206
1772045918990941200,5.904941162109375,-0.017717884853482246,-0.003888024715706706,-0.0727945864200592
1772045919000926500,5.914926513671875,-0.01525747962296009,-0.006359145976603031,-0.06646698713302612
1772045919010912500,5.92491259765625,-0.014418317936360836,0.0034095952287316322,-0.06138753518462181
1772045919020898300,5.934898193359375,0.0005563171580433846,0.0002852763864211738,-0.04586334899067879
1772045919030883300,5.94488330078125,0.005738561972975731,0.009986905381083488,-0.017825588583946228
1772045919040869400,5.954869384765625,0.00571109913289547,0.01658010110259056,0.0008084536530077457
1772045919050854400,5.9648544921875,0.006012570112943649,0.016711395233869553,0.01047626044601202
1772045919060840400,5.97484033203125,-0.000416535884141922,0.02396690472960472,0.01586765982210636
1772045919070825200,5.9848251953125,-0.001824815757572651,0.023432141169905663,0.013852979056537151
1772045919080811500,5.9948115234375,-0.0018841279670596123,0.02128828689455986,0.01394264679402113
1772045919090797300,6.00479736328125,-0.004951557144522667,0.01599791646003723,0.005337974056601524
1772045919100782300,6.0147822265625,-0.0036674747243523598,0.008707086555659771,-0.003521563718095422
1772045919110768400,6.024768310546875,0.003318263217806816,0.00350273703224957,-0.00410479586571455
1772045919120753400,6.03475341796875,0.005857533775269985,0.009768377058207989,0.002758729737251997
1772045919130739500,6.044739501953125,0.004712906666100025,0.014308268204331398,0.013309374451637268
1772045919140725200,6.054725341796875,0.009849595837295055,0.016418466344475746,0.012140764854848385
1772045919150710300,6.064710205078125,0.012693052180111408,0.012911883182823658,0.017530737444758415
1772045919160696300,6.0746962890625,0.016125991940498352,0.011442051269114017,0.011958500370383263
1772045919170681600,6.084681640625,0.015473250299692154,0.008781020529568195,0.003205488668754697
1772045919180667400,6.09466748046875,0.016172384843230247,0.0085970563814044,-0.012427497655153275
1772045919190652400,6.10465234375,0.017070936039090157,0.004697923082858324,-0.024278298020362854
1772045919200638200,6.11463818359375,0.011718405410647392,0.0019304067827761173,-0.03265734389424324
1772045919210624500,6.12462451171875,0.01555495522916317,-0.001072307350113988,-0.03132842481136322
1772045919220609500,6.134609619140625,0.01998554915189743,-0.003308254759758711,-0.02439323626458645
1772045919230595300,6.14459521484375,0.020010851323604584,-0.000761740084271878,-0.018131345510482788
1772045919240580400,6.154580322265625,0.020544495433568954,0.0018059143330901861,-0.012628894299268723
1772045919250566400,6.16456640625,0.02431020513176918,-0.007584124803543091,-0.01585451513528824
1772045919260552400,6.174552490234375,0.026043634861707687,-0.006723029538989067,-0.01095411367714405
1772045919270537500,6.184537353515625,0.026169072836637497,0.0012142558116465807,-0.011854262091219425
1772045919280523300,6.194523193359375,0.027473412454128265,0.00512311514467001,-0.012198278680443764
1772045919290508300,6.20450830078125,0.02450691908597946,0.009686442092061043,-0.01909480057656765
1772045919300494300,6.214494384765625,0.019952906295657158,0.004891658201813698,-0.028266528621315956
1772045919310479400,6.224479248046875,0.012580476701259613,0.003458078484982252,-0.031635962426662445
1772045919320465400,6.23446533203125,0.01048887800425291,0.006554166320711374,-0.03144802898168564
1772045919330451500,6.244451416015625,0.01150460820645094,0.006956569850444794,-0.03430613502860069
1772045919340436500,6.2544365234375,0.012330240570008755,0.008973279967904091,-0.030588453635573387
1772045919350422300,6.26442236328125,0.016442429274320602,0.014364848844707012,-0.027935678139328957
1772045919360407300,6.2744072265625,0.019237371161580086,0.01816192828118801,-0.022565456107258797
1772045919370393300,6.284393310546875,0.008778071030974388,0.036719899624586105,-0.008819284848868847
1772045919380378400,6.29437841796875,-0.001132408156991005,0.05589769035577774,0.0013828472001478076
1772045919390364400,6.304364501953125,-0.017576629295945168,0.07588470727205276,0.015458186157047749
1772045919400350200,6.31435009765625,-0.03414866700768471,0.10476668179035187,0.023670988157391548
1772045919410335200,6.324335205078125,-0.04133866727352142,0.11461877822875977,0.0288590919226408
1772045919420321500,6.334321533203125,-0.050309546291828156,0.14778560400009155,0.06517866998910904
1772045919430306600,6.344306640625,-0.060066305100917816,0.1382935643196106,0.11687462031841278
1772045919440292400,6.354292236328125,-0.06608697772026062,0.08817566186189651,0.14919495582580566
1772045919450278400,6.3642783203125,-0.06388001888990402,0.0720805823802948,0.17030158638954163
1772045919460263400,6.374263427734375,-0.06025369465351105,0.0705161839723587,0.1913047879934311
1772045919470249500,6.38424951171875,-0.05211054906249046,0.049999985843896866,0.1933511644601822
1772045919480234500,6.394234375,-0.047222353518009186,0.013840493746101856,0.1852184385061264
1772045919490220300,6.40422021484375,-0.055640339851379395,-0.03014533780515194,0.18485517799854279
1772045919500205300,6.414205322265625,-0.07019689679145813,-0.06555908173322678,0.19004575908184052
1772045919510191400,6.42419140625,-0.07467126846313477,-0.10391818732023239,0.17823809385299683
1772045919520177400,6.434177490234375,-0.05880695581436157,-0.12505759298801422,0.14532184600830078
1772045919530162400,6.444162353515625,-0.04814339429140091,-0.1293679177761078,0.12090466171503067
1772045919540148500,6.4541484375,-0.019658654928207397,-0.1527787446975708,0.08644703775644302
1772045919550133500,6.464133544921875,-0.006753509398549795,-0.1610981971025467,0.045595478266477585
1772045919560119300,6.474119384765625,-0.007019595708698034,-0.1582116037607193,0.027623038738965988
1772045919570105300,6.484105224609375,-0.01807890459895134,-0.138678640127182,0.015279287472367287
1772045919580090400,6.49409033203125,-0.02459881827235222,-0.1204032301902771,-0.006478910334408283
1772045919590076400,6.504076416015625,-0.030361101031303406,-0.10387005656957626,-0.01923438534140587
1772045919600061400,6.5140615234375,-0.032026924192905426,-0.04825490713119507,-0.010658289305865765
1772045919610047200,6.524047119140625,-0.033519893884658813,-0.01357602421194315,-0.009064121171832085
1772045919620032300,6.5340322265625,-0.031641885638237,-0.000006052447133697569,-0.013259305618703365
1772045919630018600,6.5440185546875,-0.028729986399412155,0.01381602045148611,-0.027428388595581055
