time,seconds_elapsed,z,y,x
1772045790551814000,0.07281396484375,-0.04272212039530277,0.04465155408792197,0.09970284857191145
1772045790561800000,0.082800048828125,-0.18297347165048122,0.1344539900880307,0.024098083946108816
1772045790571786000,0.092785888671875,-0.25196926646530626,0.21784275965355335,0.04745579785369336
1772045790581771000,0.10277099609375,-0.21918460271656512,0.375210300078243,-0.05859188970029354
1772045790591756800,0.1127568359375,-0.18738193574249742,0.1843829731222242,-0.02297989357113838
1772045790601743000,0.1227431640625,-0.1948117934823036,0.006832184107601642,0.06263130128420889
1772045790611728000,0.132727783203125,-0.20995967825353146,-0.032353505789861084,0.05097454656437039
1772045790621714000,0.1427138671875,-0.16498539501726625,0.0214165167119354,0.02799194957949221
1772045790631699700,0.15269970703125,-0.11619126123189925,0.05564480339772999,0.04335705729797482
1772045790641685000,0.16268505859375,-0.05221767849326133,-0.0008580781340599059,-0.00007613397613167763
1772045790651671000,0.172671142578125,0.0040378772139549254,-0.13325089790858327,-0.0684330463655293
1772045790661656800,0.18265673828125,0.10587737248837947,-0.27468532146848734,-0.15590923137515783
1772045790671643100,0.19264306640625,0.2517483171910047,-0.24444077065661549,-0.07296031453162431
1772045790681628000,0.2026279296875,0.323225991949439,-0.0365594330471009,0.22762612171694635
1772045790691614000,0.212614013671875,0.3827051858782768,0.0974713631927967,0.5071671395882964
1772045790701599700,0.222599853515625,0.4092752128958702,0.14870003064870835,0.656704936235398
1772045790711584800,0.232584716796875,0.42036885384023187,0.12807736772820352,0.6395639779508113
1772045790721571000,0.242571044921875,0.3362023779004812,0.08305873389355838,0.46699550739340484
1772045790731556900,0.252556884765625,0.22051555905938147,0.08538907653726636,0.29352957653962075
1772045790741543000,0.26254296875,0.12117021868824958,0.11489530313722789,0.1048345854371786
1772045790751528000,0.27252783203125,0.026658874344825743,0.10723711653426289,-0.02537044196948409
1772045790761514000,0.282513916015625,-0.04916238257586956,0.11423574324995278,-0.08586027424558997
1772045790771499800,0.292499755859375,-0.0824134947925806,0.1339160107538104,-0.09229381442442536
1772045790781484800,0.30248486328125,-0.08401391572654247,0.17487850106544792,-0.0661377750352025
1772045790791471000,0.31247119140625,-0.09536825343370436,0.23098412690795958,-0.004451426450908184
1772045790801457000,0.322456787109375,-0.11437748980820178,0.23719459892064332,0.00830737122669816
1772045790811443000,0.33244287109375,-0.14540449623465537,0.21984854651801286,-0.0011645137347280979
1772045790821427700,0.342427734375,-0.13442951323390007,0.11968071078285575,-0.026466712773591278
1772045790831414000,0.3524140625,-0.09653203651607035,0.022667028229683635,-0.02545212890356779
1772045790841399800,0.36239990234375,-0.04493512026965618,0.04362045747451484,0.024766046335548162
1772045790851384800,0.372384765625,0.021333879929780957,0.11409779608398675,0.11240312099531292
1772045790861371000,0.382370849609375,0.15749942317605017,0.15130809425525366,0.16021467348411678
1772045790871357000,0.39235693359375,0.2620499309748411,0.12743139797486364,0.13433876621052623
1772045790881343000,0.402343017578125,0.30663316906690596,0.05240889021642506,0.12574249503985047
1772045790891327700,0.41232763671875,0.3028741087943315,-0.04015263523347676,0.1348255268141627
1772045790901314000,0.42231396484375,0.23366905514299868,-0.07680442273914813,0.0940675460986793
1772045790911299800,0.4322998046875,0.13264321433901785,-0.055802916568890214,0.07291019177958369
1772045790921284900,0.442284912109375,0.07887596831619739,-0.019373685772717,0.06632043812572956
1772045790931271000,0.45227099609375,0.07521744580864906,0.06179404674246907,0.015827683728933332
1772045790941257000,0.462257080078125,0.0292968216329813,0.09794745627194643,-0.031957857535779476
1772045790951242000,0.472241943359375,-0.01856324617266655,0.09846431975290179,-0.04341287913843989
1772045790961227800,0.482227783203125,-0.08907645981311797,0.062305138069763774,-0.05611833919361233
1772045790971213800,0.4922138671875,-0.09803951846957207,0.026007351633533835,-0.09475698966756463
1772045790981200000,0.502199951171875,-0.04229951106905937,-0.016962386847287417,-0.07058788631185889
1772045790991185000,0.512184814453125,0.09727145670652389,-0.04430756295584142,0.039897710624337196
1772045791001171000,0.5221708984375,0.3090530896902084,-0.012893749168887733,0.2004493609778583
1772045791011157000,0.532156982421875,0.42687458247244353,-0.040093014000728726,0.31797727764099837
1772045791021142000,0.54214208984375,0.39004619629085063,-0.10150273760072887,0.35045331383198497
1772045791031127800,0.5521279296875,0.2652987036377191,-0.1899213910922408,0.31452567588239905
1772045791041113900,0.56211376953125,0.11272095477283,-0.2601866943862289,0.263233441670984
1772045791051100000,0.572099853515625,0.047827919101715084,-0.2310308155938983,0.2072819834768772
1772045791061085000,0.5820849609375,0.054985389640927314,-0.09694690092727541,0.15047902301996946
1772045791071071000,0.592071044921875,0.08117956908345222,0.02334894607923925,0.15899010012522338
1772045791081056800,0.602056884765625,0.07688099510669708,0.06989435108974576,0.15129326201230286
1772045791091041800,0.612041748046875,-0.04741816925704479,0.09471841122284531,0.10181026917994022
1772045791101027800,0.62202783203125,-0.28901801739931104,0.2094955678731203,0.004895663087069988
1772045791111014000,0.632013916015625,-0.5816407812923192,0.3532113803684711,-0.10426423820331691
1772045791120999000,0.6419990234375,-0.7948194215923547,0.46049613543674345,-0.17582666863575577
1772045791130985000,0.65198486328125,-0.8282803771674633,0.5097137553311885,-0.2669591841958463
1772045791140971000,0.661970947265625,-0.704175858592987,0.45819319225661453,-0.3292415989771485
1772045791150956800,0.671956787109375,-0.5701870748639106,0.3209696643900126,-0.31034137593507766
1772045791160941800,0.68194189453125,-0.4360708653628826,0.21034480511359868,-0.21088205379545688
1772045791170928000,0.69192822265625,-0.34135552287995813,0.11519129040911794,-0.07303060328885913
1772045791180914000,0.701913818359375,-0.2957552166998386,0.00614573621340096,0.05164265508428216
1772045791190899000,0.71189892578125,-0.15047171649634838,-0.07015563237443566,0.16052140134572981
1772045791200884700,0.721884765625,0.007091419565677643,-0.0557738366048783,0.257108821310848
1772045791210871000,0.73187109375,0.15464169565737246,-0.00532462908886373,0.32973800419196486
1772045791220856800,0.74185693359375,0.28328853383660313,0.10432137521803378,0.4015643462575972
1772045791230841900,0.751841796875,0.3994558296710253,0.209670486048609,0.4328852210640907
1772045791240828000,0.761827880859375,0.4409533767074346,0.2763354267630726,0.4062272235020995
1772045791250814000,0.77181396484375,0.43445641590356826,0.22386304285638034,0.2586434835322201
1772045791260799000,0.781799072265625,0.3660574179381132,0.1308045276697725,0.06349222896248102
1772045791270784800,0.79178466796875,0.3069797905474901,0.059645344275981185,-0.06801686678007245
1772045791280771000,0.80177099609375,0.24399872597754,0.0026386779405176636,-0.14396686464697123
1772045791290756000,0.811756103515625,0.2452402504712343,-0.03658084116131067,-0.12915771031081677
1772045791300742000,0.821741943359375,0.28879239194989204,-0.007838365475460886,0.009623568391799927
1772045791310728000,0.83172802734375,0.20741993064284323,0.012775456551462411,0.151251030305773
1772045791320714200,0.84171435546875,0.019243629652261732,-0.00931406405121088,0.22470395065993068
1772045791330699300,0.85169921875,-0.11370061345994471,-0.015789762871339916,0.2726866219319403
1772045791340685300,0.861685302734375,-0.10431026930212974,-0.004798705518618226,0.24110139710083603
1772045791350671400,0.87167138671875,-0.12948796517848968,-0.029591274534910915,0.20256386891379952
1772045791360656400,0.881656494140625,-0.1667535737335682,0.004089169009774923,0.06723185388222336
1772045791370642200,0.89164208984375,-0.07494739669561386,0.037667102028056974,-0.037619828820228574
1772045791380628200,0.901628173828125,0.09549918633699417,0.06597191694900394,-0.10017039301842451
1772045791390614300,0.9116142578125,0.23854046057164668,0.0942572234518826,-0.15408493855744598
1772045791400599300,0.921599365234375,0.27110885122120376,0.071432520442456,-0.15785203600600362
1772045791410585300,0.93158544921875,0.18039280750751494,0.05177366105280816,-0.12907470820248126
1772045791420571400,0.9415712890625,0.0389648136883974,0.009546996024250983,-0.09586290508285164
1772045791430556400,0.951556396484375,-0.0908352861791849,-0.0031599253356456754,-0.013685118742287158
1772045791440542200,0.961542236328125,-0.217263863787055,-0.043417555313557385,0.0681003072798252
1772045791450528300,0.9715283203125,-0.2753290992647409,-0.07854702862277627,0.05479936554953456
1772045791460513300,0.98151318359375,-0.22740064239799976,-0.09262341170497237,0.019965514186024665
1772045791470499300,0.991499267578125,-0.10654548100829124,-0.05961217265874147,0.00652925563827157
1772045791480485000,1.001485107421875,0.05713935280442237,0.013692133004963396,0.022534049499779937
1772045791490471400,1.011471435546875,0.1414689103513956,-0.0332501623686403,0.07433598679900169
1772045791500456400,1.02145654296875,0.24971242744922637,-0.0795389622695744,-0.052303164819628
1772045791510442200,1.031442138671875,0.11846972755789756,-0.1482353357464075,0.015354805520176887
1772045791520428300,1.04142822265625,-0.0022001403927803037,-0.1604046430982649,0.2354056696772575
1772045791530413300,1.051413330078125,0.029545827957987783,0.05806815808713436,0.3349528162308037
1772045791540399400,1.0613994140625,0.10681962177455424,0.24721505767554044,0.22617402321249244
1772045791550385200,1.07138525390625,0.20154431660771369,0.2506441553413868,0.027051380793750284
1772045791560370200,1.0813701171875,0.22157821985483167,0.09769764622934161,-0.15000658320263027
1772045791570356500,1.0913564453125,0.2317342876881361,0.0031132366497069594,-0.32626755160242316
1772045791580342300,1.10134228515625,0.22529168742001054,-0.025486981021240352,-0.4207660364642739
1772045791590328300,1.111328369140625,0.07339666012227535,-0.002555164375528693,-0.4510296573027968
1772045791600313000,1.12131298828125,-0.13465221607387065,0.0716761930052191,-0.4087378911487758
1772045791610299400,1.13129931640625,-0.30299568934738635,0.16769852643348276,-0.27786417070031166
1772045791620285200,1.14128515625,-0.38788814147412776,0.20140213165804743,-0.1552089741513133
1772045791630270200,1.151270263671875,-0.36041152100563045,0.1601560020994395,-0.06831248872578144
1772045791640256500,1.161256591796875,-0.3196194918900728,0.0633159225475043,-0.033916151996701956
1772045791650242300,1.1712421875,-0.3022451632410288,-0.0009585428338497877,-0.027069354841858146
1772045791660228400,1.181228271484375,-0.2684334945321083,-0.019117957445979116,-0.06686506639644503
1772045791670213000,1.191213134765625,-0.1965852328956127,0.010612287168204783,-0.075176529276371
1772045791680199400,1.201199462890625,-0.09047989687025547,0.03342793008834123,-0.03166106654629111
1772045791690185200,1.211185302734375,0.049157706400752066,0.02205751802921295,0.0676169076770544
1772045791700170200,1.221170166015625,0.21410393845140932,0.02252447795383632,0.16724413372948765
1772045791710156300,1.23115625,0.35954292147755623,0.03316759865172207,0.248068167373538
1772045791720142300,1.241142333984375,0.38661563732028004,-0.0013736264407634734,0.2884836182616651
1772045791730127400,1.25112744140625,0.21961773343682287,-0.01709419653341174,0.23791049210503695
1772045791740113200,1.261113037109375,-0.04630114792585373,0.004916559744626283,-0.005908347260951996
1772045791750099200,1.27109912109375,-0.12499123828113079,0.011426160834357142,-0.36554683806747196
1772045791760085200,1.281085205078125,-0.16771861937344074,0.0026574557062238454,-0.13642857809662817
1772045791770070300,1.2910703125,-0.09104688310325146,0.007135916294530034,0.027138620685786007
1772045791780056300,1.301056396484375,-0.02237199080586433,-0.0701478143941611,0.17747326679900288
1772045791790042400,1.31104248046875,0.16286416507959364,-0.15491108718328178,0.23981544894352555
1772045791800027400,1.32102734375,0.30103344936370846,-0.20305786297582087,0.2030876005269587
1772045791810013200,1.33101318359375,0.3652209671139717,-0.21726196409091353,0.15229995483681558
1772045791819999200,1.340999267578125,0.37594109857082364,-0.24458902002088725,0.11746259634196758
1772045791829984300,1.350984375,0.33456688565313814,-0.17182283982187507,0.34759733987897634
1772045791839970300,1.36097021484375,0.3174041539281606,-0.11869484155066311,0.39282501335442066
1772045791849956400,1.370956298828125,0.2087766059488058,-0.19360205236636102,0.41929187225848435
1772045791859942100,1.380942138671875,0.1577209569722414,-0.2721065570216626,0.35313889965414996
1772045791869927400,1.390927490234375,0.14677636910974978,-0.35730800203233953,0.27598668639063834
1772045791879913200,1.400913330078125,0.04994096573293209,-0.41208997805565595,0.15104600925296544
1772045791889899300,1.410899169921875,-0.10622983918786048,-0.32549970903508363,0.10541355436891317
1772045791899884300,1.42088427734375,-0.2015308726042509,-0.17491159961745142,0.12291399361565708
1772045791909870300,1.430870361328125,-0.21140695445239543,-0.06546981264576315,0.22710078266859055
1772045791919856400,1.4408564453125,-0.13616437420248984,-0.01453844763599336,0.3290167041800916
1772045791929841200,1.450841064453125,0.4522305575251579,0.007701222027093171,0.5982361614581198
1772045791939827200,1.4608271484375,0.8991133242815732,-0.2579832660578191,0.4456606776155531
1772045791949813200,1.470813232421875,1.0401508574783802,-0.14735058880113064,0.06170775669850408
1772045791959799300,1.48079931640625,0.8802589862078428,0.23667883141823112,-0.49779871500134465
1772045791969784300,1.490784423828125,0.4167027325481176,0.032194004379212854,-0.6726575615182518
1772045791979770000,1.50077001953125,0.0911579422622919,-0.3076617814622819,-0.5043307471185923
1772045791989756400,1.51075634765625,-0.10699556286334991,-0.668659577923268,-0.09764679282493889
1772045791999741400,1.520741455078125,-0.20968612200915812,-0.6766231772135943,0.1734653463318944
1772045792009727200,1.530727294921875,-0.23786066161394118,-0.5476379008602351,0.35062107161432504
1772045792019713300,1.54071337890625,-0.23704291549026965,-0.1367149938225746,0.18775924462229013
1772045792029698300,1.5506982421875,-0.2916121255457401,-0.2007235748093575,0.21432086913771925
1772045792039684400,1.560684326171875,-0.29568156694173814,-0.02729417657367885,0.005726853214204311
1772045792049670100,1.570670166015625,-0.2554460026651621,-0.31278584647774693,0.09066380206979811
1772045792059656400,1.580656494140625,-0.23177228161096572,-0.26594028947688636,0.08210318673439324
1772045792069641500,1.590641357421875,-0.2289233219206333,-0.35198439585678276,0.07796352964639663
1772045792079627300,1.600627197265625,-0.1983674401372671,-0.018887875017151234,-0.09568111877515911
1772045792089613300,1.61061328125,-0.1888870796084404,-0.18215872120149432,-0.19898937142789364
1772045792099598300,1.620598388671875,-0.16803309215009213,-0.5003554137468338,-0.23632453808784484
1772045792109584400,1.63058447265625,-0.13360299928188324,-0.6915185485284775,-0.010943857210129498
1772045792119570200,1.640570068359375,-0.06898702698647975,-0.5543737119212746,0.1503606573373079
1772045792129555200,1.65055517578125,-0.02914601498544216,-0.3292263283427804,0.20404614336080848
1772045792139541500,1.66054150390625,-0.04378887284398079,-0.14040047740228473,0.17208412110656499
1772045792149527300,1.67052734375,-0.0744312638670206,0.012454407903552055,0.0787511728927493
1772045792159513300,1.680513427734375,-0.05229834251403808,-0.032953006052970885,0.12982121572084723
1772045792169498000,1.690498046875,0.03933189343512058,-0.3918066300921142,0.36415209577344354
1772045792179484400,1.700484375,0.08976093494594097,-0.21033501437194643,0.20486228204928336
1772045792189470200,1.71047021484375,0.13701309998631478,-0.17361783347986637,0.16419271026961504
1772045792199455200,1.720455322265625,0.1153437044918537,-0.13063077853806315,0.2177573463924229
1772045792209441300,1.730441162109375,0.1475549522668123,-0.10992511350922286,0.19187435179091988
1772045792219427300,1.74042724609375,0.1624701973259449,-0.17656046280302107,0.08584390763267874
1772045792229412400,1.750412353515625,0.18964754258692262,-0.20857786850631235,-0.01570953724198043
1772045792239398100,1.760398193359375,0.18944646705687046,-0.2435754590641707,-0.09652378014437854
1772045792249384400,1.770384521484375,0.202159233635664,-0.24746830178424714,-0.0664098699748516
1772045792259370200,1.780370361328125,0.13937456842064858,-0.2396152501963079,-0.04263290774188935
1772045792269355300,1.790355224609375,0.13206336862444876,-0.21733977856747805,-0.0023134645741432905
1772045792279341300,1.80034130859375,0.0634340690344572,-0.2206663657069206,0.0041288434330374
1772045792289327400,1.810327392578125,0.04254968643784523,-0.17794899455197155,0.04305668611191213
1772045792299312400,1.8203125,0.08828969334959984,-0.13150704991593956,0.09655220252126455
1772045792309298200,1.830298095703125,0.21872984468638895,-0.10896101771742105,0.10013963255397974
1772045792319284500,1.840284423828125,0.33639702368974683,-0.1899780897155404,0.014226970534026622
1772045792329269500,1.85026953125,0.3385591701596975,-0.21759382639378308,-0.10830635320097208
1772045792339255300,1.86025537109375,0.3039782706439495,-0.2123668855257332,-0.13588409595638512
1772045792349241600,1.87024169921875,0.2986667202323675,-0.17486337656155226,-0.0994371833730489
1772045792359227400,1.880227294921875,0.23720833518505094,-0.17073285262808202,-0.044597631943598386
1772045792369212400,1.89021240234375,0.17987901276648044,-0.14334946340098975,-0.004742883678153157
1772045792379198200,1.9001982421875,0.16551847898066044,-0.1326050742857158,-0.01679404454305768
1772045792389184500,1.9101845703125,0.1718336534768343,-0.20710618851855395,-0.06935673708170652
1772045792399169500,1.92016943359375,0.14755904392004013,-0.3032718759402633,-0.15980010133385658
1772045792409155300,1.9301552734375,0.05218552978932857,-0.30112616914846,-0.22877551094777882
1772045792419141600,1.9401416015625,-0.006796820533275604,-0.2680533361081034,-0.24152393336184322
1772045792429126400,1.95012646484375,-0.02093698956668377,-0.24701931590773163,-0.22205745473913846
1772045792439112400,1.960112548828125,-0.007886369335651398,-0.23449564216025173,-0.21987126980647442
1772045792449098200,1.97009814453125,-0.038273908814787864,-0.20159524307735263,-0.2177398838009685
1772045792459084500,1.98008447265625,-0.026764672806859013,-0.19377718973755836,-0.18215601778775453
1772045792469069600,1.990069580078125,0.06005319442451,-0.15963387792147696,-0.13381656896732746
1772045792479055400,2.000055419921875,0.16496844388246534,-0.14363580606169998,-0.15487944993600247
1772045792489041400,2.01004150390625,0.23091186538934708,-0.18081475924663246,-0.19500841203294694
1772045792499026200,2.020026123046875,0.26773323730826376,-0.20637210209034382,-0.198437071307376
1772045792509012500,2.030012451171875,0.2706973478108644,-0.2560291363153607,-0.2469888477042317
1772045792518998300,2.039998291015625,0.23180676840245723,-0.3252347744885832,-0.37613311401158567
1772045792528983300,2.0499833984375,0.21072715549468993,-0.39874242070466276,-0.5553579737182707
1772045792538969600,2.059969482421875,0.22291969759166239,-0.4523810719117522,-0.7077518904488533
1772045792548955400,2.069955322265625,0.24112638541162013,-0.44401839030124246,-0.7473228533368558
1772045792558941400,2.07994140625,0.2675315772563219,-0.37493908192142844,-0.6489074872922151
1772045792568926200,2.08992626953125,0.28601532845199107,-0.27178485078662634,-0.4890267950028181
1772045792578912500,2.09991259765625,0.2879343138158321,-0.241946323492378,-0.3289064487386495
1772045792588898300,2.109898193359375,0.2643687293112278,-0.24103074301742017,-0.19850604489035903
1772045792598883300,2.11988330078125,0.22722762391865253,-0.20082791196666658,-0.029751214336976407
1772045792608869400,2.129869384765625,0.1363280403316021,-0.0844110983505845,0.1389507900506258
1772045792618855400,2.13985546875,0.060899582120776174,-0.02324877364039421,0.29923078385591506
1772045792628840400,2.14984033203125,0.07029927862882614,-0.04610007239580154,0.37839784407317634
1772045792638826500,2.159826416015625,0.18260054668486117,-0.13646883704178034,0.32744477868825195
1772045792648812500,2.1698125,0.3076788787275553,-0.24045732704363762,0.1965452662114054
1772045792658798300,2.17979833984375,0.38462475576400756,-0.3343470323573798,0.04368870040513575
1772045792668783400,2.189783447265625,0.41313188832402226,-0.3919032953996211,-0.06814078542068601
1772045792678769400,2.199769287109375,0.4172527676463127,-0.43777138567045326,-0.15583572774752974
1772045792688755500,2.20975537109375,0.37592823908925055,-0.49907574919983744,-0.22911256088241932
1772045792698740500,2.219740478515625,0.29892098725438115,-0.4996218387752771,-0.27530089608356356
1772045792708726500,2.2297265625,0.2307055291622877,-0.4899006552278995,-0.28817937461808324
1772045792718712300,2.23971240234375,0.1970779848486185,-0.5107860607378184,-0.3156479579105973
1772045792728697300,2.249697265625,0.17780805171132086,-0.53236828940548,-0.34278058724701405
1772045792738683400,2.259683349609375,0.13562369145452977,-0.5359869182940572,-0.390557506813854
1772045792748669400,2.26966943359375,0.03763151925802231,-0.5715555136729031,-0.47372094319090247
1772045792758654500,2.279654541015625,-0.12819558728039263,-0.5174501948021352,-0.4929740713238716
1772045792768640500,2.289640625,-0.2785205887824297,-0.5413508564800024,-0.508270132394135
1772045792778626600,2.29962646484375,-0.3498965567320585,-0.5222194550305604,-0.46002194205373526
1772045792788612400,2.3096123046875,-0.34935879659354685,-0.4443879542659968,-0.3926458573952317
1772045792798597400,2.319597412109375,-0.2490261987507343,-0.36183578165508806,-0.3011132366016507
1772045792808583400,2.32958349609375,-0.11586392897367477,-0.2698958221696317,-0.21686463533639908
1772045792818569500,2.339569580078125,-0.004510755422711372,-0.177619908728078,-0.1069286351069808
1772045792828554500,2.349554443359375,0.08462357205748558,-0.15424458609856664,0.006231295605003833
1772045792838540300,2.359540283203125,0.1471679987758398,-0.1346255472626537,0.0067936056628823275
1772045792848526600,2.369526611328125,0.15922960796952246,-0.068799614655599,-0.003899345526099205
1772045792858511400,2.379511474609375,0.13776830226778983,0.0036525311581790446,-0.021597937693446874
1772045792868497400,2.389497314453125,0.08918576540648937,0.051590559570863836,-0.07815466830432415
1772045792878483500,2.3994833984375,-0.014630582898855209,0.1027607017725706,-0.15622662676125765
1772045792888468500,2.409468505859375,-0.18143267194926738,0.17022738732397555,-0.23325682108029722
1772045792898454500,2.41945458984375,-0.3936199631243944,0.21578867666795848,-0.3147568542897701
1772045792908440300,2.4294404296875,-0.6386036084860562,0.21133220871575176,-0.3624215456537902
1772045792918426600,2.439426513671875,-0.7832476417422294,0.20662863413468002,-0.3499545705296099
1772045792928411400,2.449411376953125,-0.723437608423829,0.22221673695407806,-0.2982765518710017
1772045792938397400,2.4593974609375,-0.49644496230483054,0.25259024790786205,-0.19915230690464375
1772045792948383200,2.46938330078125,-0.24262919119000434,0.26889132130220533,-0.08837254932746291
1772045792958368300,2.4793681640625,-0.0011199439406394957,0.2981219458311796,-0.03755407010763883
1772045792968354600,2.4893544921875,0.2252858422011137,0.3205476395856589,0.027974048596620556
1772045792978340400,2.49934033203125,0.4074164332866668,0.3564287349797785,0.06646613020673393
1772045792988325400,2.509325439453125,0.5164075538814068,0.3696462362103164,0.12493570870161055
1772045792998311400,2.5193115234375,0.5573977359175681,0.34895386905446646,0.12509718287363647
1772045793008297500,2.52929736328125,0.4898702600896358,0.2956798133760691,0.14721169178709387
1772045793018283300,2.539283203125,0.33726854582726956,0.24111834823563694,0.1351034669727087
1772045793028268300,2.549268310546875,0.10324351685345172,0.24101876031868158,0.1035727488078177
1772045793038254600,2.559254638671875,-0.2000321584790945,0.19878763831071555,0.07837532531768084
1772045793048240400,2.569240478515625,-0.37639936373233795,0.11579495539069175,0.053434799198061225
1772045793058225400,2.579225341796875,-0.3610954116165638,0.14184110466465352,0.04339139795899391
1772045793068211200,2.589211181640625,-0.22714520633220672,0.18948709132820366,0.07420753811374306
1772045793078197500,2.599197509765625,-0.06539163284301758,0.2435178836580366,0.13978373374342917
1772045793088182500,2.6091826171875,0.1024555813461542,0.27694544842019675,0.1945160254061222
1772045793098168300,2.619168212890625,0.226204710611701,0.23467333681471644,0.2387289688810706
1772045793108154600,2.629154541015625,0.2981213613092899,0.17538940972965208,0.23389628802761434
1772045793118139400,2.639139404296875,0.3047825727641582,0.11839249760322272,0.15964871016442775
1772045793128125400,2.64912548828125,0.23546003021299838,0.08033931886702775,0.09405658631324768
1772045793138111200,2.659111328125,0.14638824657499788,0.1434030567517504,0.053555064576864236
1772045793148097500,2.66909765625,0.058500119763612746,0.13367613758333027,0.03602335340902209
1772045793158082600,2.67908251953125,-0.038726913279294964,0.0508510663151741,0.06516966065540909
1772045793168068400,2.689068359375,-0.08184592403769493,-0.005921170209906995,0.047667979299649596
1772045793178054400,2.699054443359375,-0.0881821413218975,-0.04682469687592238,0.04087137796208262
1772045793188039400,2.709039306640625,-0.039784313377737995,-0.041961693949438626,0.090225702913478
1772045793198025500,2.719025390625,-0.0018155249893665312,-0.06920008521527052,0.1191754646744579
1772045793208011300,2.72901123046875,0.07993979815542697,-0.025383520646765828,0.21791896669492125
1772045793217996300,2.738996337890625,0.16131284398436546,-0.03593808627836406,0.3040154608491808
1772045793227982600,2.748982666015625,0.19977847597897053,0.05597041862290352,0.4309255383636802
1772045793237968400,2.758968505859375,0.19576047250926493,0.06696728466190398,0.5425117900181562
1772045793247953400,2.768953369140625,0.15611235273182392,0.10793744682334362,0.6438650361455976
1772045793257939500,2.778939453125,0.06416296783089637,0.13120653259940446,0.6830204039700329
1772045793267925500,2.788925537109375,-0.011458382603526114,0.1944811002232134,0.7076506220314651
1772045793277911600,2.79891162109375,-0.1017366194218397,0.24405637444891035,0.6875964066486805
1772045793287896300,2.808896240234375,-0.11660101107656955,0.24796419554241,0.6351258493728935
1772045793297882400,2.81888232421875,-0.032583588218688966,0.2542905490197241,0.5296992893919349
1772045793307868400,2.828868408203125,0.0455745872169733,0.26336452070474625,0.4217543168492615
1772045793317853400,2.838853515625,0.09388824400901793,0.24226156345400957,0.3200277073647827
1772045793327839200,2.848839111328125,0.10920973178148269,0.2531982602709904,0.27727928348444403
1772045793337825300,2.8588251953125,0.12474398552179336,0.2880897601058707,0.26488098968230184
1772045793347810300,2.868810302734375,0.1392635092616081,0.29072259282749147,0.3080362407978624
1772045793357796000,2.878796142578125,0.15701310096383095,0.31224585784953085,0.3355122036792338
1772045793367782400,2.888782470703125,0.14723463427126407,0.31115291151367125,0.3096654494348913
1772045793377768200,2.898768310546875,0.16160452040731907,0.3161968604976311,0.30589060707129534
1772045793387753200,2.908753173828125,0.17448387572467325,0.35017858854383227,0.31530257853902877
1772045793397739300,2.9187392578125,0.17824468956291675,0.3941043125752359,0.3228046247322112
1772045793407725300,2.928725341796875,0.14679974998533724,0.4593223424170166,0.32485921917445953
1772045793417710300,2.93871044921875,0.10547346786260604,0.5218232587872073,0.3125506494823843
1772045793427696000,2.948696044921875,0.07475859612524509,0.5732138388065621,0.3019121318943798
1772045793437682200,2.95868212890625,0.061030515024065965,0.6246263749293982,0.30006394674442705
1772045793447667500,2.96866748046875,0.015574585750699043,0.641953795696795,0.2903117104716599
1772045793457653200,2.9786533203125,-0.08069383139312267,0.6551881749968975,0.2703594210933894
1772045793467639300,2.988639404296875,-0.16021452735364436,0.6132599814582615,0.22631598896645008
1772045793477624000,2.9986240234375,-0.2773947996228933,0.5345755171261728,0.16476057328544555
1772045793487610400,3.0086103515625,-0.3394073114216328,0.4567130367014557,0.024385303389653563
1772045793497596200,3.01859619140625,-0.3718248954236507,0.29532897237809375,-0.16662695167921482
1772045793507582200,3.028582275390625,-0.43950493146479125,0.21421605705637484,-0.31876967012770474
1772045793517567200,3.038567138671875,-0.5061486101955175,0.16660547049976884,-0.42463191811218853
1772045793527553300,3.04855322265625,-0.5592769737929105,0.13228050024015828,-0.5016963069617748
1772045793537539300,3.058539306640625,-0.41025779419243336,0.044399679952394216,-0.5839595796287059
1772045793547524000,3.068524169921875,-0.3077934450179338,-0.0892362717510201,-0.3827673643942922
1772045793557510100,3.07851025390625,-0.2277127770870924,-0.1546768217696808,-0.12726393245346843
1772045793567496200,3.08849609375,-0.11227788718044757,-0.08765762425744905,0.052457478598505254
1772045793577481200,3.098481201171875,0.012198971837759018,-0.07420320899849757,0.22411913650929927
1772045793587467300,3.10846728515625,0.28294132783412934,-0.051257838751468804,0.3840040665823966
1772045793597453300,3.118453369140625,0.49769057845175263,-0.021619035280402748,0.5145235667657106
1772045793607438300,3.128438232421875,0.5972264729589224,0.042322307422757145,0.5783088603906333
1772045793617424100,3.138424072265625,0.5969944177687168,0.03336843671975657,0.6317887408394366
1772045793627410200,3.14841015625,0.49757075146436686,0.045075515121035276,0.6077409257758408
1772045793637396200,3.158396240234375,0.33528526305556294,0.06654724175208247,0.6117183049742132
1772045793647381200,3.16838134765625,0.18755027804672716,0.038152017734479154,0.6292097571969032
1772045793657367300,3.1783671875,0.054445875936746595,0.027664708652812987,0.6957491718355566
1772045793667353000,3.18835302734375,-0.07367723062932491,-0.010070599773246794,0.7106182396654039
1772045793677338400,3.19833837890625,-0.1680734241604805,-0.026945171339763326,0.6103321843780577
1772045793687324200,3.20832421875,-0.1993529440432787,-0.046655678718257695,0.45316148169972
1772045793697310200,3.218310302734375,-0.1716629730850458,-0.05041873017936013,0.27566885261312124
1772045793707295200,3.228295166015625,-0.12688275111615657,-0.04514336532601155,0.11987645255066454
1772045793717281300,3.23828125,-0.06958908453285693,-0.04345938516128808,0.017726649218052625
1772045793727267300,3.248267333984375,-0.02410802081823349,-0.015921357928332873,-0.016438582168892026
1772045793737252400,3.25825244140625,0.01631108333170414,0.02526831503557041,-0.057862041055783624
1772045793747238100,3.268238037109375,0.016404022312164306,0.04351439871757757,-0.11674904124513268
1772045793757224400,3.278224365234375,0.01990121677815914,0.036126886848732824,-0.14779804030768573
1772045793767210200,3.288210205078125,0.021112346133589744,0.0024578140814322975,-0.17074600437059997
1772045793777195300,3.2981953125,0.02384440144598484,-0.05480195479884278,-0.16820077686719595
1772045793787181000,3.30818115234375,-0.022839023795723914,-0.06808796838806011,-0.17372691987752914
1772045793797167400,3.31816748046875,-0.04960661921203136,-0.05242516549779102,-0.19777948418147862
1772045793807152400,3.32815234375,-0.049695466539263725,-0.03225123272547498,-0.17591361626684665
1772045793817138200,3.33813818359375,-0.01815232728421688,-0.042800003370526245,-0.10266856650970875
1772045793827124500,3.34812451171875,0.016859364864230154,-0.06201648015438113,-0.02250584631860256
1772045793837109200,3.358109130859375,0.03977437650561332,-0.07453133584116585,0.015261355083063245
1772045793847095300,3.36809521484375,0.05955868890583515,-0.08588449537139385,-0.001507555018737912
1772045793857081000,3.3780810546875,0.05497253015935421,-0.12772996992948465,-0.017014628491178154
1772045793867066000,3.388066162109375,0.05357727640867233,-0.18067745140148325,-0.043687604426592586
1772045793877052400,3.398052490234375,0.10881401046216488,-0.1821270291552879,-0.08608743406496941
1772045793887038200,3.4080380859375,0.1518167013645172,-0.1489559599048458,-0.06830218652747572
1772045793897024300,3.418024169921875,0.1792348696440458,-0.13887016256246715,-0.03451386216152459
1772045793907009300,3.42800927734375,0.20060908158421514,-0.17222316425107417,0.018839871156960723
1772045793916995300,3.437995361328125,0.15863690277338027,-0.1741725264868699,0.06121606419142335
1772045793926981000,3.447981201171875,0.05602993025779724,-0.1325454256535042,0.06510368274711072
1772045793936966100,3.457966064453125,-0.06167465814650058,-0.11309551457311026,0.0658399976650253
1772045793946952400,3.467952392578125,-0.11322831977307796,-0.11615265538771637,0.08674608063679189
1772045793956938200,3.477938232421875,-0.120028062915802,-0.11037901302287355,0.09785090056229383
1772045793966923300,3.48792333984375,-0.10241934098899363,-0.064291329751187,0.0558399606436491
1772045793976909000,3.497908935546875,-0.08465221363008021,-0.046211451215250415,-0.0029402181703597307
1772045793986895400,3.507895263671875,-0.05730068084597587,-0.038479190162499434,-0.020118549323268235
1772045793996880400,3.51788037109375,-0.0018465046495199202,-0.027347833856521172,-0.02514671621620655
1772045794006866200,3.5278662109375,0.050725394108891486,0.011454482746543362,-0.06930639513395727
1772045794016852200,3.537852294921875,0.09418050495386122,0.040598890296788884,-0.08415438364315778
1772045794026837200,3.547837158203125,0.10143675969243049,0.047337623967276886,-0.06486154455430805
1772045794036823300,3.5578232421875,0.12053016721904278,0.04928886763290502,-0.06448003442343324
1772045794046809000,3.56780908203125,0.10414426508545875,0.05484873024974949,-0.04906893213875591
1772045794056795400,3.57779541015625,0.08187807274162769,0.04592519988608546,-0.07362272396311163
1772045794066780400,3.587780517578125,0.036356677016615865,0.041037089917808765,-0.1203750497225672
1772045794076766200,3.59776611328125,-0.04395779967010021,0.06753217940251342,-0.16260894820950925
1772045794086752300,3.607752197265625,-0.0935240868717432,0.08401755072204396,-0.19004326390624046
1772045794096737000,3.617737060546875,-0.11219137794077395,0.08899486421057953,-0.2023517240004614
1772045794106723300,3.627723388671875,-0.1337654963672161,0.10809037236273288,-0.2101166223809123
1772045794116709000,3.637709228515625,-0.11469546971619128,0.11262497445191257,-0.2010103923941031
1772045794126694100,3.647694091796875,-0.06575812806785106,0.09255891336770727,-0.1812155220672488
1772045794136680400,3.657680419921875,-0.008784194958209991,0.08431784884287044,-0.16556809027604757
1772045794146666200,3.667666259765625,0.008478490009903908,0.11134210416767745,-0.11363872720487415
1772045794156651300,3.6776513671875,0.02195171956717968,0.11185378001686185,-0.07580434231851249
1772045794166637000,3.687636962890625,0.03503858015537262,0.0975915555063635,-0.07339344525188207
1772045794176623400,3.697623291015625,0.01257657297849655,0.08517843859442509,-0.08795494496989995
1772045794186608400,3.7076083984375,-0.04841945525407791,0.09085558918169699,-0.11501549545079469
1772045794196594200,3.71759423828125,-0.08358312309384346,0.11423472946980036,-0.13261950466986744
1772045794206580200,3.727580322265625,-0.07119944233894347,0.12494212930924259,-0.13568429906796664
1772045794216566300,3.737566162109375,-0.02287935580611229,0.11999275414040311,-0.14371197657044976
1772045794226551300,3.74755126953125,0.04945288995504379,0.12686386375259606,-0.1499364040432498
1772045794236537300,3.757537353515625,0.13218845630884168,0.12389988111415877,-0.10888294751252979
1772045794246523100,3.767523193359375,0.27549861061275005,0.10726667142231017,-0.0904747823037207
1772045794256508400,3.77750830078125,0.39875031175017356,0.11398539435123092,-0.07279522363040596
1772045794266494200,3.787494140625,0.46182782243192194,0.15807258342150599,0.009633943655341863
1772045794276480300,3.797480224609375,0.4967191030710935,0.17095117155387995,0.11253383470289409
1772045794286465300,3.80746533203125,0.5173310984671116,0.12049083072249776,0.17698438730351626
1772045794296451300,3.817451416015625,0.49596331626772877,0.06719744015596807,0.2205865784689784
1772045794306437400,3.827437255859375,0.401366047206521,0.07928034786600618,0.3460753910087049
1772045794316422100,3.837422119140625,0.26168694288134575,0.1103475675718393,0.4609786582566797
1772045794326408400,3.847408447265625,0.11252689350545406,0.17417358593279494,0.5042304285492748
1772045794336394200,3.857394287109375,-0.021723171508312225,0.2791075766238384,0.5175807623792439
1772045794346380500,3.867380615234375,-0.10850889003574847,0.3263589196803048,0.4909955743251368
1772045794356365600,3.877365478515625,-0.17813655301332473,0.3859064661376178,0.454620557934232
1772045794366351400,3.887351318359375,-0.2620926010727882,0.46950361775681376,0.41361426501348614
1772045794376337400,3.89733740234375,-0.3294318608522415,0.4981590727463364,0.33745625041909516
1772045794386322200,3.907322265625,-0.4093354186505079,0.49840442580953237,0.26763556735375893
1772045794396308500,3.91730859375,-0.5286760838240385,0.4874493165530264,0.22951157013736664
1772045794406294300,3.927294189453125,-0.6348913099646568,0.49830776050202547,0.23313175166221334
1772045794416279300,3.937279296875,-0.7086012738198042,0.4980583888508379,0.2702707016303204
1772045794426265600,3.947265625,-0.7307739426612854,0.5058232506986707,0.31214199561625716
1772045794436251400,3.95725146484375,-0.6494634406745433,0.49729354195818304,0.29879361628135664
1772045794446236400,3.967236328125,-0.46979193317890167,0.46684850013814866,0.23996188994320108
1772045794456222200,3.97722216796875,-0.246259072124958,0.4347689159188419,0.15396554996147752
1772045794466208500,3.98720849609375,-0.009589081600308417,0.382212762718834,0.11561720593729988
1772045794476194300,3.9971943359375,0.14711188467442987,0.3068607307450846,0.11360698035974055
1772045794486179300,4.007179443359375,0.2289233219206333,0.22772665948197243,0.13600726567832752
1772045794496165400,4.017165283203125,0.25994389860630035,0.21281959772929548,0.16943179823318497
1772045794506151400,4.0271513671875,0.2840361373335123,0.21902601462136953,0.17006373946117237
1772045794516136400,4.037136474609375,0.2838508438944816,0.1853078694147989,0.15603881257157773
1772045794526122200,4.047122314453125,0.24263152927756307,0.11585875047505832,0.18924867946244775
1772045794536108500,4.057108642578125,0.15364976201057434,0.06579645991739816,0.24356950424741952
1772045794546093600,4.067093505859375,0.09368366134762764,0.02665314785693772,0.3423462874829769
1772045794556079400,4.077079345703125,0.05900514667630195,0.023310440699756144,0.4365482736162841
1772045794566065400,4.0870654296875,0.04229249680638313,0.014945713262632488,0.504569816571474
1772045794576050200,4.09705029296875,0.016760580664873122,0.014142269658949226,0.49900830998681484
1772045794586036500,4.107036376953125,-0.022384850287437436,0.02823350325040519,0.47226906388215717
1772045794596022300,4.117022216796875,-0.04911094464957714,0.03309505400531925,0.41527036165744063
1772045794606007300,4.12700732421875,-0.040966801160573954,0.03915073731509037,0.35359362115170806
1772045794615993300,4.136993408203125,-0.00902735606431961,0.032175244879815726,0.2599748234675266
1772045794625979400,4.1469794921875,0.03114449532628059,0.03319954642625526,0.19054821775369346
1772045794635965400,4.15696533203125,0.07444120073914527,0.06416137866200879,0.13091670107366515
1772045794645950200,4.1669501953125,0.14763678533136843,0.12107959952903911,0.09121670497851446
1772045794655936500,4.1769365234375,0.22005027963519094,0.13206398967895655,0.028515279333852228
1772045794665922300,4.18692236328125,0.2512783615916967,0.11881642210371791,-0.05743740416923537
1772045794675907300,4.1969072265625,0.2667670226246118,0.1392182088151574,-0.11269211227083578
1772045794685893400,4.206893310546875,0.27280980992019177,0.1750414548085071,-0.1112099382885266
1772045794695879400,4.21687939453125,0.23108079221546649,0.18861827260442077,-0.09593751382217743
1772045794705864400,4.226864501953125,0.16999825474321842,0.15923459467189385,-0.07982584378640167
1772045794715850200,4.236850341796875,0.07102057864069938,0.1585611523897387,-0.03009220979437232
1772045794725836300,4.246836181640625,-0.056258478316664695,0.12356686803381889,-0.02360962457573041
1772045794735821600,4.256821533203125,-0.1663257037103176,0.08495676780091597,-0.05773686203984543
1772045794745807400,4.266807373046875,-0.285329099753499,0.07841419602334498,-0.06859153399602509
1772045794755793400,4.27679345703125,-0.38436698161065574,0.009256287715677172,-0.06887189444052055
1772045794765778200,4.286778076171875,-0.41406186265051365,-0.03135134300999343,-0.028591897367173803
1772045794775764500,4.296764404296875,-0.37517829750478265,-0.025547643433604387,0.06714836771669797
1772045794785750300,4.306750244140625,-0.31277766317129135,-0.02646077622314915,0.22993406986575574
1772045794795735300,4.3167353515625,-0.22180209173858165,-0.03700054614441469,0.3817483235448599
1772045794805721300,4.326721435546875,-0.1449152514129877,-0.048895986724644895,0.5050935847172513
1772045794815707400,4.336707275390625,-0.09140811763107776,-0.08481993487980216,0.5886015602156519
1772045794825693400,4.346693359375,-0.05997311492562293,-0.08965239653754979,0.639835926759988
1772045794835678500,4.356678466796875,0.011351999619603157,-0.11673291209423914,0.6466576625388115
1772045794845664300,4.366664306640625,0.0007528641939163207,-0.12349219536241143,0.7554121248334645
1772045794855650300,4.376650390625,0.016414543706178664,-0.10551314228586851,0.8296545881301164
1772045794865635300,4.38663525390625,-0.06972352456748485,-0.046230128516256803,0.8857859329357742
1772045794875621400,4.396621337890625,-0.1580827760219574,0.03224394446816295,0.8996610212922096
1772045794885607400,4.406607421875,-0.26628128493428227,0.12912917833607643,0.8374146276723593
1772045794895592400,4.416592529296875,-0.3066150488883257,0.19462754122288897,0.6887883198469876
1772045794905578500,4.42657861328125,-0.2890904981136322,0.17210677132979035,0.4271421108348295
1772045794915564300,4.436564208984375,-0.22359715846180914,0.15470292432531713,0.10122519930098205
1772045794925549300,4.44654931640625,-0.12243804666697979,0.1691485243123956,-0.1687220790612511
1772045794935535400,4.456535400390625,-0.05808043304681778,0.23122381741534917,-0.32128665791731326
1772045794945521400,4.466521484375,-0.054478609162569046,0.32401922468636185,-0.42927784422188997
1772045794955506400,4.47650634765625,-0.003798807761073112,0.41202579024564473,-0.4691247014418244
1772045794965492500,4.486492431640625,0.19191256490945816,0.3806525641974062,-0.48254305900670585
1772045794975478500,4.496478515625,0.34647008941471574,0.3543474717263132,-0.4155747148988768
1772045794985463300,4.50646337890625,0.5143693260520696,0.25849284128146244,-0.3647867038825527
1772045794995449300,4.516449462890625,0.6054372519433499,0.21229033142449333,-0.2779819883937016
1772045795005435400,4.526435302734375,0.6421387968748807,0.11806966799017972,-0.23655615488663315
1772045795015421400,4.53642138671875,0.6281213774383068,-0.010838070164539386,-0.2373477071231231
1772045795025406500,4.546406494140625,0.5082353533416987,-0.10549578929226845,-0.19791480099894104
1772045795035392300,4.556392333984375,0.32919220687747,-0.13500788851059042,-0.11382971973232925
1772045795045378600,4.566378662109375,0.16457915230393408,-0.13048406354375183,-0.00019767799656838177
1772045795055363300,4.57636328125,0.03248305045366287,-0.14246824185336007,0.0931716567048803
1772045795065349400,4.586349365234375,-0.07536474532485007,-0.16198643239699304,0.15928239760268478
1772045795075335200,4.596335205078125,-0.13206979836523533,-0.1539141120351851,0.18456695138700305
1772045795085320400,4.606320556640625,-0.20857260780930517,-0.15628864088049157,0.18386764401122926
1772045795095306500,4.616306396484375,-0.3075479458242655,-0.20197193090263754,0.13468929668124766
1772045795105292300,4.626292236328125,-0.3577840951114893,-0.20375004649106412,0.12767437641788273
1772045795115277300,4.63627734375,-0.3654132748156786,-0.16730592865301294,0.11155286084152757
1772045795125263400,4.646263427734375,-0.3133598469734192,-0.1282522037053015,0.07249638681430369
1772045795135249400,4.65624951171875,-0.20685294440984725,-0.11047191547071561,0.06822758692130446
1772045795145234400,4.666234375,-0.06728080759048462,-0.0875974367691204,0.06232541367281228
1772045795155220200,4.67622021484375,0.08950199174880981,-0.08798639955408871,0.010134805849567056
1772045795165206500,4.68620654296875,0.2636678875654936,-0.07089402508500497,-0.042182241364940996
1772045795175192300,4.6961923828125,0.3913374051451683,-0.07196523907966912,-0.07854103727340697
1772045795185177300,4.70617724609375,0.470848748755455,-0.07761944718277082,-0.11898089195042848
1772045795195163400,4.716163330078125,0.47977381348907944,-0.06577758625356946,-0.09826799346320331
1772045795205149400,4.7261494140625,0.4202233078896999,-0.0881867170323152,-0.060089069455489516
1772045795215134500,4.736134521484375,0.3457750928878784,-0.09698964409045875,-0.039480873451754446
1772045795225120300,4.746120361328125,0.24700842918753624,-0.09954865352404303,-0.018582389264553783
1772045795235106600,4.7561064453125,0.13017828553020952,-0.11156166520249097,-0.04470039819832891
1772045795245091300,4.76609130859375,0.06300678353309631,-0.08420250623435713,-0.06966134605146944
1772045795255077400,4.776077392578125,0.029377485653758046,-0.046339041383983565,-0.07512761210072785
1772045795265063200,4.786063232421875,-0.027107202634215354,-0.02099049158589914,-0.10203121845424175
1772045795275048200,4.796048095703125,-0.08930383882820606,0.00766779468152672,-0.16439104585330933
1772045795285034500,4.806034423828125,-0.15659107615947723,0.02478270520940423,-0.20199856318123638
1772045795295020300,4.816020263671875,-0.25514965006709095,0.04519486718438565,-0.21703213739041238
1772045795305005300,4.82600537109375,-0.30588439652621746,0.07987224934455008,-0.245179496727325
1772045795314991400,4.835991455078125,-0.2649205179750919,0.09630589960999786,-0.23893968902230261
1772045795324976000,4.84597607421875,-0.18684476012587548,0.0859657804466784,-0.19257460901476442
1772045795334961200,4.855961181640625,-0.08810147730112075,0.06613395737661049,-0.1341793743977323
1772045795344947500,4.865947509765625,0.0054214405268430705,0.009495083173923193,-0.11609598416388034
1772045795354933200,4.875933349609375,0.08491466395854949,-0.07268558924347161,-0.13988821703121065
1772045795364918300,4.885918212890625,0.12955460067391394,-0.12882166502317413,-0.11510087217930703
1772045795374904300,4.895904296875,0.10760112754106521,-0.12205646347086876,-0.00885810044463724
1772045795384890400,4.905890380859375,0.04121054678857326,-0.09546060789227485,0.11545147571526466
1772045795394876200,4.915876220703125,0.014344751694798468,-0.11358833045819773,0.1996804224319756
1772045795404861200,4.925861083984375,0.0003787701845169067,-0.15931418098043648,0.19456961875688283
1772045795414847500,4.935847412109375,-0.008633388310670852,-0.20557503342851996,0.14568660111166537
1772045795424833300,4.945833251953125,-0.03518237254023552,-0.22755378713309762,0.07258037530332803
1772045795434818300,4.955818359375,-0.08480594288706779,-0.22940721471374853,0.025158954643271864
1772045795444804000,4.96580419921875,-0.13567980555593967,-0.19037326304558663,0.005751585796661675
1772045795454790400,4.975790283203125,-0.16606559146940708,-0.14194208082109688,-0.0006871420139446854
1772045795464775400,4.985775390625,-0.1421662449657917,-0.10389942347891629,0.03262110721748322
1772045795474761200,4.99576123046875,-0.10528875894546508,-0.09206676420290022,0.10263597941435873
1772045795484747500,5.00574755859375,-0.05150631535351276,-0.09843976983353495,0.15846457841377704
1772045795494732300,5.015732177734375,0.0033732758253812787,-0.09913462022989988,0.2001564424458891
1772045795504718300,5.02571826171875,0.045892567124962806,-0.08208771517062559,0.22978319015298038
1772045795514704100,5.0357041015625,0.08651566941440104,-0.059709258091356604,0.2761268985789269
1772045795524689200,5.045689208984375,0.12628244713544845,-0.0563064456442371,0.29641156171672045
1772045795534675500,5.055675537109375,0.16861527595221995,-0.047575076851807535,0.300564370547235
1772045795544661200,5.0656611328125,0.18076164081990717,-0.04350055742189288,0.25826076782494783
1772045795554646300,5.075646240234375,0.14989771600067614,-0.07088969140318221,0.18736366943344474
1772045795564632000,5.085632080078125,0.1019154831200838,-0.08648310058536007,0.11194222548529505
1772045795574618400,5.095618408203125,0.0697170948266983,-0.06344665452139452,0.0861946938317269
1772045795584604200,5.105604248046875,0.062114218607544895,-0.04744007056159898,0.06895739903319627
1772045795594589200,5.115589111328125,0.07667699696719646,-0.039324139386927706,0.06459956914987415
1772045795604575500,5.125575439453125,0.10992694014012813,-0.036884938674420116,0.0680516823651269
1772045795614561300,5.135561279296875,0.12656009503304957,-0.026837902439851312,0.05040025380775332
1772045795624546300,5.14554638671875,0.13270809626877308,-0.03320165618495084,0.022695925530605017
1772045795634532000,5.155531982421875,0.11999123803675174,-0.022573057202761992,0.016079430000297726
1772045795644518400,5.165518310546875,0.08451485098600386,-0.02297378349076025,0.03624539866186678
1772045795654503400,5.17550341796875,0.040168344259262086,0.002953945301612839,0.06913929493874311
1772045795664489200,5.1854892578125,-0.006930676046013832,0.01028862643809989,0.07326525229495018
1772045795674475300,5.195475341796875,-0.06556582036614418,-0.0014947229366283864,0.09364099124968052
1772045795684460300,5.205460205078125,-0.1366413440644741,-0.01260016391663812,0.12608644963931293
1772045795694446300,5.2154462890625,-0.16254969230294228,-0.008522119089076295,0.1522738340148702
1772045795704432000,5.22543212890625,-0.1529009894698858,0.01391104558580555,0.1815314561486244
1772045795714417200,5.235417236328125,-0.14133973101377487,0.030142551742121576,0.17766393053289503
1772045795724403500,5.245403564453125,-0.08789981724917888,0.04224369836174883,0.1289352631991729
1772045795734389200,5.25538916015625,-0.008588964647054671,0.039591612950386476,0.048530149086937306
1772045795744374300,5.265374267578125,0.058119596013426776,0.04748047563722357,-0.012618512424081563
1772045795754360300,5.2753603515625,0.09501227960288525,0.0717259595642332,-0.04914502958226949
1772045795764346400,5.285346435546875,0.05713643019497394,0.05071754872915335,-0.04335818980913609
1772045795774332200,5.295332275390625,-0.0053068742364645,0.033682735966471956,-0.024713402832858264
1772045795784317200,5.305317138671875,0.01687748504281044,0.058940972566022536,-0.0310979527708143
1772045795794303200,5.31530322265625,0.09586158990859985,0.03467714926472399,-0.018307371715456246
1772045795804289300,5.325289306640625,0.1698550468802452,0.0018339465620461851,0.027407756483368573
1772045795814274300,5.3352744140625,0.24857144072055815,0.00032693953257985413,0.08168835885580629
1772045795824260400,5.34526025390625,0.3032172231435776,0.03234255057100672,0.13492832960151135
1772045795834246400,5.355246337890625,0.3223638221621513,0.04372955757190939,0.16434815655965357
1772045795844231400,5.3652314453125,0.29238544800579547,0.01193459441368468,0.13453454451095312
1772045795854217200,5.37521728515625,0.22821429686844347,-0.046301878578215834,0.03654788873977959
1772045795864203300,5.385203369140625,0.12880173647999762,-0.03185784492713865,-0.011650653772614896
1772045795874188300,5.395188232421875,0.007184943068027496,0.012296198834269308,-0.01683083288948983
1772045795884174300,5.40517431640625,-0.09261573985517024,0.028283758433186448,-0.0038019495662301775
1772045795894160400,5.415160400390625,-0.16222878978550434,0.032595443053264166,-0.0018476006280630827
1772045795904145200,5.425145263671875,-0.19849428138732908,0.0011817845299374311,-0.025278672032803297
1772045795914131500,5.43513134765625,-0.2204144367724657,-0.026041797325829973,-0.05761825889516622
1772045795924117200,5.4451171875,-0.21109306619763374,-0.03740198938504327,-0.04900708241630345
1772045795934102300,5.455102294921875,-0.16412380975186824,-0.03228912618360482,-0.010090674446895717
1772045795944088300,5.46508837890625,-0.08774316538274288,-0.018839711326756513,0.026275354919955134
1772045795954074400,5.475074462890625,-0.023821605092287063,-0.010585960850282572,0.030858079600334164
1772045795964059400,5.485059326171875,0.042618075498938555,-0.01635655730809085,0.013526895973272621
1772045795974045200,5.495045166015625,0.0870405700713396,-0.025880693046562372,0.00006707388684153556
1772045795984031200,5.50503125,0.11334230154156684,-0.01684961065519601,-0.022046960102580487
1772045795994016500,5.5150166015625,0.11177402931153774,-0.03889361161570996,-0.0007568097166717052
1772045796004002300,5.525002197265625,0.07293839496076107,-0.06699074316930491,0.024671938311308622
1772045796013988400,5.53498828125,0.037416415202617646,-0.05728100803112611,0.04532590968552976
1772045796023974100,5.54497412109375,0.013161679390072822,-0.04844330192054622,0.061238824012503024
1772045796033959400,5.55495947265625,0.01409808345735073,-0.06310375936785713,0.056271849254891274
1772045796043945200,5.5649453125,0.014211480703949928,-0.07290256559555418,0.06830573019143193
1772045796053931300,5.57493115234375,0.015126841983199118,-0.043103895387658846,0.07724610209204257
1772045796063916300,5.584916259765625,-0.0037982232391834255,-0.04788893770710565,0.048402577184513206
1772045796073902300,5.59490234375,-0.015353636476397514,-0.04913069052966311,0.0003073489161208272
1772045796083888400,5.604888427734375,-0.03347615314424038,-0.05944228685139678,-0.02057462252769619
1772045796093873200,5.614873046875,-0.038565585237741465,-0.06390877387411892,0.002977810234390199
1772045796103859200,5.624859130859375,-0.03154255473315715,-0.07492802984144073,0.010614661788381635
1772045796113845200,5.63484521484375,-0.01259703124463558,-0.0784373851026874,0.019087160448916254
1772045796123830300,5.644830322265625,0.052500002565979954,-0.03653726459777681,0.026715536435507236
1772045796133816300,5.65481640625,0.08557809630334377,-0.05629651790526695,0.06176595315914601
1772045796143802400,5.66480224609375,0.06126607734560966,-0.09855678380932659,0.09346559815015643
1772045796153787400,5.674787353515625,0.07879764238297939,0.013665961950668134,0.07182868015319109
1772045796163773200,5.684773193359375,0.13938333624899388,0.02339969901894219,0.041284817601181564
1772045796173759200,5.69475927734375,0.09731120419502258,0.015836065681499895,0.04681611171066761
1772045796183745300,5.704745361328125,0.03382569723427296,0.0363033348276047,-0.02007072812616825
1772045796193731300,5.7147314453125,-0.023970658174157142,0.04846565531624947,-0.0656084904640913
1772045796203716400,5.72471630859375,-0.06711246528625488,0.066402727848012,-0.08467121059149503
1772045796213702100,5.7347021484375,-0.07092763966023921,0.07630111285950988,-0.08757836674246937
1772045796223688400,5.7446884765625,-0.036764088773727416,0.08792257707025855,-0.11095880393851548
1772045796233673200,5.754673095703125,-0.0014566285490989685,0.09196629036995582,-0.10498729178085922
1772045796243659300,5.7646591796875,0.035440146693587304,0.10010289900647476,-0.08665376271083951
1772045796253645000,5.77464501953125,0.07813362551629544,0.11152058427343145,-0.05629935831632465
1772045796263630300,5.78463037109375,0.1070347258299589,0.10356094877216965,-0.008402538696862756
1772045796273616400,5.794616455078125,0.09972644864320754,0.0863485326865688,0.013733414863422512
1772045796283602200,5.804602294921875,0.07313420979380607,0.0756611938210437,0.011618468536064028
1772045796293588500,5.81458837890625,0.043561493828892704,0.07040118636703119,0.006782901605777442
1772045796303573200,5.8245732421875,0.008725742769241332,0.0777959545271471,0.01267108286153525
1772045796313559300,5.834559326171875,0.010095277556777,0.07245273033566772,0.01482205035034567
1772045796323545300,5.84454541015625,0.030002924075722692,0.023615871653426438,0.002050210528075695
1772045796333530400,5.8545302734375,0.06620820992290974,0.004031840198813006,-0.004819017654284835
1772045796343516700,5.8645166015625,0.10750409690737724,-0.00262190946880728,0.00026263299155980345
1772045796353502500,5.87450244140625,0.11095160701274871,-0.021233908420335502,0.005589380972273648
1772045796363487500,5.884487548828125,0.07952887926697731,-0.01657399945105426,0.01407309514656663
1772045796373473500,5.8944736328125,0.0549947419911623,-0.013185736119095235,0.03486537901293486
1772045796383459600,5.90445947265625,0.03508417286276817,-0.017104023807682094,0.0591809781672433
1772045796393444600,5.914444580078125,0.0394184026747942,-0.040032333322055635,0.07026208842359483
1772045796403430400,5.924430419921875,0.01590542514026165,-0.07373613947601988,0.09380210009552538
1772045796413416700,5.934416748046875,-0.03231879980266094,-0.09485191967571154,0.08907251429036259
1772045796423401500,5.9444013671875,-0.06647241381704806,-0.1105089960780926,0.07157748187109828
1772045796433387500,5.954387451171875,-0.10108838464617728,-0.08335816436470486,0.08723331616446375
1772045796443373600,5.96437353515625,-0.11343640956580638,-0.06256916843396611,0.10089125463888049
1772045796453358600,5.974358642578125,-0.059201546031236646,-0.07228717364356853,0.09337437620274722
1772045796463344600,5.9843447265625,0.001903203272819519,-0.09054585651224478,0.0729400023959577
1772045796473330400,5.994330322265625,0.04308627753257751,-0.10256505133630707,0.054407808948680754
1772045796483315500,6.0043154296875,0.0835462982147932,-0.09955998776881024,0.03426642673909664
1772045796493301500,6.014301513671875,0.09322013548910617,-0.09336280449596233,0.020100757938250897
1772045796503287600,6.02428759765625,0.12017419338822365,-0.08471121380832046,0.038741307130828496
1772045796513272600,6.0342724609375,0.12234919933974742,-0.07765651865699329,0.0464035853870213
1772045796523258400,6.04425830078125,0.11287819116115569,-0.06916741592152975,0.06889598770216107
1772045796533244700,6.05424462890625,0.10206979689896106,-0.078132264676271,0.07350611184611916
1772045796543229700,6.064229736328125,0.05954056872725486,-0.07176670256657526,0.0639045360904187
1772045796553215500,6.074215576171875,0.02927987049818039,-0.06586504077473655,0.04515709245726466
1772045796563201500,6.084201416015625,0.0008428805649280548,-0.04447218806617893,0.011291574669256805
1772045796573187600,6.0941875,-0.008410100948810577,-0.04193940905239433,-0.0013818828124552965
1772045796583172600,6.104172607421875,0.009382745373249053,-0.06213529792819172,0.03237345259934664
1772045796593158400,6.114158447265625,0.024698387926816938,-0.07099981898046098,0.06310169527493417
1772045796603144700,6.124144775390625,0.023470891958475112,-0.07685847274763509,0.07089607547819614
1772045796613129700,6.134129638671875,0.017149872243404387,-0.06712260308777913,0.07712927077934145
1772045796623115500,6.144115478515625,0.012800444862246513,-0.05787609698059968,0.0705427319958806
1772045796633101600,6.1541015625,0.04068506160974502,-0.0494249607685022,0.08221936045996844
1772045796643086300,6.16408642578125,0.04748889640569687,-0.022686719310842453,0.10832023559585213
1772045796653072600,6.17407275390625,0.06744856537282466,-0.02221985985091887,0.1311381435383111
1772045796663058400,6.184058349609375,0.0866138690918684,-0.014878739840490743,0.12702727415338158
1772045796673043500,6.19404345703125,0.08034311825931072,-0.027071537665789944,0.08937595421634614
1772045796683029800,6.20402978515625,0.06676350571811199,-0.041811800617352124,0.0575297403614968
1772045796693015600,6.214015625,0.05100421105027198,-0.058065281143458554,0.03397979181744158
1772045796703000600,6.22400048828125,0.04519172537922859,-0.06545030422769486,0.04777801554538309
1772045796712986400,6.233986328125,0.06934533890485763,-0.07611330780298449,0.06565729804188013
1772045796722972700,6.24397265625,0.09709434657394886,-0.07497885127980261,0.09519041264876722
1772045796732957700,6.253957763671875,0.09758592948317527,-0.07281854970706626,0.08961210105977951
1772045796742943500,6.263943603515625,0.06648936495184898,-0.06872355374470353,0.07619754288718104
1772045796752929500,6.273929443359375,-0.004181669598817825,-0.05513823754850309,0.06010792028643191
1772045796762914600,6.28391455078125,-0.06983516824841499,-0.04201954335020855,0.06092844288907945
1772045796772900600,6.293900634765625,-0.09965104531943797,-0.021121492987847885,0.06188296713493764
1772045796782886400,6.303886474609375,-0.12449264110922813,-0.002854969306010753,0.03399403953850269
1772045796792871400,6.313871337890625,-0.11350246053934096,-0.0006975401103729382,0.0031222967389971015
1772045796802857700,6.323857666015625,-0.06498246752023697,0.00813013779653702,-0.02152238823920488
1772045796812843500,6.333843505859375,-0.007348024675250053,0.01550954399073962,-0.03395801837705076
1772045796822828500,6.34382861328125,0.03788753984570503,0.027655009242706,-0.013075024019926785
1772045796832814300,6.353814453125,0.0773328305274248,0.037016967556253076,0.010644435872137545
1772045796842800600,6.363800537109375,0.11308861904144286,0.026401858243299648,-0.0005425093788653612
1772045796852785700,6.37378564453125,0.14005202929079533,0.01327569769117981,0.008962328004091977
1772045796862771500,6.383771484375,0.1410153213649988,-0.007973262167815118,0.02059891671873629
1772045796872757500,6.393757568359375,0.11342296556234359,-0.0031193375969305634,0.030040552672371268
1772045796882743600,6.40374365234375,0.06043488721847534,0.0026687260189093647,0.03614946400672197
1772045796892728600,6.413728515625,0.035920039165019985,-0.0004443325342843309,0.01104519869275391
1772045796902714400,6.42371435546875,0.02657762580215931,-0.00943000944792293,0.004039411583915352
1772045796912700700,6.43370068359375,0.018014380118250847,-0.027399504678254014,-0.004248816550895571
1772045796922685700,6.443685791015625,0.023660277050733564,-0.04472759673250839,0.02132774244993925
1772045796932671500,6.45367138671875,0.01790565904676914,-0.07733193547828122,0.05979205927029252
1772045796942657500,6.463657470703125,0.01972293760180473,-0.09016266588093712,0.0968516969244927
1772045796952642600,6.473642578125,-0.011141571739315986,-0.08014111114749685,0.12800927092805503
1772045796962628600,6.483628662109375,-0.03709726625084877,-0.06828231278322637,0.13479345117546618
1772045796972614400,6.493614501953125,-0.0395534272313118,-0.07242626245385035,0.14487024322748182
1772045796982599400,6.503599365234375,-0.0222340436398983,-0.06441263630960602,0.1374156163726002
1772045796992585700,6.513585693359375,0.011107669469714164,-0.06404266135289799,0.12875935864299534
1772045797002571500,6.523571533203125,0.037568390893936154,-0.07498792506882455,0.1046475384324789
1772045797012556500,6.533556640625,0.037839024528861044,-0.07942697152877226,0.0889531256943941
1772045797022542600,6.54354248046875,0.04408990161716938,-0.07280408279029651,0.10381744428388774
1772045797032528600,6.553528564453125,0.04252338295280933,-0.040618563111638646,0.12539981908202172
1772045797042513700,6.563513671875,0.01579378145933151,-0.009560471993754618,0.1152106526967138
1772045797052499500,6.57349951171875,0.012727379626035689,-0.01692676754463464,0.06045381111465394
1772045797062485500,6.583485595703125,0.022573650857806205,-0.043606004257476884,0.019663024108111857
1772045797072470500,6.593470458984375,0.045516135028004646,-0.04736829766675364,0.015980755398795007
1772045797082456600,6.60345654296875,0.04385024764239788,-0.025683147480734622,0.04682648697420955
1772045797092442600,6.613442626953125,0.07356967860162257,-0.007358692199736833,0.09064633947834372
1772045797102427400,6.623427490234375,0.08885434149503707,-0.010851932009821758,0.1286531217895448
1772045797112413700,6.63341357421875,0.0851408739298582,-0.007600720794685185,0.15394041552022097
1772045797122399500,6.6433994140625,0.05044190099239349,-0.0009761332894675433,0.14662680457122623
1772045797132384500,6.653384521484375,0.025603227812051772,0.005959794320398941,0.11448416505306959
1772045797142370600,6.66337060546875,-0.039106852507591244,-0.009811090320535003,0.08636457050591707
1772045797152356600,6.673356689453125,-0.12110182962715625,-0.01078905480748508,0.06038425300978124
1772045797162341600,6.683341552734375,-0.17803776881396768,-0.0015138888614019378,0.02574322080463171
1772045797172327400,6.693327392578125,-0.2735170814067125,0.007435986086493358,0.024161723766848442
1772045797182313500,6.7033134765625,-0.3232879512697458,0.027638368635158984,0.004702697798237204
1772045797192299500,6.713299560546875,-0.2647387316673994,0.06634057673146017,0.011713818669319151
1772045797202284500,6.723284423828125,-0.10279811117351055,0.08411861821003258,0.012378639253601432
1772045797212270600,6.7332705078125,0.04284370094835758,0.050288838455686345,0.02729775677025318
1772045797222256600,6.743256591796875,0.17247312042415142,0.042031745244655756,0.03691000005044043
1772045797232241700,6.75324169921875,0.25783552815020083,0.05342734654396772,0.0292455298371613
1772045797242227500,6.7632275390625,0.2662760242372751,0.0516728218936827,0.019406199802830815
1772045797252213500,6.773213623046875,0.29301380903720853,0.05749220309639349,0.0029389760613441466
1772045797262198500,6.783198486328125,0.30925533426403995,0.056022915995121,0.010973887022212147
1772045797272184600,6.7931845703125,0.28430384835898875,0.05208549434780143,0.04537029681652784
1772045797282170600,6.803170654296875,0.224462835380435,0.03644898580941371,0.0676391925740987
1772045797292155400,6.8131552734375,0.16058628327548502,0.03409201088710688,0.08963504354394972
1772045797302141400,6.823141357421875,0.06730652655363083,0.03255605175779201,0.06342289005331694
1772045797312127500,6.83312744140625,0.007447393396496772,0.020681590033508834,0.0454766798004508
1772045797322113300,6.84311328125,-0.029447628280520437,0.002042401680955663,0.03776413266174495
1772045797332099000,6.85309912109375,-0.05363339051008224,0.005672346547991037,0.040809491707012056
1772045797342085400,6.86308544921875,-0.054209729093313216,0.008507387310825287,0.02943549945130944
1772045797352070400,6.8730703125,-0.030267712491750715,0.0019687062570825217,0.022686609712988137
1772045797362056200,6.88305615234375,-0.016394085440039632,0.00009972491427324711,0.031595088637992735
1772045797372042200,6.893042236328125,-0.0015326163947582245,0.0021147545311134305,0.02273673246502876
1772045797382027300,6.90302734375,0.014944471153616905,0.01415613378752023,0.03827376268431544
1772045797392013300,6.913013427734375,0.01854746408164501,0.03057021170281805,0.04772292435728013
1772045797401999400,6.922999267578125,0.015080664753913878,0.038841032045101746,0.03531330544352531
1772045797411984100,6.932984130859375,0.03822130184471607,0.04404761511171237,0.01451798936985433
1772045797421970400,6.942970458984375,0.061949383434653275,0.057303055466152726,0.0028531974740326404
1772045797431956200,6.952956298828125,0.05230068060159683,0.053028611283656206,-0.013195581659674644
1772045797441941200,6.962941162109375,0.05837503207921981,0.044176182527979835,-0.023539646345749496
1772045797451927300,6.97292724609375,0.07317571084797382,0.0398346005265601,-0.04274637805372476
1772045797461913300,6.982913330078125,0.0872977597028017,0.06079047745680436,-0.02558605748154223
1772045797471898400,6.9928984375,0.07228723757565021,0.06864229606888257,0.011008446878939867
1772045797481884200,7.00288427734375,0.08244739706218242,0.07635434088408946,0.020042963336408138
1772045797491870500,7.012870361328125,0.06839081465899943,0.0710561796770431,0.01969875300861895
1772045797501855500,7.02285546875,0.04880816231071949,0.0667443443599157,0.012830913065746425
1772045797511841300,7.03284130859375,0.03536532789170742,0.06825167104979045,-0.0033564708210527894
1772045797521827300,7.042827392578125,-0.0024900632500648497,0.05849023769041523,-0.0012475889082998036
1772045797531812000,7.05281201171875,-0.023032500541210175,0.05973157038786448,-0.012500877393782138
1772045797541798400,7.06279833984375,-0.03563888413608074,0.06149086254481226,-0.02092142667137086
1772045797551784200,7.0727841796875,-0.04989186589419842,0.07185938581870868,-0.02494279114194214
1772045797561769200,7.082769287109375,-0.0755599756360054,0.08179234895324335,-0.0037619828820228576
1772045797571755500,7.092755615234375,-0.12118892338871955,0.09156739984601736,0.008808598747104405
1772045797581741300,7.1027412109375,-0.1357008483439684,0.11919076270828954,0.010638444522768258
1772045797591727400,7.112727294921875,-0.1762345187842846,0.09414796352428384,0.011887786996737123
1772045797601712000,7.122712158203125,-0.1646919650286436,0.11510902808629907,-0.03763466106317937
1772045797611698400,7.132698486328125,-0.10132979218661785,0.1164612920786254,-0.06672967651374638
1772045797621684200,7.142684326171875,-0.015136194333434104,0.09351856131325476,-0.045303222929686304
1772045797631669200,7.152669189453125,0.05505845487713813,0.0636223216155544,-0.018133111127093433
1772045797641655300,7.1626552734375,0.050099955686926836,0.05157923445925116,0.039669674022123215
1772045797651641300,7.172641357421875,-0.011285364124178885,0.04466941853817552,0.08018529734909534
1772045797661626400,7.18262646484375,-0.04285071521103382,0.048763994375430046,0.10602920204922556
1772045797671612200,7.192612060546875,-0.04642039039134979,0.04413299184022471,0.15950243356153368
1772045797681598200,7.20259814453125,-0.021869886502623555,0.04067439408525824,0.19684001137427984
1772045797691583500,7.21258349609375,0.011311667609214782,-0.001113733395561576,0.16200075318329035
1772045797701569300,7.2225693359375,0.03531622805297375,-0.05417679493809119,0.045098128811642525
1772045797711555300,7.232555419921875,0.028792963764071464,-0.13132866114173083,-0.017828209896385668
1772045797721540000,7.2425400390625,0.009572714987397193,-0.18422190080899745,0.0814062905114144
1772045797731526400,7.2525263671875,-0.11910802546143531,-0.9435288776565343,0.7961655755043029
1772045797741512200,7.26251220703125,-0.18123451902866364,-1.5389549501299857,1.68368052418977
1772045797751497200,7.272497314453125,0.06587561696767806,-0.5240362951941788,1.493519186861813
1772045797761483300,7.282483154296875,0.00926701003909111,0.0202776488751173,0.9780110660381615
1772045797771469300,7.29246923828125,-0.05990414134263992,0.15931198902335017,0.5907444905284792
1772045797781454300,7.302454345703125,-0.14090776933729648,0.197465285399463,0.31019246898367997
1772045797791440100,7.312440185546875,-0.20972879210710524,0.32992227471768854,0.09522438798360526
1772045797801426400,7.322426513671875,-0.16598785005807876,0.32885044423509385,-0.2441230099443346
1772045797811411500,7.332411376953125,-0.07624737337827682,0.23615805894713848,-0.5109728154815734
1772045797821397200,7.342397216796875,0.0047141690403223035,0.11374138386175035,-0.6492986785668879
1772045797831383300,7.35238330078125,0.09673194300234317,-0.10167834989596157,-0.8245287695489824
1772045797841368300,7.362368408203125,0.12858546338081359,-0.060117309169284996,-0.760024075608328
1772045797851354400,7.372354248046875,-0.001197100830078125,0.01127634056750685,-0.5422988779198378
1772045797861340200,7.382340087890625,-0.13366671216785908,0.05252276238705963,-0.31670484655238684
1772045797871325200,7.3923251953125,-0.17839374264478683,0.13137081978302448,-0.07462963598333298
1772045797881311200,7.402311279296875,-0.11802549092173575,0.21004129212237893,0.12734313516952098
1772045797891297300,7.41229736328125,-0.01253916357755661,0.2512119818245992,0.33119404821917414
1772045797901282300,7.4222822265625,0.15676760177016258,0.19173092473223804,0.3567837589625269
1772045797911268400,7.432268310546875,0.23414485596120357,0.18383776032961904,0.2949761951513588
1772045797921254400,7.44225439453125,0.2545388246923685,0.14211396678928284,0.20168767060115933
1772045797931239400,7.452239501953125,0.3236281430095434,-0.02441233752705157,0.013154518996924162
1772045797941225200,7.46222509765625,0.3668582129269838,-0.19834033293463288,-0.16941877435483038
1772045797951211300,7.472211181640625,0.2684633051484823,-0.1583130776464939,-0.14939605008885262
1772045797961196300,7.4821962890625,0.04715104275345802,-0.042099933376349506,-0.04815568975135684
1772045797971182300,7.492182373046875,-0.04905716863572597,0.07842826108131558,-0.004897708913683891
1772045797981168400,7.50216845703125,-0.0004547580301761627,0.191472712187469,-0.012443448118120431
1772045797991153200,7.512153076171875,0.0488730442404747,0.2819918816221878,-0.12406433269456028
1772045798001139500,7.522139404296875,0.005135024800896644,0.214955002322793,-0.26192659685611724
1772045798011125200,7.532125244140625,-0.0033387890338897703,0.14710326297655701,-0.2607812262132764
1772045798021110300,7.5421103515625,0.08197101172208786,0.09745349874254315,-0.1375304018586874
1772045798031096300,7.552096435546875,0.16718495088815688,0.10587481520511209,-0.046516105850785965
1772045798041082400,7.562082275390625,0.25533085185289384,0.10460212838817387,-0.023840455923229455
1772045798051067400,7.5720673828125,0.26157997537553307,0.0667879095070064,0.00958484381660819
1772045798061053200,7.58205322265625,0.24082886376976964,0.017241276853904128,0.018253887962549925
1772045798071039200,7.592039306640625,0.21849778949618337,-0.019668686663918196,0.054769116541743275
1772045798081024500,7.6020244140625,0.15486965919435022,0.0035329598991200328,0.03421396589949727
1772045798091010300,7.61201025390625,0.09948153397142886,0.010681041555479168,0.0025426702201366423
1772045798100996400,7.621996337890625,0.08497486971318721,0.002297828613594174,0.028700024783611295
1772045798110981000,7.631981201171875,0.060705520853400224,0.022882497611269353,0.04801116671413183
1772045798120967400,7.641967529296875,0.05042962603271007,0.03609345950316638,0.017751491398364305
1772045798130953200,7.651953125,0.03375497008562088,0.029594745133630928,-0.015619009414315222
1772045798140939300,7.661939208984375,0.025885551884770392,0.008361220305785537,-0.029456980630755424
1772045798150924300,7.67192431640625,0.0005272387444972992,-0.017252821161225437,0.0019756839871406555
1772045798160910300,7.681910400390625,0.0046188919723033905,0.006296067936904728,0.032398148649185894
1772045798170896400,7.691896484375,0.04058218575716018,0.05380951426196843,0.0793283882588148
1772045798180881200,7.701881103515625,0.0791717363923788,0.07298124772179872,0.07300123106390237
1772045798190867200,7.7118671875,-0.012049334233999252,0.019591639372333883,-0.0002568973705172539
1772045798200853200,7.721853271484375,-0.09084346948564052,-0.01721793251093477,-0.03881035377904773
1772045798210838300,7.73183837890625,-0.09018588235974312,-0.034676870703510936,-0.018987316803634167
1772045798220824300,7.74182421875,-0.008406593817472458,0.015585326340422033,0.013913082279264926
1772045798230810400,7.751810302734375,0.13900515058636664,0.08572272893842309,0.00805266581326723
1772045798240795400,7.76179541015625,0.31324703424870964,0.16419618086833507,-0.03410933648124337
1772045798250781200,7.77178125,0.43720425330698487,0.21102292357087135,-0.07740881837308407
1772045798260767200,7.781767333984375,0.47676235671341416,0.046411111106351016,-0.0032134090885519977
1772045798270752300,7.791752197265625,0.3767319566875696,-0.14545348647553472,0.09065013887062669
1772045798280738300,7.80173828125,0.15803776783645151,-0.1527943872902542,0.09458499410152435
1772045798290724400,7.811724365234375,-0.04662380400896072,-0.08479892862439155,0.07668079635947943
1772045798300709000,7.821709228515625,-0.23781506890654563,-0.031166926353797315,0.07865355773717164
1772045798310695400,7.8316953125,-0.30182372295856474,0.01650357369650155,0.11743468542173505
1772045798320681200,7.84168115234375,-0.20044892258644104,0.02336469163764268,0.20429975279569626
1772045798330666000,7.851666015625,-0.048559740507602686,-0.018485760489664972,0.22141689181327817
1772045798340652300,7.86165234375,0.10085516041219234,-0.06085778880566358,0.18845752908475696
1772045798350638000,7.87163818359375,0.18610767802298067,-0.1214923998473212,0.16682963464446365
1772045798360623000,7.881623046875,0.025886720928549763,-0.12856270355973393,0.12072495913878083
1772045798370609200,7.891609130859375,-0.23356150311529636,-0.08906933595258743,0.006162979609146714
1772045798380595200,7.90159521484375,-0.4119236815780401,0.0036890272436663507,-0.08206409683302045
1772045798390580200,7.911580322265625,-0.4115355590432882,0.06914367885291577,-0.07359159817248583
1772045798400566000,7.92156591796875,-0.36357027729749675,0.032021606954373415,0.006342062503099441
1772045798410552000,7.931552001953125,-0.24232874693870543,-0.025074235501885412,0.07691942742094397
1772045798420537300,7.941537353515625,-0.09757365452349186,-0.04635908865816891,0.1252390024971217
1772045798430523100,7.951523193359375,0.030555881783366202,-0.12106796389017253,0.15484474394880235
1772045798440509200,7.96150927734375,0.06503039831519127,-0.03828939864486456,0.19340850255563855
1772045798450494000,7.971493896484375,-0.08256430144011974,0.08466233316529542,0.12603592502847313
1772045798460480300,7.981480224609375,-0.15585867023169994,0.006646488809771835,0.06259739901460706
1772045798470466000,7.991466064453125,-0.04360416392683983,-0.07941939101051539,0.09785561327002942
1772045798480451000,8.001451171875,0.10275777916312218,-0.06863730023335665,0.13083923365697264
1772045798490437000,8.01143701171875,0.18937690895199774,-0.06472874848749488,0.1320495592948049
