time,seconds_elapsed,z,y,x
1772045790551814000,0.07281396484375,0.1423155963420868,0.1356145590543747,0.19423159956932068
1772045790561800000,0.082800048828125,0.15019775927066803,0.11798949539661407,0.2123946249485016
1772045790571786000,0.092785888671875,0.12285962700843811,0.057194679975509644,0.21876707673072815
1772045790581771000,0.10277099609375,0.105868399143219,0.007233246695250273,0.2358267605304718
1772045790591756800,0.1127568359375,0.10619913786649704,-0.03792903944849968,0.25318917632102966
1772045790601743000,0.1227431640625,0.10156044363975525,-0.07692570239305496,0.2691417932510376
1772045790611728000,0.132727783203125,0.09287278354167938,-0.10177033394575119,0.28073152899742126
1772045790621714000,0.1427138671875,0.06926652789115906,-0.11657910794019699,0.27944308519363403
1772045790631699700,0.15269970703125,0.03659718483686447,-0.1353910118341446,0.26914235949516296
1772045790641685000,0.16268505859375,0.012692383490502834,-0.15965932607650757,0.25599515438079834
1772045790651671000,0.172671142578125,-0.007904734462499619,-0.18244515359401703,0.23976831138134003
1772045790661656800,0.18265673828125,-0.01248111017048359,-0.1520736664533615,0.21533247828483582
1772045790671643100,0.19264306640625,0.004679829813539982,-0.08506371080875397,0.18537576496601105
1772045790681628000,0.2026279296875,0.04357423260807991,-0.043939441442489624,0.15669085085391998
1772045790691614000,0.212614013671875,0.08298255503177643,-0.03816286474466324,0.11763730645179749
1772045790701599700,0.222599853515625,0.12020795047283173,-0.06571300327777863,0.07375560700893402
1772045790711584800,0.232584716796875,0.13502344489097595,-0.09880726039409637,0.02736719883978367
1772045790721571000,0.242571044921875,0.1424957513809204,-0.11489541083574295,-0.0045846085995435715
1772045790731556900,0.252556884765625,0.1300092190504074,-0.10938946157693863,-0.027413269504904747
1772045790741543000,0.26254296875,0.11144086718559265,-0.10468711704015732,-0.032102033495903015
1772045790751528000,0.27252783203125,0.09015791863203049,-0.099274642765522,-0.027307085692882538
1772045790761514000,0.282513916015625,0.07315284013748169,-0.09297067672014236,-0.014546548947691917
1772045790771499800,0.292499755859375,0.05859661102294922,-0.09360513091087341,-0.0017195085529237986
1772045790781484800,0.30248486328125,0.03889907896518707,-0.10771988332271576,0.0075083449482917786
1772045790791471000,0.31247119140625,0.016111277043819427,-0.13468194007873535,0.012041955254971981
1772045790801457000,0.322456787109375,-0.006971405353397131,-0.16246430575847626,0.022091658785939217
1772045790811443000,0.33244287109375,-0.03399354964494705,-0.16821812093257904,0.0347137488424778
1772045790821427700,0.342427734375,-0.05323489010334015,-0.15105962753295898,0.04989270120859146
1772045790831414000,0.3524140625,-0.0678541362285614,-0.12764529883861542,0.05958670377731323
1772045790841399800,0.36239990234375,-0.07872223854064941,-0.09764745831489563,0.06459105014801025
1772045790851384800,0.372384765625,-0.09207799285650253,-0.06858974695205688,0.05106404051184654
1772045790861371000,0.382370849609375,-0.10446915030479431,-0.0517260804772377,0.029473794624209404
1772045790871357000,0.39235693359375,-0.10912440717220306,-0.03976710885763168,0.003125990740954876
1772045790881343000,0.402343017578125,-0.10523778945207596,-0.015993602573871613,-0.014604803174734116
1772045790891327700,0.41232763671875,-0.09452148526906967,0.003988137934356928,-0.02975631132721901
1772045790901314000,0.42231396484375,-0.08561187982559204,0.02932704985141754,-0.032491907477378845
1772045790911299800,0.4322998046875,-0.08090216666460037,0.04753725975751877,-0.04006987437605858
1772045790921284900,0.442284912109375,-0.088065005838871,0.06011883169412613,-0.04490004852414131
1772045790931271000,0.45227099609375,-0.104420505464077,0.06391618400812149,-0.04486798495054245
1772045790941257000,0.462257080078125,-0.12328527122735977,0.07542210817337036,-0.03976856544613838
1772045790951242000,0.472241943359375,-0.13037793338298798,0.07931578159332275,-0.027155842632055283
1772045790961227800,0.482227783203125,-0.132466658949852,0.09428168088197708,-0.007761106360703707
1772045790971213800,0.4922138671875,-0.1291392743587494,0.1156560406088829,0.009921243414282799
1772045790981200000,0.502199951171875,-0.10994481295347214,0.1407531350851059,0.008762502111494541
1772045790991185000,0.512184814453125,-0.08077993988990784,0.1443505734205246,-0.01765885204076767
1772045791001171000,0.5221708984375,-0.04243628308176994,0.12668849527835846,-0.06319305300712585
1772045791011157000,0.532156982421875,-0.004696592688560486,0.08224796503782272,-0.10856737941503525
1772045791021142000,0.54214208984375,0.030132494866847992,0.03878464549779892,-0.14138180017471313
1772045791031127800,0.5521279296875,0.06155157834291458,0.00796104222536087,-0.1667240560054779
1772045791041113900,0.56211376953125,0.09347622096538544,-0.004927058704197407,-0.17146581411361694
1772045791051100000,0.572099853515625,0.10670401901006699,-0.0020203529857099056,-0.18648020923137665
1772045791061085000,0.5820849609375,0.11219119280576706,-0.012402154505252838,-0.2080315798521042
1772045791071071000,0.592071044921875,0.11258341372013092,-0.04714415594935417,-0.22947171330451965
1772045791081056800,0.602056884765625,0.10917164385318756,-0.08622737228870392,-0.2402026653289795
1772045791091041800,0.612041748046875,0.08370474725961685,-0.12451958656311035,-0.22461281716823578
1772045791101027800,0.62202783203125,0.04171016067266464,-0.15729139745235443,-0.17754755914211273
1772045791111014000,0.632013916015625,-0.012334121391177177,-0.17972031235694885,-0.10774602741003036
1772045791120999000,0.6419990234375,-0.08174142986536026,-0.20484431087970734,-0.03377566114068031
1772045791130985000,0.65198486328125,-0.1516890972852707,-0.23389899730682373,0.03379799425601959
1772045791140971000,0.661970947265625,-0.21510642766952515,-0.26368245482444763,0.08649609237909317
1772045791150956800,0.671956787109375,-0.2532994747161865,-0.3038519620895386,0.1270821988582611
1772045791160941800,0.68194189453125,-0.2635726034641266,-0.3336990773677826,0.16641469299793243
1772045791170928000,0.69192822265625,-0.25820571184158325,-0.3506094515323639,0.21135278046131134
1772045791180914000,0.701913818359375,-0.24920342862606049,-0.3703557252883911,0.2535098195075989
1772045791190899000,0.71189892578125,-0.23833906650543213,-0.3860619366168976,0.27628466486930847
1772045791200884700,0.721884765625,-0.2168974131345749,-0.3906969130039215,0.2669561505317688
1772045791210871000,0.73187109375,-0.19458401203155518,-0.37559378147125244,0.23503732681274414
1772045791220856800,0.74185693359375,-0.17000675201416016,-0.33092060685157776,0.1777857542037964
1772045791230841900,0.751841796875,-0.14574822783470154,-0.26827502250671387,0.1063079684972763
1772045791240828000,0.761827880859375,-0.14378121495246887,-0.230451762676239,0.05385354533791542
1772045791250814000,0.77181396484375,-0.15515448153018951,-0.20998114347457886,0.024375900626182556
1772045791260799000,0.781799072265625,-0.16832832992076874,-0.17725595831871033,0.006995577830821276
1772045791270784800,0.79178466796875,-0.1780899465084076,-0.13025625050067902,-0.008037284016609192
1772045791280771000,0.80177099609375,-0.17709124088287354,-0.08678281307220459,-0.018581537529826164
1772045791290756000,0.811756103515625,-0.16748970746994019,-0.043431349098682404,-0.041540034115314484
1772045791300742000,0.821741943359375,-0.15568628907203674,-0.007018482778221369,-0.05301479622721672
1772045791310728000,0.83172802734375,-0.1359371840953827,0.01980283297598362,-0.047394365072250366
1772045791320714200,0.84171435546875,-0.1117333173751831,0.028427746146917343,-0.0300153736025095
1772045791330699300,0.85169921875,-0.08456526696681976,0.025802800431847572,-0.016712728887796402
1772045791340685300,0.861685302734375,-0.06476865708827972,0.02224029041826725,-0.00635010190308094
1772045791350671400,0.87167138671875,-0.05644945800304413,-0.0009408829500898719,-0.0034605602268129587
1772045791360656400,0.881656494140625,-0.0629531666636467,-0.02848702296614647,-0.014761152677237988
1772045791370642200,0.89164208984375,-0.08126123249530792,-0.05032574385404587,-0.046839773654937744
1772045791380628200,0.901628173828125,-0.10455404222011566,-0.054152172058820724,-0.07996257394552231
1772045791390614300,0.9116142578125,-0.13597196340560913,-0.05512116476893425,-0.10882820188999176
1772045791400599300,0.921599365234375,-0.1581643521785736,-0.06779195368289948,-0.12503540515899658
1772045791410585300,0.93158544921875,-0.16963590681552887,-0.07536913454532623,-0.12339301407337189
1772045791420571400,0.9415712890625,-0.16656234860420227,-0.08612297475337982,-0.10567926615476608
1772045791430556400,0.951556396484375,-0.1546577513217926,-0.07577624171972275,-0.08589246869087219
1772045791440542200,0.961542236328125,-0.1428399682044983,-0.06542587280273438,-0.059490419924259186
1772045791450528300,0.9715283203125,-0.1325901299715042,-0.05400276929140091,-0.034701522439718246
1772045791460513300,0.98151318359375,-0.12525738775730133,-0.04251682013273239,-0.03262985125184059
1772045791470499300,0.991499267578125,-0.13348740339279175,-0.021510476246476173,-0.04750390723347664
1772045791480485000,1.001485107421875,-0.12786254286766052,0.012356145307421684,-0.06365597248077393
1772045791490471400,1.011471435546875,-0.12502090632915497,0.055577293038368225,-0.07849477231502533
1772045791500456400,1.02145654296875,-0.11788629740476608,0.09336408972740173,-0.0708131492137909
1772045791510442200,1.031442138671875,-0.09704232215881348,0.12048496305942535,-0.062498848885297775
1772045791520428300,1.04142822265625,-0.0773751437664032,0.11323770135641098,-0.060937169939279556
1772045791530413300,1.051413330078125,-0.07037334144115448,0.09715554118156433,-0.07246823608875275
1772045791540399400,1.0613994140625,-0.07465942949056625,0.08635136485099792,-0.09034816175699234
1772045791550385200,1.07138525390625,-0.086998850107193,0.09044472873210907,-0.11419343203306198
1772045791560370200,1.0813701171875,-0.10289659351110458,0.11366882175207138,-0.13722337782382965
1772045791570356500,1.0913564453125,-0.12571294605731964,0.15435558557510376,-0.1579214632511139
1772045791580342300,1.10134228515625,-0.1562788486480713,0.19652193784713745,-0.16134709119796753
1772045791590328300,1.111328369140625,-0.19314992427825928,0.2229008674621582,-0.14230072498321533
1772045791600313000,1.12131298828125,-0.22383567690849304,0.22965145111083984,-0.10128004848957062
1772045791610299400,1.13129931640625,-0.24786919355392456,0.20898060500621796,-0.049054570496082306
1772045791620285200,1.14128515625,-0.2679819166660309,0.17448867857456207,0.004259518347680569
1772045791630270200,1.151270263671875,-0.2809133231639862,0.1321808099746704,0.04940985515713692
1772045791640256500,1.161256591796875,-0.30063456296920776,0.10447008907794952,0.07877413928508759
1772045791650242300,1.1712421875,-0.3224252462387085,0.08016586303710938,0.10437534004449844
1772045791660228400,1.181228271484375,-0.34745121002197266,0.06748415529727936,0.12328324466943741
1772045791670213000,1.191213134765625,-0.3714469373226166,0.06518061459064484,0.1308525800704956
1772045791680199400,1.201199462890625,-0.38919797539711,0.07045500725507736,0.1279934048652649
1772045791690185200,1.211185302734375,-0.3894641697406769,0.07581603527069092,0.10941623896360397
1772045791700170200,1.221170166015625,-0.3803063631057739,0.08223424851894379,0.07018707692623138
1772045791710156300,1.23115625,-0.3711922764778137,0.08036235719919205,0.029495488852262497
1772045791720142300,1.241142333984375,-0.3623753488063812,0.06782206147909164,0.01335886213928461
1772045791730127400,1.25112744140625,-0.3755023777484894,0.05740156024694443,0.02536185085773468
1772045791740113200,1.261113037109375,-0.4193609356880188,0.057083044201135635,0.05635492131114006
1772045791750099200,1.27109912109375,-0.4526921808719635,0.048893917351961136,0.098611980676651
1772045791760085200,1.281085205078125,-0.45880043506622314,0.04008045047521591,0.13439792394638062
1772045791770070300,1.2910703125,-0.4412492513656616,0.032909005880355835,0.15660659968852997
1772045791780056300,1.301056396484375,-0.41466715931892395,0.025395691394805908,0.150217667222023
1772045791790042400,1.31104248046875,-0.39678293466567993,0.03421173617243767,0.12614646553993225
1772045791800027400,1.32102734375,-0.38752683997154236,0.05647176504135132,0.09236826747655869
1772045791810013200,1.33101318359375,-0.37645143270492554,0.10833767056465149,0.06282791495323181
1772045791819999200,1.340999267578125,-0.3493276834487915,0.13458152115345,0.03941500186920166
1772045791829984300,1.350984375,-0.31751009821891785,0.14106649160385132,0.01786734163761139
1772045791839970300,1.36097021484375,-0.28314095735549927,0.12907348573207855,0.005217059515416622
1772045791849956400,1.370956298828125,-0.24642717838287354,0.12498114258050919,-0.00007736473344266415
1772045791859942100,1.380942138671875,-0.224220409989357,0.12167828530073166,-0.0013213271740823984
1772045791869927400,1.390927490234375,-0.21636411547660828,0.13615593314170837,0.010153942741453648
1772045791879913200,1.400913330078125,-0.21247908473014832,0.15504494309425354,0.037846025079488754
1772045791889899300,1.410899169921875,-0.20517946779727936,0.16004787385463715,0.06514076143503189
1772045791899884300,1.42088427734375,-0.19931945204734802,0.1551886647939682,0.09494899213314056
1772045791909870300,1.430870361328125,-0.18801718950271606,0.20436091721057892,0.12294699251651764
1772045791919856400,1.4408564453125,-0.15661904215812683,0.3819229304790497,0.10215836018323898
1772045791929841200,1.450841064453125,-0.09639545530080795,0.4235967993736267,-0.0057898215018212795
1772045791939827200,1.4608271484375,-0.06809964030981064,0.38497722148895264,-0.1478811800479889
1772045791949813200,1.470813232421875,-0.1071699932217598,0.3535381853580475,-0.24381554126739502
1772045791959799300,1.48079931640625,-0.1811281144618988,0.3544367551803589,-0.2552436888217926
1772045791969784300,1.490784423828125,-0.20145820081233978,0.3385504484176636,-0.20198723673820496
1772045791979770000,1.50077001953125,-0.1612119823694229,0.2976195216178894,-0.1406727433204651
1772045791989756400,1.51075634765625,-0.08906451612710953,0.22431805729866028,-0.10176069289445877
1772045791999741400,1.520741455078125,-0.057527363300323486,0.14164476096630096,-0.08563072979450226
1772045792009727200,1.530727294921875,-0.06731778383255005,0.08712630718946457,-0.0512077696621418
1772045792019713300,1.54071337890625,-0.09202046692371368,0.14899073541164398,-0.028441736474633217
1772045792029698300,1.5506982421875,-0.10545593500137329,0.23363681137561798,-0.0016065184026956558
1772045792039684400,1.560684326171875,-0.08702287077903748,0.2849849462509155,0.0110059455037117
1772045792049670100,1.570670166015625,-0.05523555353283882,0.32035601139068604,0.004263958893716335
1772045792059656400,1.580656494140625,0.01752866432070732,0.27913880348205566,-0.012601307593286037
1772045792069641500,1.590641357421875,0.0020867707207798958,0.2634842097759247,-0.00008532078936696053
1772045792079627300,1.600627197265625,-0.0519985668361187,0.22811102867126465,0.029282420873641968
1772045792089613300,1.61061328125,-0.08805328607559204,0.17563104629516602,0.07240234315395355
1772045792099598300,1.620598388671875,-0.05581119656562805,0.09147275984287262,0.09240001440048218
1772045792109584400,1.63058447265625,0.0015153111889958382,-0.015296832658350468,0.08545098453760147
1772045792119570200,1.640570068359375,0.027469415217638016,-0.06330643594264984,0.08085942268371582
1772045792129555200,1.65055517578125,0.017096197232604027,-0.08190275728702545,0.09218434989452362
1772045792139541500,1.66054150390625,-0.03133977949619293,-0.02754897065460682,0.1206255778670311
1772045792149527300,1.67052734375,0.0034061362966895103,-0.007368423044681549,0.11990134418010712
1772045792159513300,1.680513427734375,0.08610127866268158,-0.009688302874565125,0.11153794825077057
1772045792169498000,1.690498046875,0.13028010725975037,-0.07114997506141663,0.09117230027914047
1772045792179484400,1.700484375,0.1448127031326294,-0.110991932451725,0.07747752964496613
1772045792189470200,1.71047021484375,0.15630218386650085,-0.1446736454963684,0.07380278408527374
1772045792199455200,1.720455322265625,0.18398600816726685,-0.1792883425951004,0.07139341533184052
1772045792209441300,1.730441162109375,0.20165112614631653,-0.21143119037151337,0.07012059539556503
1772045792219427300,1.74042724609375,0.21016950905323029,-0.22916863858699799,0.07141914963722229
1772045792229412400,1.750412353515625,0.2047383338212967,-0.23226740956306458,0.06799393892288208
1772045792239398100,1.760398193359375,0.2000754028558731,-0.2304742932319641,0.0657302513718605
1772045792249384400,1.770384521484375,0.19124484062194824,-0.24830202758312225,0.0639122799038887
1772045792259370200,1.780370361328125,0.19180037081241608,-0.2679345905780792,0.060014478862285614
1772045792269355300,1.790355224609375,0.18536248803138733,-0.26907578110694885,0.06998065114021301
1772045792279341300,1.80034130859375,0.18352678418159485,-0.26315876841545105,0.08970429003238678
1772045792289327400,1.810327392578125,0.18387433886528015,-0.2238226979970932,0.09692097455263138
1772045792299312400,1.8203125,0.1805294156074524,-0.2038561850786209,0.09603973478078842
1772045792309298200,1.830298095703125,0.17794466018676758,-0.1794385015964508,0.07292980700731277
1772045792319284500,1.840284423828125,0.1727307140827179,-0.15324737131595612,0.04637622460722923
1772045792329269500,1.85026953125,0.16306550800800323,-0.11345238238573074,0.026002898812294006
1772045792339255300,1.86025537109375,0.15623822808265686,-0.07890185713768005,0.005183104425668716
1772045792349241600,1.87024169921875,0.14800363779067993,-0.04593583568930626,-0.0018134554848074913
1772045792359227400,1.880227294921875,0.1392490267753601,-0.022700553759932518,-0.013500738888978958
1772045792369212400,1.89021240234375,0.14434625208377838,-0.0022171158343553543,-0.032731521874666214
1772045792379198200,1.9001982421875,0.15477998554706573,0.016307033598423004,-0.05821264907717705
1772045792389184500,1.9101845703125,0.15134534239768982,0.03221844509243965,-0.07256413251161575
1772045792399169500,1.92016943359375,0.14035873115062714,0.04928717762231827,-0.06894595921039581
1772045792409155300,1.9301552734375,0.12796777486801147,0.06970851868391037,-0.061121728271245956
1772045792419141600,1.9401416015625,0.12417971342802048,0.10233543813228607,-0.05542575567960739
1772045792429126400,1.95012646484375,0.11736617237329483,0.10421545058488846,-0.041065897792577744
1772045792439112400,1.960112548828125,0.10155472159385681,0.10704293102025986,-0.021556641906499863
1772045792449098200,1.97009814453125,0.09896581619977951,0.10692304372787476,-0.010405055247247219
1772045792459084500,1.98008447265625,0.1026710718870163,0.10163027793169022,-0.002585482085123658
1772045792469069600,1.990069580078125,0.10702168196439743,0.08704192191362381,-0.007197616621851921
1772045792479055400,2.000055419921875,0.1121639832854271,0.05900975689291954,-0.015896299853920937
1772045792489041400,2.01004150390625,0.11668053269386292,0.023000534623861313,-0.0275993924587965
1772045792499026200,2.020026123046875,0.11642113327980042,-0.009613336063921452,-0.03792952373623848
1772045792509012500,2.030012451171875,0.11575675755739212,-0.03648103401064873,-0.05002491548657417
1772045792518998300,2.039998291015625,0.10991138964891434,-0.04996887966990471,-0.055208493024110794
1772045792528983300,2.0499833984375,0.08839328587055206,-0.06815250217914581,-0.0536111518740654
1772045792538969600,2.059969482421875,0.06661981344223022,-0.083697110414505,-0.04801185429096222
1772045792548955400,2.069955322265625,0.04366841912269592,-0.09874165803194046,-0.03754221647977829
1772045792558941400,2.07994140625,0.030184835195541382,-0.11253044009208679,-0.037520114332437515
1772045792568926200,2.08992626953125,0.023362429812550545,-0.11411701887845993,-0.04032719507813454
1772045792578912500,2.09991259765625,0.03538154065608978,-0.12298481166362762,-0.05398894473910332
1772045792588898300,2.109898193359375,0.06074497848749161,-0.1184377670288086,-0.06931095570325851
1772045792598883300,2.11988330078125,0.09512053430080414,-0.11209358274936676,-0.0703463926911354
1772045792608869400,2.129869384765625,0.13434971868991852,-0.11261876672506332,-0.06283295154571533
1772045792618855400,2.13985546875,0.17634564638137817,-0.1254996806383133,-0.04859968647360802
1772045792628840400,2.14984033203125,0.19737747311592102,-0.1421097218990326,-0.04307614639401436
1772045792638826500,2.159826416015625,0.2028399109840393,-0.1533527970314026,-0.04582798853516579
1772045792648812500,2.1698125,0.19373156130313873,-0.16468143463134766,-0.05354703962802887
1772045792658798300,2.17979833984375,0.18017606437206268,-0.17955279350280762,-0.05976232886314392
1772045792668783400,2.189783447265625,0.16437110304832458,-0.201884463429451,-0.061403147876262665
1772045792678769400,2.199769287109375,0.1480616331100464,-0.22636477649211884,-0.06295444071292877
1772045792688755500,2.20975537109375,0.13272954523563385,-0.22651226818561554,-0.060358889400959015
1772045792698740500,2.219740478515625,0.11919136345386505,-0.20650367438793182,-0.0636095404624939
1772045792708726500,2.2297265625,0.11367879062891006,-0.1848912239074707,-0.0697883889079094
1772045792718712300,2.23971240234375,0.1084323599934578,-0.16716256737709045,-0.07997284829616547
1772045792728697300,2.249697265625,0.10686977207660675,-0.15200136601924896,-0.0878024473786354
1772045792738683400,2.259683349609375,0.10168273746967316,-0.12923133373260498,-0.09162008762359619
1772045792748669400,2.26966943359375,0.09826092422008514,-0.10310444980859756,-0.08239815384149551
1772045792758654500,2.279654541015625,0.09169570356607437,-0.06549075990915298,-0.060753047466278076
1772045792768640500,2.289640625,0.09178971499204636,-0.035214878618717194,-0.0367174856364727
1772045792778626600,2.29962646484375,0.09710325300693512,-0.002121908124536276,-0.015722721815109253
1772045792788612400,2.3096123046875,0.10667778551578522,0.04361601918935776,-0.00626007653772831
1772045792798597400,2.319597412109375,0.11641563475131989,0.08286115527153015,-0.015276474878191948
1772045792808583400,2.32958349609375,0.1393423080444336,0.1109103262424469,-0.036471687257289886
1772045792818569500,2.339569580078125,0.1716216802597046,0.11994962394237518,-0.06635581701993942
1772045792828554500,2.349554443359375,0.1995578110218048,0.1478310227394104,-0.10392778366804123
1772045792838540300,2.359540283203125,0.23031893372535706,0.18276582658290863,-0.14697858691215515
1772045792848526600,2.369526611328125,0.2585335671901703,0.2153376340866089,-0.19024765491485596
1772045792858511400,2.379511474609375,0.28857722878456116,0.23166893422603607,-0.22799716889858246
1772045792868497400,2.389497314453125,0.3102070093154907,0.22689728438854218,-0.2517458498477936
1772045792878483500,2.3994833984375,0.3242032527923584,0.2057587206363678,-0.2557411193847656
1772045792888468500,2.409468505859375,0.3238525986671448,0.16583825647830963,-0.22286109626293182
1772045792898454500,2.41945458984375,0.31265559792518616,0.1123443990945816,-0.159341499209404
1772045792908440300,2.4294404296875,0.3089841306209564,0.06918596476316452,-0.08242741972208023
1772045792918426600,2.439426513671875,0.302554726600647,0.023903172463178635,-0.016749070957303047
1772045792928411400,2.449411376953125,0.28855210542678833,-0.01834166795015335,0.025493241846561432
1772045792938397400,2.4593974609375,0.277224063873291,-0.039174776524305344,0.040075648576021194
1772045792948383200,2.46938330078125,0.2717944085597992,-0.051588304340839386,0.035923246294260025
1772045792958368300,2.4793681640625,0.26452958583831787,-0.0665760412812233,0.00857311487197876
1772045792968354600,2.4893544921875,0.26326364278793335,-0.0815083384513855,-0.028597723692655563
1772045792978340400,2.49934033203125,0.2628292739391327,-0.0912507176399231,-0.07405629009008408
1772045792988325400,2.509325439453125,0.2599255442619324,-0.10135456919670105,-0.11469041556119919
1772045792998311400,2.5193115234375,0.256332129240036,-0.1132461205124855,-0.14579613506793976
1772045793008297500,2.52929736328125,0.2426256537437439,-0.12679840624332428,-0.16543960571289062
1772045793018283300,2.539283203125,0.22439846396446228,-0.1452629119157791,-0.15106786787509918
1772045793028268300,2.549268310546875,0.19782376289367676,-0.132323756814003,-0.1075705960392952
1772045793038254600,2.559254638671875,0.16609805822372437,-0.09120135754346848,-0.05895032733678818
1772045793048240400,2.569240478515625,0.13376595079898834,-0.04940278083086014,-0.02214864082634449
1772045793058225400,2.579225341796875,0.11348545551300049,0.018256692215800285,-0.013386040925979614
1772045793068211200,2.589211181640625,0.10591079294681549,0.08000581711530685,-0.015277904458343983
1772045793078197500,2.599197509765625,0.10160446166992188,0.13159817457199097,-0.038313981145620346
1772045793088182500,2.6091826171875,0.10404285043478012,0.16175393760204315,-0.06974301487207413
1772045793098168300,2.619168212890625,0.10686420649290085,0.18286721408367157,-0.09809156507253647
1772045793108154600,2.629154541015625,0.10283254832029343,0.1980130523443222,-0.12575870752334595
1772045793118139400,2.639139404296875,0.08608925342559814,0.2153952419757843,-0.13537591695785522
1772045793128125400,2.64912548828125,0.06689658761024475,0.22526824474334717,-0.1399208903312683
1772045793138111200,2.659111328125,0.042988598346710205,0.2405257523059845,-0.12725569307804108
1772045793148097500,2.66909765625,0.02558397501707077,0.2705671787261963,-0.10979989171028137
1772045793158082600,2.67908251953125,0.0015199165791273117,0.28374236822128296,-0.09083898365497589
1772045793168068400,2.689068359375,-0.021309765055775642,0.29184690117836,-0.07108711451292038
1772045793178054400,2.699054443359375,-0.0429503470659256,0.29077523946762085,-0.05471986532211304
1772045793188039400,2.709039306640625,-0.06439770013093948,0.3018430471420288,-0.04854848235845566
1772045793198025500,2.719025390625,-0.07509401440620422,0.29937827587127686,-0.04962733015418053
1772045793208011300,2.72901123046875,-0.08152139186859131,0.29190653562545776,-0.06152282655239105
1772045793217996300,2.738996337890625,-0.07475189864635468,0.2641928791999817,-0.0781545341014862
1772045793227982600,2.748982666015625,-0.05376408249139786,0.23237662017345428,-0.09427317976951599
1772045793237968400,2.758968505859375,-0.03384843096137047,0.21322371065616608,-0.10057768225669861
1772045793247953400,2.768953369140625,-0.0031611667945981026,0.20428666472434998,-0.10678133368492126
1772045793257939500,2.778939453125,0.024119455367326736,0.2054709792137146,-0.1014278456568718
1772045793267925500,2.788925537109375,0.05397778004407883,0.20198093354701996,-0.08495843410491943
1772045793277911600,2.79891162109375,0.08110394328832626,0.20410773158073425,-0.06062006950378418
1772045793287896300,2.808896240234375,0.10639042407274246,0.19606804847717285,-0.049136750400066376
1772045793297882400,2.81888232421875,0.12346047908067703,0.1732330471277237,-0.046121519058942795
1772045793307868400,2.828868408203125,0.13599006831645966,0.135034441947937,-0.048833563923835754
1772045793317853400,2.838853515625,0.1452607959508896,0.09149708598852158,-0.04846205189824104
1772045793327839200,2.848839111328125,0.1550179123878479,0.050374679267406464,-0.04770016670227051
1772045793337825300,2.8588251953125,0.16497014462947845,0.0004505283141043037,-0.04989940673112869
1772045793347810300,2.868810302734375,0.17515400052070618,-0.04672865569591522,-0.04590194299817085
1772045793357796000,2.878796142578125,0.17928989231586456,-0.08259477466344833,-0.046218324452638626
1772045793367782400,2.888782470703125,0.1892935186624527,-0.11339281499385834,-0.04672800749540329
1772045793377768200,2.898768310546875,0.19781403243541718,-0.13854104280471802,-0.04948198050260544
1772045793387753200,2.908753173828125,0.22093911468982697,-0.14225561916828156,-0.05393415689468384
1772045793397739300,2.9187392578125,0.24219432473182678,-0.13546429574489594,-0.06182697042822838
1772045793407725300,2.928725341796875,0.2718137502670288,-0.11802942305803299,-0.06647366285324097
1772045793417710300,2.93871044921875,0.3008941411972046,-0.07558102905750275,-0.07507886737585068
1772045793427696000,2.948696044921875,0.3330478370189667,-0.03221975266933441,-0.09231796115636826
1772045793437682200,2.95868212890625,0.358686625957489,0.024966036900877953,-0.12167397886514664
1772045793447667500,2.96866748046875,0.37945279479026794,0.07749795913696289,-0.14954417943954468
1772045793457653200,2.9786533203125,0.3952924907207489,0.12318475544452667,-0.17491957545280457
1772045793467639300,2.988639404296875,0.3959817886352539,0.16763952374458313,-0.19080832600593567
1772045793477624000,2.9986240234375,0.3746565282344818,0.1800951212644577,-0.18432831764221191
1772045793487610400,3.0086103515625,0.3318665325641632,0.1789846420288086,-0.17579065263271332
1772045793497596200,3.01859619140625,0.2642797529697418,0.15430060029029846,-0.15952326357364655
1772045793507582200,3.028582275390625,0.18300926685333252,0.11211332678794861,-0.12578552961349487
1772045793517567200,3.038567138671875,0.08856399357318878,0.07612708956003189,-0.07999726384878159
1772045793527553300,3.04855322265625,-0.024690546095371246,0.06286504119634628,-0.0480697825551033
1772045793537539300,3.058539306640625,-0.10309240967035294,-0.012937309220433235,-0.02096892148256302
1772045793547524000,3.068524169921875,-0.16317284107208252,-0.0672406330704689,0.012429481372237206
1772045793557510100,3.07851025390625,-0.20570698380470276,-0.09533671289682388,0.036318570375442505
1772045793567496200,3.08849609375,-0.22140079736709595,-0.11595401167869568,0.042676668614149094
1772045793577481200,3.098481201171875,-0.21579217910766602,-0.11744005978107452,0.019348176196217537
1772045793587467300,3.10846728515625,-0.19447049498558044,-0.11267536133527756,-0.02392011322081089
1772045793597453300,3.118453369140625,-0.16579943895339966,-0.10926011949777603,-0.07676787674427032
1772045793607438300,3.128438232421875,-0.12517845630645752,-0.09443195164203644,-0.12197363376617432
1772045793617424100,3.138424072265625,-0.08814161270856857,-0.048666857182979584,-0.1534692347049713
1772045793627410200,3.14841015625,-0.05088455229997635,0.0033892400097101927,-0.17191463708877563
1772045793637396200,3.158396240234375,-0.01214008592069149,0.05434589460492134,-0.17275778949260712
1772045793647381200,3.16838134765625,0.034167490899562836,0.11551578342914581,-0.1602017879486084
1772045793657367300,3.1783671875,0.08726932108402252,0.15674257278442383,-0.13825413584709167
1772045793667353000,3.18835302734375,0.12806519865989685,0.1838734894990921,-0.1122150868177414
1772045793677338400,3.19833837890625,0.16348418593406677,0.22052763402462006,-0.08197622746229172
1772045793687324200,3.20832421875,0.1897115707397461,0.2320859730243683,-0.05989028140902519
1772045793697310200,3.218310302734375,0.20771774649620056,0.23634330928325653,-0.04340424761176109
1772045793707295200,3.228295166015625,0.21935777366161346,0.22206556797027588,-0.026739470660686493
1772045793717281300,3.23828125,0.23086503148078918,0.19653357565402985,-0.016469255089759827
1772045793727267300,3.248267333984375,0.22915366291999817,0.15862543880939484,-0.011773644015192986
1772045793737252400,3.25825244140625,0.22135299444198608,0.13021457195281982,-0.001915419939905405
1772045793747238100,3.268238037109375,0.20690396428108215,0.1035415381193161,-0.0019849631935358047
1772045793757224400,3.278224365234375,0.18295229971408844,0.07789849489927292,-0.00012501142919063568
1772045793767210200,3.288210205078125,0.15898975729942322,0.05494511127471924,-0.004851022269576788
1772045793777195300,3.2981953125,0.12743236124515533,0.043863967061042786,-0.005340511444956064
1772045793787181000,3.30818115234375,0.09248679876327515,0.04203011468052864,-0.004393978044390678
1772045793797167400,3.31816748046875,0.06047852709889412,0.048980433493852615,-0.0067290375009179115
1772045793807152400,3.32815234375,0.032712891697883606,0.056307099759578705,-0.013403002172708511
1772045793817138200,3.33813818359375,0.02105730026960373,0.0610741563141346,-0.01833544299006462
1772045793827124500,3.34812451171875,0.015845630317926407,0.06679391860961914,-0.029016874730587006
1772045793837109200,3.358109130859375,0.011997628957033157,0.0693281814455986,-0.03752540796995163
1772045793847095300,3.36809521484375,0.012690583243966103,0.07348670810461044,-0.04656790569424629
1772045793857081000,3.3780810546875,0.011521456763148308,0.07600339502096176,-0.04909897223114967
1772045793867066000,3.388066162109375,0.010194813832640648,0.09000767022371292,-0.04953031614422798
1772045793877052400,3.398052490234375,0.01490195095539093,0.10312826186418533,-0.05823326110839844
1772045793887038200,3.4080380859375,0.025917869061231613,0.10156983137130737,-0.0685625895857811
1772045793897024300,3.418024169921875,0.04183078929781914,0.09684857726097107,-0.08164110779762268
1772045793907009300,3.42800927734375,0.06855349242687225,0.0895443707704544,-0.09202928841114044
1772045793916995300,3.437995361328125,0.08237025141716003,0.08682235330343246,-0.09001407027244568
1772045793926981000,3.447981201171875,0.1006496325135231,0.08504091948270798,-0.07418239116668701
1772045793936966100,3.457966064453125,0.12294534593820572,0.09270123392343521,-0.05411280691623688
1772045793946952400,3.467952392578125,0.14415620267391205,0.09470304846763611,-0.03980560600757599
1772045793956938200,3.477938232421875,0.16422632336616516,0.09948288649320602,-0.029453366994857788
1772045793966923300,3.48792333984375,0.18084008991718292,0.10191856324672699,-0.018307875841856003
1772045793976909000,3.497908935546875,0.1909145563840866,0.10535883903503418,-0.007019536569714546
1772045793986895400,3.507895263671875,0.2067008912563324,0.10677945613861084,-0.0033027315512299538
1772045793996880400,3.51788037109375,0.2123928666114807,0.10084380209445953,-0.005869219545274973
1772045794006866200,3.5278662109375,0.2175409197807312,0.09977765381336212,-0.010110306553542614
1772045794016852200,3.537852294921875,0.2178857922554016,0.10590319335460663,-0.01710536517202854
1772045794026837200,3.547837158203125,0.21760013699531555,0.11284144967794418,-0.02483062818646431
1772045794036823300,3.5578232421875,0.2187226414680481,0.11696802079677582,-0.030298631638288498
1772045794046809000,3.56780908203125,0.21604880690574646,0.1157098338007927,-0.039575640112161636
1772045794056795400,3.57779541015625,0.2132388949394226,0.10535147041082382,-0.03864486515522003
1772045794066780400,3.587780517578125,0.20565100014209747,0.09265174716711044,-0.02786046825349331
1772045794076766200,3.59776611328125,0.19287341833114624,0.06957145780324936,-0.016536440700292587
1772045794086752300,3.607752197265625,0.18619243800640106,0.0546477735042572,-0.006655158009380102
1772045794096737000,3.617737060546875,0.1787470281124115,0.03517340496182442,-0.0004878093022853136
1772045794106723300,3.627723388671875,0.16609826683998108,0.02310401014983654,0.0042968811467289925
1772045794116709000,3.637709228515625,0.15698333084583282,0.0052626957185566425,0.010336130857467651
1772045794126694100,3.647694091796875,0.14793053269386292,-0.0033874395303428173,0.005383990705013275
1772045794136680400,3.657680419921875,0.1412811577320099,-0.016370084136724472,-0.0011282369960099459
1772045794146666200,3.667666259765625,0.13329365849494934,-0.027611903846263885,-0.005587533116340637
1772045794156651300,3.6776513671875,0.13131463527679443,-0.04261961579322815,-0.014614051207900047
1772045794166637000,3.687636962890625,0.12754715979099274,-0.061233241111040115,-0.015818774700164795
1772045794176623400,3.697623291015625,0.12343789637088776,-0.08034275472164154,-0.013791308738291264
1772045794186608400,3.7076083984375,0.11738856881856918,-0.09698693454265594,-0.0039776889607310295
1772045794196594200,3.71759423828125,0.10924382507801056,-0.10496710240840912,0.008753819391131401
1772045794206580200,3.727580322265625,0.10090848058462143,-0.10829245299100876,0.020165886729955673
1772045794216566300,3.737566162109375,0.0932481586933136,-0.09744832664728165,0.019512612372636795
1772045794226551300,3.74755126953125,0.08314580470323563,-0.07449699193239212,0.01982201635837555
1772045794236537300,3.757537353515625,0.07706287503242493,-0.05450117960572243,0.0071371132507920265
1772045794246523100,3.767523193359375,0.07042469084262848,-0.021895913407206535,-0.018919840455055237
1772045794256508400,3.77750830078125,0.0664195641875267,0.009365069679915905,-0.04206457361578941
1772045794266494200,3.787494140625,0.06378062814474106,0.040035709738731384,-0.07326345145702362
1772045794276480300,3.797480224609375,0.06017870455980301,0.06595972180366516,-0.10062450170516968
1772045794286465300,3.80746533203125,0.05259136110544205,0.08868146687746048,-0.12577064335346222
1772045794296451300,3.817451416015625,0.055160246789455414,0.11800126731395721,-0.15078306198120117
1772045794306437400,3.827437255859375,0.07057826220989227,0.15337178111076355,-0.16443970799446106
1772045794316422100,3.837422119140625,0.09532089531421661,0.19225339591503143,-0.16794762015342712
1772045794326408400,3.847408447265625,0.12244170159101486,0.22824276983737946,-0.15718260407447815
1772045794336394200,3.857394287109375,0.16367888450622559,0.26328223943710327,-0.14693155884742737
1772045794346380500,3.867380615234375,0.1992054581642151,0.27552321553230286,-0.13004446029663086
1772045794356365600,3.877365478515625,0.24405229091644287,0.2710099518299103,-0.11854066699743271
1772045794366351400,3.887351318359375,0.27483421564102173,0.24204124510288239,-0.10088389366865158
1772045794376337400,3.89733740234375,0.2952020764350891,0.1928526610136032,-0.0837365984916687
1772045794386322200,3.907322265625,0.30926182866096497,0.14609526097774506,-0.06070709973573685
1772045794396308500,3.91730859375,0.3086934983730316,0.09395722299814224,-0.02402258664369583
1772045794406294300,3.927294189453125,0.29649776220321655,0.04899889603257179,0.020467309281229973
1772045794416279300,3.937279296875,0.280810683965683,0.028801213949918747,0.07170146703720093
1772045794426265600,3.947265625,0.2539116442203522,0.014778648503124714,0.11815463751554489
1772045794436251400,3.95725146484375,0.21481938660144806,0.023535655811429024,0.154261514544487
1772045794446236400,3.967236328125,0.172179713845253,0.034023016691207886,0.16691026091575623
1772045794456222200,3.97722216796875,0.12161321938037872,0.0502813495695591,0.16049817204475403
1772045794466208500,3.98720849609375,0.061501938849687576,0.05383773520588875,0.13936784863471985
1772045794476194300,3.9971943359375,0.012342116795480251,0.048762015998363495,0.11422094702720642
1772045794486179300,4.007179443359375,-0.02730548195540905,0.04035498946905136,0.09182048588991165
1772045794496165400,4.017165283203125,-0.0653306320309639,0.03113645687699318,0.07015673071146011
1772045794506151400,4.0271513671875,-0.09900294244289398,0.028130097314715385,0.05257517844438553
1772045794516136400,4.037136474609375,-0.12605959177017212,0.023560380563139915,0.0343618206679821
1772045794526122200,4.047122314453125,-0.14923585951328278,0.01610420271754265,0.022081967443227768
1772045794536108500,4.057108642578125,-0.16144990921020508,0.017415277659893036,0.0070968917571008205
1772045794546093600,4.067093505859375,-0.15835468471050262,0.02418888546526432,-0.012267466634511948
1772045794556079400,4.077079345703125,-0.1446756273508072,0.040593162178993225,-0.03429580107331276
1772045794566065400,4.0870654296875,-0.13176320493221283,0.05784445255994797,-0.04884902387857437
1772045794576050200,4.09705029296875,-0.11685455590486526,0.07362048327922821,-0.05659802258014679
1772045794586036500,4.107036376953125,-0.10547300428152084,0.07514967024326324,-0.05594448372721672
1772045794596022300,4.117022216796875,-0.09196971356868744,0.0743001252412796,-0.045016467571258545
1772045794606007300,4.12700732421875,-0.08327916264533997,0.06910660117864609,-0.03475528210401535
1772045794615993300,4.136993408203125,-0.08067432045936584,0.059403106570243835,-0.01922079734504223
1772045794625979400,4.1469794921875,-0.07207585126161575,0.046286024153232574,-0.007308155298233032
1772045794635965400,4.15696533203125,-0.06427571922540665,0.028229527175426483,-0.004567762836813927
1772045794645950200,4.1669501953125,-0.06285522133111954,0.012433076277375221,-0.010686715133488178
1772045794655936500,4.1769365234375,-0.06970007717609406,0.001063775853253901,-0.020267702639102936
1772045794665922300,4.18692236328125,-0.0825827494263649,-0.0024660597555339336,-0.03710058331489563
1772045794675907300,4.1969072265625,-0.10229440033435822,0.01342342421412468,-0.062098611146211624
1772045794685893400,4.206893310546875,-0.12478324770927429,0.02845541201531887,-0.08917558193206787
1772045794695879400,4.21687939453125,-0.14892959594726562,0.04350493475794792,-0.12059289962053299
1772045794705864400,4.226864501953125,-0.1697002798318863,0.04919632151722908,-0.1406267136335373
1772045794715850200,4.236850341796875,-0.20104515552520752,0.05631574988365173,-0.1468835473060608
1772045794725836300,4.246836181640625,-0.23447555303573608,0.06049336493015289,-0.14678213000297546
1772045794735821600,4.256821533203125,-0.2766192853450775,0.05799452215433121,-0.1232704147696495
1772045794745807400,4.266807373046875,-0.3190729022026062,0.05116250365972519,-0.09064845740795135
1772045794755793400,4.27679345703125,-0.363251268863678,0.031645793467760086,-0.05343770608305931
1772045794765778200,4.286778076171875,-0.4023160934448242,0.004027912858873606,-0.01761718839406967
1772045794775764500,4.296764404296875,-0.4280227720737457,-0.019211629405617714,0.0069592613726854324
1772045794785750300,4.306750244140625,-0.4467429518699646,-0.04296587035059929,0.02246384508907795
1772045794795735300,4.3167353515625,-0.45555776357650757,-0.06617318838834763,0.027782177552580833
1772045794805721300,4.326721435546875,-0.45962780714035034,-0.0807223990559578,0.029740329831838608
1772045794815707400,4.336707275390625,-0.4551941752433777,-0.10265086591243744,0.02584891952574253
1772045794825693400,4.346693359375,-0.44832760095596313,-0.1339387446641922,0.015765316784381866
1772045794835678500,4.356678466796875,-0.43430525064468384,-0.13697314262390137,0.0038524637930095196
1772045794845664300,4.366664306640625,-0.4107549786567688,-0.1590871959924698,-0.007166980765759945
1772045794855650300,4.376650390625,-0.3740808665752411,-0.16818508505821228,-0.013086655177175999
1772045794865635300,4.38663525390625,-0.3287028670310974,-0.16604772210121155,-0.012104848399758339
1772045794875621400,4.396621337890625,-0.272990882396698,-0.1495337188243866,0.00667682895436883
1772045794885607400,4.406607421875,-0.22331874072551727,-0.1403386890888214,0.03413533791899681
1772045794895592400,4.416592529296875,-0.1858573853969574,-0.13085943460464478,0.07271602004766464
1772045794905578500,4.42657861328125,-0.16216133534908295,-0.11226095259189606,0.10697346925735474
1772045794915564300,4.436564208984375,-0.14980986714363098,-0.1067681834101677,0.1405133157968521
1772045794925549300,4.44654931640625,-0.1430273801088333,-0.10502910614013672,0.1749979704618454
1772045794935535400,4.456535400390625,-0.14806075394153595,-0.11760374903678894,0.21664847433567047
1772045794945521400,4.466521484375,-0.1608981043100357,-0.11562480032444,0.2517052888870239
1772045794955506400,4.47650634765625,-0.17366530001163483,-0.12554241716861725,0.2627798020839691
1772045794965492500,4.486492431640625,-0.18282394111156464,-0.1361183226108551,0.24675799906253815
1772045794975478500,4.496478515625,-0.19745108485221863,-0.15385496616363525,0.2154296338558197
1772045794985463300,4.50646337890625,-0.20973807573318481,-0.15067292749881744,0.17218391597270966
1772045794995449300,4.516449462890625,-0.23193925619125366,-0.14760151505470276,0.11404817551374435
1772045795005435400,4.526435302734375,-0.2653801441192627,-0.14284275472164154,0.04876480996608734
1772045795015421400,4.53642138671875,-0.30245694518089294,-0.12222562730312347,-0.011991746723651886
1772045795025406500,4.546406494140625,-0.3321854770183563,-0.09301713854074478,-0.06402330100536346
1772045795035392300,4.556392333984375,-0.3623340427875519,-0.06777623295783997,-0.09682971984148026
1772045795045378600,4.566378662109375,-0.3847479224205017,-0.052519649267196655,-0.11552814394235611
1772045795055363300,4.57636328125,-0.3942665755748749,-0.03990718349814415,-0.12611980736255646
1772045795065349400,4.586349365234375,-0.3972037136554718,-0.041401930153369904,-0.12715375423431396
1772045795075335200,4.596335205078125,-0.3945067226886749,-0.04774051904678345,-0.12063248455524445
1772045795085320400,4.606320556640625,-0.39138227701187134,-0.05814819410443306,-0.09562505036592484
1772045795095306500,4.616306396484375,-0.3856213092803955,-0.06940191239118576,-0.05905239284038544
1772045795105292300,4.626292236328125,-0.3718704283237457,-0.08415430039167404,-0.01837022230029106
1772045795115277300,4.63627734375,-0.35736283659935,-0.09719926863908768,0.017583783715963364
1772045795125263400,4.646263427734375,-0.339266836643219,-0.10531055182218552,0.04995054006576538
1772045795135249400,4.65624951171875,-0.31976714730262756,-0.10576728731393814,0.06211719289422035
1772045795145234400,4.666234375,-0.2978961765766144,-0.10332366079092026,0.06378999352455139
1772045795155220200,4.67622021484375,-0.2808644771575928,-0.0938609167933464,0.04309564083814621
1772045795165206500,4.68620654296875,-0.26800090074539185,-0.08281221985816956,0.011783174239099026
1772045795175192300,4.6961923828125,-0.2591451108455658,-0.0735207125544548,-0.026773005723953247
1772045795185177300,4.70617724609375,-0.2505203187465668,-0.0606415718793869,-0.06266951560974121
1772045795195163400,4.716163330078125,-0.24347174167633057,-0.046759311109781265,-0.09228892624378204
1772045795205149400,4.7261494140625,-0.23948535323143005,-0.029878702014684677,-0.12396547943353653
1772045795215134500,4.736134521484375,-0.24046246707439423,-0.012089584954082966,-0.14384357631206512
1772045795225120300,4.746120361328125,-0.24624060094356537,0.005900692660361528,-0.15701505541801453
1772045795235106600,4.7561064453125,-0.25620323419570923,0.012224101461470127,-0.16591773927211761
1772045795245091300,4.76609130859375,-0.2605631351470947,0.016421610489487648,-0.17544114589691162
1772045795255077400,4.776077392578125,-0.2608174681663513,0.0318642184138298,-0.17641186714172363
1772045795265063200,4.786063232421875,-0.2604830265045166,0.039630431681871414,-0.1741846799850464
1772045795275048200,4.796048095703125,-0.25977036356925964,0.03624581918120384,-0.1718115359544754
1772045795285034500,4.806034423828125,-0.2526007294654846,0.0343116894364357,-0.14595063030719757
1772045795295020300,4.816020263671875,-0.2509154975414276,0.019920235499739647,-0.11029969155788422
1772045795305005300,4.82600537109375,-0.2521522641181946,-0.003958814777433872,-0.07585468888282776
1772045795314991400,4.835991455078125,-0.25046753883361816,-0.01595156081020832,-0.043628841638565063
1772045795324976000,4.84597607421875,-0.24803434312343597,-0.020076172426342964,-0.02953755110502243
1772045795334961200,4.855961181640625,-0.25538042187690735,-0.01891130581498146,-0.028264828026294708
1772045795344947500,4.865947509765625,-0.2678537964820862,-0.01289819460362196,-0.032253362238407135
1772045795354933200,4.875933349609375,-0.28306710720062256,-0.003414677921682596,-0.038084354251623154
1772045795364918300,4.885918212890625,-0.29353854060173035,-0.00396836269646883,-0.0344112366437912
1772045795374904300,4.895904296875,-0.30249154567718506,-0.006825934164226055,-0.031268175691366196
1772045795384890400,4.905890380859375,-0.30409860610961914,-0.007238768972456455,-0.02657005563378334
1772045795394876200,4.915876220703125,-0.303882360458374,-0.001288468251004815,-0.02614687941968441
1772045795404861200,4.925861083984375,-0.3091551661491394,0.009731217287480831,-0.03578817844390869
1772045795414847500,4.935847412109375,-0.31167930364608765,0.006890690419822931,-0.03385552018880844
1772045795424833300,4.945833251953125,-0.31128084659576416,-0.0033541868906468153,-0.020059406757354736
1772045795434818300,4.955818359375,-0.3064650595188141,-0.025729266926646233,0.005966600961983204
1772045795444804000,4.96580419921875,-0.302724689245224,-0.04150759428739548,0.03680074214935303
1772045795454790400,4.975790283203125,-0.2929239869117737,-0.054560545831918716,0.06761005520820618
1772045795464775400,4.985775390625,-0.2782823145389557,-0.06925859302282333,0.08496896922588348
1772045795474761200,4.99576123046875,-0.26299574971199036,-0.0746522918343544,0.09182767570018768
1772045795484747500,5.00574755859375,-0.24695955216884613,-0.06272518634796143,0.09180710464715958
1772045795494732300,5.015732177734375,-0.22884607315063477,-0.051044292747974396,0.08059759438037872
1772045795504718300,5.02571826171875,-0.2084660530090332,-0.03856217861175537,0.06975290924310684
1772045795514704100,5.0357041015625,-0.19302797317504883,-0.0288070198148489,0.06295492500066757
1772045795524689200,5.045689208984375,-0.16983133554458618,-0.01626013219356537,0.05186138674616814
1772045795534675500,5.055675537109375,-0.15356820821762085,-0.009603560902178288,0.03808405622839928
1772045795544661200,5.0656611328125,-0.1419460028409958,0.002276085549965501,0.030690422281622887
1772045795554646300,5.075646240234375,-0.13811691105365753,0.021049240604043007,0.028356162831187248
1772045795564632000,5.085632080078125,-0.13618957996368408,0.03252539411187172,0.025028953328728676
1772045795574618400,5.095618408203125,-0.13201746344566345,0.042292270809412,0.026212995871901512
1772045795584604200,5.105604248046875,-0.13025207817554474,0.05164897069334984,0.024519750848412514
1772045795594589200,5.115589111328125,-0.12676814198493958,0.05136321485042572,0.02196338213980198
1772045795604575500,5.125575439453125,-0.11751095950603485,0.047968268394470215,0.019738584756851196
1772045795614561300,5.135561279296875,-0.10929244011640549,0.051820531487464905,0.014208797365427017
1772045795624546300,5.14554638671875,-0.10816390812397003,0.04968368634581566,0.0075043924152851105
1772045795634532000,5.155531982421875,-0.10325117409229279,0.052737269550561905,0.0030047153122723103
1772045795644518400,5.165518310546875,-0.09552079439163208,0.04535497725009918,-0.000009056413546204567
1772045795654503400,5.17550341796875,-0.08384522795677185,0.03807389736175537,0.00017949542962014675
1772045795664489200,5.1854892578125,-0.07710984349250793,0.02787679061293602,0.00612520519644022
1772045795674475300,5.195475341796875,-0.07612713426351547,0.025377146899700165,0.014723487198352814
1772045795684460300,5.205460205078125,-0.07291456311941147,0.019190624356269836,0.02511487528681755
1772045795694446300,5.2154462890625,-0.06965991854667664,0.009858374483883381,0.03558029979467392
1772045795704432000,5.22543212890625,-0.06739027798175812,-0.0023663367610424757,0.04613089933991432
1772045795714417200,5.235417236328125,-0.06516813486814499,-0.007719289977103472,0.05011232569813728
1772045795724403500,5.245403564453125,-0.06885728985071182,-0.007577239070087671,0.051896486431360245
1772045795734389200,5.25538916015625,-0.07079020887613297,-0.008718935772776604,0.044793300330638885
1772045795744374300,5.265374267578125,-0.07059922069311142,-0.016655651852488518,0.038761649280786514
1772045795754360300,5.2753603515625,-0.07396066188812256,-0.017554203048348427,0.034849997609853745
1772045795764346400,5.285346435546875,-0.07148910313844681,0.00033207423985004425,0.049929119646549225
1772045795774332200,5.295332275390625,-0.06999081373214722,0.01866181381046772,0.06355118751525879
1772045795784317200,5.305317138671875,-0.07596850395202637,0.031457412987947464,0.067728690803051
1772045795794303200,5.31530322265625,-0.07689635455608368,0.052756574004888535,0.060088083148002625
1772045795804289300,5.325289306640625,-0.07500801980495453,0.07004550844430923,0.044539522379636765
1772045795814274300,5.3352744140625,-0.0650203675031662,0.08307661861181259,0.024759691208600998
1772045795824260400,5.34526025390625,-0.06141690909862518,0.08631174266338348,0.0014675387647002935
1772045795834246400,5.355246337890625,-0.05779261142015457,0.08029033243656158,-0.02162446454167366
1772045795844231400,5.3652314453125,-0.056473057717084885,0.07378993183374405,-0.04206603020429611
1772045795854217200,5.37521728515625,-0.05921424925327301,0.06056253984570503,-0.05148882791399956
1772045795864203300,5.385203369140625,-0.06281083822250366,0.04849574342370033,-0.04986895993351936
1772045795874188300,5.395188232421875,-0.06330113112926483,0.038762155920267105,-0.03908395394682884
1772045795884174300,5.40517431640625,-0.062193453311920166,0.03160419687628746,-0.025130176916718483
1772045795894160400,5.415160400390625,-0.06557486951351166,0.023319637402892113,-0.01361946202814579
1772045795904145200,5.425145263671875,-0.07296029478311539,0.016181260347366333,0.005866437219083309
1772045795914131500,5.43513134765625,-0.07952366024255753,0.0097795519977808,0.024541588500142097
1772045795924117200,5.4451171875,-0.08291401714086533,-0.0015959549928084016,0.03831109404563904
1772045795934102300,5.455102294921875,-0.08257792145013809,-0.015962909907102585,0.04542732611298561
1772045795944088300,5.46508837890625,-0.07963068038225174,-0.027116503566503525,0.04806775972247124
1772045795954074400,5.475074462890625,-0.0750950500369072,-0.032342955470085144,0.044939879328012466
1772045795964059400,5.485059326171875,-0.07443062961101532,-0.03759488835930824,0.03599824011325836
1772045795974045200,5.495045166015625,-0.0744926780462265,-0.03553306683897972,0.030041014775633812
1772045795984031200,5.50503125,-0.06988298892974854,-0.04243992641568184,0.024717630818486214
1772045795994016500,5.5150166015625,-0.06938391178846359,-0.047716978937387466,0.021777767688035965
1772045796004002300,5.525002197265625,-0.06159939989447594,-0.04374168440699577,0.02164642885327339
1772045796013988400,5.53498828125,-0.0581042654812336,-0.03855784237384796,0.024740222841501236
1772045796023974100,5.54497412109375,-0.05425054579973221,-0.02800356224179268,0.02760022133588791
1772045796033959400,5.55495947265625,-0.049066171050071716,-0.013287732377648354,0.026959195733070374
1772045796043945200,5.5649453125,-0.039983779191970825,-0.0037029744125902653,0.023270370438694954
1772045796053931300,5.57493115234375,-0.02906641736626625,0.007960072718560696,0.028261933475732803
1772045796063916300,5.584916259765625,-0.025965362787246704,0.019491707906126976,0.031146958470344543
1772045796073902300,5.59490234375,-0.02485748752951622,0.023882195353507996,0.03987281024456024
1772045796083888400,5.604888427734375,-0.024295587092638016,0.02654237672686577,0.04843193292617798
1772045796093873200,5.614873046875,-0.02268170937895775,0.026051823049783707,0.05236941576004028
1772045796103859200,5.624859130859375,-0.02053855173289776,0.023005353286862373,0.05972816050052643
1772045796113845200,5.63484521484375,-0.017908679321408272,0.008535599336028099,0.0597316212952137
1772045796123830300,5.644830322265625,-0.019481349736452103,-0.0037238786462694407,0.0534108504652977
1772045796133816300,5.65481640625,-0.01802113652229309,0.01145161222666502,0.057126495987176895
1772045796143802400,5.66480224609375,-0.014290442690253258,0.016927430406212807,0.06248314678668976
1772045796153787400,5.674787353515625,-0.019448187202215195,-0.00023104913998395205,0.04547540470957756
1772045796163773200,5.684773193359375,-0.021001942455768585,-0.0033261203207075596,0.03324888274073601
1772045796173759200,5.69475927734375,-0.018885526806116104,-0.004746117629110813,0.019745856523513794
1772045796183745300,5.704745361328125,-0.01923205330967903,-0.007990480400621891,0.018312795087695122
1772045796193731300,5.7147314453125,-0.028753120452165604,-0.006769420579075813,0.021278224885463715
1772045796203716400,5.72471630859375,-0.037496693432331085,-0.009541992098093033,0.027490276843309402
1772045796213702100,5.7347021484375,-0.04355405271053314,-0.01358626876026392,0.03631146624684334
1772045796223688400,5.7446884765625,-0.05153508484363556,-0.020425070077180862,0.04049687087535858
1772045796233673200,5.754673095703125,-0.0624987855553627,-0.030684897676110268,0.042697444558143616
1772045796243659300,5.7646591796875,-0.06474560499191284,-0.04195953905582428,0.038537878543138504
1772045796253645000,5.77464501953125,-0.07171989232301712,-0.04534574970602989,0.038519237190485
1772045796263630300,5.78463037109375,-0.07124096155166626,-0.04854660481214523,0.03141600638628006
1772045796273616400,5.794616455078125,-0.07457496970891953,-0.04810292273759842,0.022413989529013634
1772045796283602200,5.804602294921875,-0.07185111194849014,-0.041573699563741684,0.013903050683438778
1772045796293588500,5.81458837890625,-0.07360107451677322,-0.04427547752857208,0.012325660325586796
1772045796303573200,5.8245732421875,-0.06984392553567886,-0.04629051685333252,0.016010388731956482
1772045796313559300,5.834559326171875,-0.06981276720762253,-0.04779094457626343,0.022125806659460068
1772045796323545300,5.84454541015625,-0.06913132965564728,-0.05038708075881004,0.022806363180279732
1772045796333530400,5.8545302734375,-0.07042749226093292,-0.05260495841503143,0.02043827995657921
1772045796343516700,5.8645166015625,-0.07112354785203934,-0.049063827842473984,0.008008010685443878
1772045796353502500,5.87450244140625,-0.0662534236907959,-0.05013628304004669,-0.0038739480078220367
1772045796363487500,5.884487548828125,-0.06893076002597809,-0.05273714289069176,-0.007936827838420868
1772045796373473500,5.8944736328125,-0.06626573950052261,-0.0532442070543766,-0.008542696014046669
1772045796383459600,5.90445947265625,-0.06429528445005417,-0.05338374897837639,-0.012395886704325676
1772045796393444600,5.914444580078125,-0.062302976846694946,-0.05345538631081581,-0.012425713241100311
1772045796403430400,5.924430419921875,-0.05841337889432907,-0.056247882544994354,-0.014255024492740631
1772045796413416700,5.934416748046875,-0.05564102903008461,-0.0585579052567482,-0.01237696222960949
1772045796423401500,5.9444013671875,-0.055646203458309174,-0.05463218688964844,-0.007998156361281872
1772045796433387500,5.954387451171875,-0.05549919605255127,-0.056058309972286224,0.003625210141763091
1772045796443373600,5.96437353515625,-0.0503695085644722,-0.060681141912937164,0.016453098505735397
1772045796453358600,5.974358642578125,-0.04527301713824272,-0.05789786949753761,0.02339676022529602
1772045796463344600,5.9843447265625,-0.04477342218160629,-0.06303957849740982,0.0217636376619339
1772045796473330400,5.994330322265625,-0.041708655655384064,-0.059986263513565063,0.022875506430864334
1772045796483315500,6.0043154296875,-0.03981780260801315,-0.05567687004804611,0.018178019672632217
1772045796493301500,6.014301513671875,-0.03979836031794548,-0.04548921436071396,0.014712182804942131
1772045796503287600,6.02428759765625,-0.042298078536987305,-0.03687677159905434,0.005914751440286636
1772045796513272600,6.0342724609375,-0.03925328701734543,-0.029688097536563873,-0.0028715496882796288
1772045796523258400,6.04425830078125,-0.03704998642206192,-0.029366834089159966,-0.009634234011173248
1772045796533244700,6.05424462890625,-0.032200105488300323,-0.028386525809764862,-0.01223481073975563
1772045796543229700,6.064229736328125,-0.028888210654258728,-0.028066666796803474,-0.015657903626561165
1772045796553215500,6.074215576171875,-0.027301765978336334,-0.030110642313957214,-0.013013649731874466
1772045796563201500,6.084201416015625,-0.02294980362057686,-0.021158430725336075,-0.006762989796698093
1772045796573187600,6.0941875,-0.026787951588630676,-0.018926700577139854,-0.003603681456297636
1772045796583172600,6.104172607421875,-0.025444943457841873,-0.028682975098490715,0.0019529962446540594
1772045796593158400,6.114158447265625,-0.02362733520567417,-0.04501001536846161,0.0032052146270871162
1772045796603144700,6.124144775390625,-0.018951542675495148,-0.04823429882526398,-0.00033137411810457706
1772045796613129700,6.134129638671875,-0.014561854302883148,-0.04870567470788956,-0.0010568194556981325
1772045796623115500,6.144115478515625,-0.011587364599108696,-0.04167533665895462,-0.0012327879667282104
1772045796633101600,6.1541015625,-0.009671220555901527,-0.033045630902051926,-0.0024722227826714516
1772045796643086300,6.16408642578125,-0.0035078665241599083,-0.03417214751243591,-0.003198733553290367
1772045796653072600,6.17407275390625,0.007366885431110859,-0.03921910375356674,-0.0019558360800147057
1772045796663058400,6.184058349609375,0.013480640947818756,-0.04351992905139923,-0.004213012754917145
1772045796673043500,6.19404345703125,0.01832892745733261,-0.04455004259943962,-0.0074660638347268105
1772045796683029800,6.20402978515625,0.0188954658806324,-0.04256410896778107,-0.01283490750938654
1772045796693015600,6.214015625,0.01828560046851635,-0.028289301320910454,-0.013955299742519855
1772045796703000600,6.22400048828125,0.01999603398144245,-0.01994447223842144,-0.01149976160377264
1772045796712986400,6.233986328125,0.024178529158234596,-0.019291464239358902,-0.009560713544487953
1772045796722972700,6.24397265625,0.025304745882749557,-0.023364270105957985,-0.013994753360748291
1772045796732957700,6.253957763671875,0.029260072857141495,-0.028905509039759636,-0.01754181645810604
1772045796742943500,6.263943603515625,0.030308973044157028,-0.03258631005883217,-0.021265678107738495
1772045796752929500,6.273929443359375,0.02953825518488884,-0.03772354871034622,-0.019398003816604614
1772045796762914600,6.28391455078125,0.02651403285562992,-0.03905278816819191,-0.013110596686601639
1772045796772900600,6.293900634765625,0.027809662744402885,-0.053195770829916,-0.004816980101168156
1772045796782886400,6.303886474609375,0.027087803930044174,-0.06839612126350403,0.003484920132905245
1772045796792871400,6.313871337890625,0.02079848200082779,-0.07303641736507416,0.013233687728643417
1772045796802857700,6.323857666015625,0.013488223776221275,-0.07433786243200302,0.01845983788371086
1772045796812843500,6.333843505859375,0.0052159130573272705,-0.07143687456846237,0.019554130733013153
1772045796822828500,6.34382861328125,-0.002677353098988533,-0.0666736587882042,0.017451586201786995
1772045796832814300,6.353814453125,-0.008073183707892895,-0.05789322033524513,0.013731949031352997
1772045796842800600,6.363800537109375,-0.012099819257855415,-0.05411425232887268,0.0066470918245613575
1772045796852785700,6.37378564453125,-0.022525561973452568,-0.05092911049723625,-0.0048074303194880486
1772045796862771500,6.383771484375,-0.028316523879766464,-0.0489945113658905,-0.01195401232689619
1772045796872757500,6.393757568359375,-0.03531024977564812,-0.04318961873650551,-0.01974722184240818
1772045796882743600,6.40374365234375,-0.03667088598012924,-0.03841174393892288,-0.02175743877887726
1772045796892728600,6.413728515625,-0.041013170033693314,-0.03443590924143791,-0.018853530287742615
1772045796902714400,6.42371435546875,-0.04466664046049118,-0.024781782180070877,-0.019383732229471207
1772045796912700700,6.43370068359375,-0.047781214118003845,-0.023583892732858658,-0.018044430762529373
1772045796922685700,6.443685791015625,-0.05082390084862709,-0.02607119269669056,-0.01621677726507187
1772045796932671500,6.45367138671875,-0.049404438585042953,-0.028933558613061905,-0.015897996723651886
1772045796942657500,6.463657470703125,-0.04729150980710983,-0.0410039983689785,-0.014238519594073296
1772045796952642600,6.473642578125,-0.04355189949274063,-0.044397398829460144,-0.011433145962655544
1772045796962628600,6.483628662109375,-0.03685606271028519,-0.046504177153110504,-0.006666922941803932
1772045796972614400,6.493614501953125,-0.032315902411937714,-0.04050939902663231,0.0005963160656392574
1772045796982599400,6.503599365234375,-0.026320595294237137,-0.038973286747932434,0.0002202778123319149
1772045796992585700,6.513585693359375,-0.01924697495996952,-0.035241931676864624,0.0013963296078145504
1772045797002571500,6.523571533203125,-0.018353397026658058,-0.038825616240501404,0.0015964880585670471
1772045797012556500,6.533556640625,-0.01423961203545332,-0.03911616653203964,0.001643359661102295
1772045797022542600,6.54354248046875,-0.010553089901804924,-0.04033414646983147,-0.0012653693556785583
1772045797032528600,6.553528564453125,-0.004642469808459282,-0.0441424660384655,-0.0036009615287184715
1772045797042513700,6.563513671875,-0.0008458793163299561,-0.045724060386419296,-0.0007780841551721096
1772045797052499500,6.57349951171875,0.0028732260689139366,-0.039636872708797455,0.004704033024609089
1772045797062485500,6.583485595703125,-0.001262531615793705,-0.03402775526046753,0.007524226326495409
1772045797072470500,6.593470458984375,-0.0013890312984585762,-0.027429774403572083,0.005418198183178902
1772045797082456600,6.60345654296875,-0.0027557089924812317,-0.01214499119669199,0.008377249352633953
1772045797092442600,6.613442626953125,0.00024141278117895126,-0.0015706433914601803,0.00937859807163477
1772045797102427400,6.623427490234375,0.0032219048589468002,0.0029570756014436483,0.0023532845079898834
1772045797112413700,6.63341357421875,0.013622613623738289,-0.0005263389903120697,-0.0032068633008748293
1772045797122399500,6.6433994140625,0.019263101741671562,-0.0019113186281174421,-0.00749976746737957
1772045797132384500,6.653384521484375,0.023422425612807274,-0.0040967087261378765,-0.002443223726004362
1772045797142370600,6.66337060546875,0.02481241710484028,-0.013787816278636456,0.0013093252200633287
1772045797152356600,6.673356689453125,0.02590378187596798,-0.02154720202088356,0.012200855650007725
1772045797162341600,6.683341552734375,0.02599358931183815,-0.028123386204242706,0.03253550082445145
1772045797172327400,6.693327392578125,0.023904602974653244,-0.03667160123586655,0.06385640799999237
1772045797182313500,6.7033134765625,0.020799096673727036,-0.04035009816288948,0.0984453484416008
1772045797192299500,6.713299560546875,0.013061546720564365,-0.033280204981565475,0.11884143203496933
1772045797202284500,6.723284423828125,0.012877702713012695,-0.03198551386594772,0.12538093328475952
1772045797212270600,6.7332705078125,0.014141904190182686,-0.030552197247743607,0.1143605038523674
1772045797222256600,6.743256591796875,0.013854550197720528,-0.030489347875118256,0.09169727563858032
1772045797232241700,6.75324169921875,0.010503226891160011,-0.03189310058951378,0.06901140511035919
1772045797242227500,6.7632275390625,0.010515679605305195,-0.034743160009384155,0.04858473688364029
1772045797252213500,6.773213623046875,0.00868582259863615,-0.02712651900947094,0.029067495837807655
1772045797262198500,6.783198486328125,0.008286971598863602,-0.016382798552513123,0.010847436264157295
1772045797272184600,6.7931845703125,0.00912426970899105,-0.006555469240993261,-0.00783623568713665
1772045797282170600,6.803170654296875,0.012441210448741913,0.006415672600269318,-0.024727342650294304
1772045797292155400,6.8131552734375,0.016170434653759003,0.019507773220539093,-0.02928347699344158
1772045797302141400,6.823141357421875,0.014643138274550438,0.024086596444249153,-0.031206272542476654
1772045797312127500,6.83312744140625,0.01603277586400509,0.033312052488327026,-0.029333803802728653
1772045797322113300,6.84311328125,0.015093035064637661,0.038889382034540176,-0.02471759356558323
1772045797332099000,6.85309912109375,0.014307933859527111,0.035678405314683914,-0.01485644094645977
1772045797342085400,6.86308544921875,0.01711242087185383,0.03277222812175751,-0.008576062507927418
1772045797352070400,6.8730703125,0.01639203540980816,0.03207261487841606,-0.004582918249070644
1772045797362056200,6.88305615234375,0.013884816318750381,0.022005964070558548,-0.002882520668208599
1772045797372042200,6.893042236328125,0.01627793349325657,0.019822970032691956,-0.001333626452833414
1772045797382027300,6.90302734375,0.01654791831970215,0.01930076628923416,0.0035308231599628925
1772045797392013300,6.913013427734375,0.01801372319459915,0.01522426400333643,-0.0000388778280466795
1772045797401999400,6.922999267578125,0.016734249889850616,0.011782933957874775,-0.002316370140761137
1772045797411984100,6.932984130859375,0.014565904624760151,0.009703537449240685,-0.0003296518698334694
1772045797421970400,6.942970458984375,0.011111673898994923,0.010779126547276974,-0.004588407464325428
1772045797431956200,6.952956298828125,0.01097958069294691,0.008703725412487984,-0.006378318183124065
1772045797441941200,6.962941162109375,0.009276899509131908,0.011335023678839207,-0.0037434163969010115
1772045797451927300,6.97292724609375,0.003103691153228283,0.01721741445362568,-0.010803190059959888
1772045797461913300,6.982913330078125,-0.002991899847984314,0.02330145053565502,-0.011506833136081696
1772045797471898400,6.9928984375,-0.00780929159373045,0.02575715072453022,-0.015537794679403305
1772045797481884200,7.00288427734375,-0.01349940150976181,0.03278496488928795,-0.01768004149198532
1772045797491870500,7.012870361328125,-0.01572021096944809,0.03387127071619034,-0.022952035069465637
1772045797501855500,7.02285546875,-0.017244450747966766,0.03635235130786896,-0.025443319231271744
1772045797511841300,7.03284130859375,-0.021260231733322144,0.03678777813911438,-0.023098405450582504
1772045797521827300,7.042827392578125,-0.030756035819649696,0.03274426609277725,-0.021687602624297142
1772045797531812000,7.05281201171875,-0.03812713176012039,0.030892305076122284,-0.014010243117809296
1772045797541798400,7.06279833984375,-0.04275919869542122,0.03084126114845276,-0.00666824821382761
1772045797551784200,7.0727841796875,-0.0539439432322979,0.028459062799811363,-0.0009182167705148458
1772045797561769200,7.082769287109375,-0.06208276376128197,0.0229825209826231,0.008666440844535828
1772045797571755500,7.092755615234375,-0.07298335433006287,0.0187720637768507,0.021584637463092804
1772045797581741300,7.1027412109375,-0.07718978822231293,0.025080038234591484,0.03344530612230301
1772045797591727400,7.112727294921875,-0.0823640450835228,0.027632946148514748,0.055564455687999725
1772045797601712000,7.122712158203125,-0.0879729837179184,0.03093690425157547,0.06961148977279663
1772045797611698400,7.132698486328125,-0.0981406643986702,0.044746991246938705,0.08124843239784241
1772045797621684200,7.142684326171875,-0.10780820995569229,0.05305980145931244,0.08239558339118958
1772045797631669200,7.152669189453125,-0.11005431413650513,0.05274128541350365,0.07854998111724854
1772045797641655300,7.1626552734375,-0.09963611513376236,0.04542010650038719,0.07197462022304535
1772045797651641300,7.172641357421875,-0.08898933231830597,0.051724873483181,0.08048129081726074
1772045797661626400,7.18262646484375,-0.08127087354660034,0.06263826787471771,0.09792787581682205
1772045797671612200,7.192612060546875,-0.06563226133584976,0.06733501702547073,0.11070598661899567
1772045797681598200,7.20259814453125,-0.04271605238318443,0.06558139622211456,0.11894001066684723
1772045797691583500,7.21258349609375,-0.024119999259710312,0.06355898827314377,0.12148865312337875
1772045797701569300,7.2225693359375,-0.01648588851094246,0.05442775413393974,0.11984405666589737
1772045797711555300,7.232555419921875,-0.02516166865825653,0.030068621039390564,0.10925372689962387
1772045797721540000,7.2425400390625,-0.02785845845937729,0.015298000536859035,0.09620415419340134
1772045797731526400,7.2525263671875,0.1911149024963379,0.07161453366279602,0.1300998032093048
1772045797741512200,7.26251220703125,0.4434928894042969,0.03934181109070778,0.1639658510684967
1772045797751497200,7.272497314453125,0.536491870880127,-0.1077943742275238,0.14421504735946655
1772045797761483300,7.282483154296875,0.5667390823364258,-0.22529633343219757,0.11781623214483261
1772045797771469300,7.29246923828125,0.578831672668457,-0.260621041059494,0.09280461817979813
1772045797781454300,7.302454345703125,0.5899718403816223,-0.23115494847297668,0.07777650654315948
1772045797791440100,7.312440185546875,0.5958449244499207,-0.20190012454986572,0.08954980969429016
1772045797801426400,7.322426513671875,0.5521560907363892,-0.1992514580488205,0.10966362059116364
1772045797811411500,7.332411376953125,0.46777382493019104,-0.20152099430561066,0.11753538995981216
1772045797821397200,7.342397216796875,0.3586248457431793,-0.207963764667511,0.11721505224704742
1772045797831383300,7.35238330078125,0.2531178593635559,-0.2336462289094925,0.10082222521305084
1772045797841368300,7.362368408203125,0.18551555275917053,-0.2362915575504303,0.0824923887848854
1772045797851354400,7.372354248046875,0.15057887136936188,-0.23503908514976501,0.08553797751665115
1772045797861340200,7.382340087890625,0.13578449189662933,-0.23740313947200775,0.11654850095510483
1772045797871325200,7.3923251953125,0.12207268923521042,-0.24620382487773895,0.1536567211151123
1772045797881311200,7.402311279296875,0.11194466054439545,-0.2486858069896698,0.17940182983875275
1772045797891297300,7.41229736328125,0.11364268511533737,-0.21317894756793976,0.18673378229141235
1772045797901282300,7.4222822265625,0.12726067006587982,-0.20857326686382294,0.1818852722644806
1772045797911268400,7.432268310546875,0.15541428327560425,-0.18978813290596008,0.16066546738147736
1772045797921254400,7.44225439453125,0.16693967580795288,-0.16602736711502075,0.13443973660469055
1772045797931239400,7.452239501953125,0.14701470732688904,-0.17179976403713226,0.09582655876874924
1772045797941225200,7.46222509765625,0.10705503076314926,-0.18394844233989716,0.04426915943622589
1772045797951211300,7.472211181640625,0.1018805131316185,-0.18649283051490784,0.007515940815210342
1772045797961196300,7.4821962890625,0.1135857030749321,-0.18208414316177368,0.005879842210561037
1772045797971182300,7.492182373046875,0.1116543710231781,-0.16952361166477203,0.03426381200551987
1772045797981168400,7.50216845703125,0.08276958018541336,-0.16580365598201752,0.0552646666765213
1772045797991153200,7.512153076171875,0.030237659811973572,-0.15893377363681793,0.06065889820456505
1772045798001139500,7.522139404296875,-0.016201741993427277,-0.15632320940494537,0.059328846633434296
1772045798011125200,7.532125244140625,-0.04409995302557945,-0.13724592328071594,0.06405915319919586
1772045798021110300,7.5421103515625,-0.06002606451511383,-0.11518250405788422,0.05626397579908371
1772045798031096300,7.552096435546875,-0.07012850046157837,-0.11341682821512222,0.04272233322262764
1772045798041082400,7.562082275390625,-0.07517046481370926,-0.11184845119714737,0.018838759511709213
1772045798051067400,7.5720673828125,-0.07366178184747696,-0.11113712191581726,-0.0049461983144283295
1772045798061053200,7.58205322265625,-0.06331604719161987,-0.1104133278131485,-0.017746910452842712
1772045798071039200,7.592039306640625,-0.06061054393649101,-0.11330045759677887,-0.03621114045381546
1772045798081024500,7.6020244140625,-0.05726807191967964,-0.11544186621904373,-0.046305399388074875
1772045798091010300,7.61201025390625,-0.05546298250555992,-0.09575551003217697,-0.04711686447262764
1772045798100996400,7.621996337890625,-0.06541062891483307,-0.07057816535234451,-0.05305423215031624
1772045798110981000,7.631981201171875,-0.07621639966964722,-0.05728153884410858,-0.05643058940768242
1772045798120967400,7.641967529296875,-0.08976374566555023,-0.04164337366819382,-0.059584200382232666
1772045798130953200,7.651953125,-0.08968944847583771,-0.029527591541409492,-0.06016876548528671
1772045798140939300,7.661939208984375,-0.07746163010597229,-0.021529560908675194,-0.053615618497133255
1772045798150924300,7.67192431640625,-0.07239523530006409,-0.018118318170309067,-0.04335818439722061
1772045798160910300,7.681910400390625,-0.06927519291639328,0.0017886438872665167,-0.03236362338066101
1772045798170896400,7.691896484375,-0.07900212705135345,0.026668427512049675,-0.02742825262248516
1772045798180881200,7.701881103515625,-0.08760824799537659,0.03608372062444687,-0.032610729336738586
1772045798190867200,7.7118671875,-0.09222324192523956,0.030513454228639603,-0.040112320333719254
1772045798200853200,7.721853271484375,-0.07856737077236176,0.01884659193456173,-0.030992327257990837
1772045798210838300,7.73183837890625,-0.06609764695167542,0.017212476581335068,-0.019551919773221016
1772045798220824300,7.74182421875,-0.06675883382558823,0.03341888636350632,-0.0032423643860965967
1772045798230810400,7.751810302734375,-0.08525235205888748,0.0814383402466774,0.006009723525494337
1772045798240795400,7.76179541015625,-0.12888047099113464,0.147197887301445,-0.00040375697426497936
1772045798250781200,7.77178125,-0.16477695107460022,0.1952836513519287,-0.030585896223783493
1772045798260767200,7.781767333984375,-0.1508946567773819,0.1918337047100067,-0.07926426827907562
1772045798270752300,7.791752197265625,-0.11491136252880096,0.15522721409797668,-0.12761422991752625
1772045798280738300,7.80173828125,-0.09088438749313354,0.13019995391368866,-0.15362872183322906
1772045798290724400,7.811724365234375,-0.07768203318119049,0.12224908173084259,-0.1480211764574051
1772045798300709000,7.821709228515625,-0.07432324439287186,0.1316262036561966,-0.11423145979642868
1772045798310695400,7.8316953125,-0.0643121600151062,0.15152959525585175,-0.058125581592321396
1772045798320681200,7.84168115234375,-0.057765550911426544,0.16418445110321045,-0.020008016377687454
1772045798330666000,7.851666015625,-0.04262814298272133,0.19792377948760986,0.004277084022760391
1772045798340652300,7.86165234375,-0.03610094264149666,0.22649851441383362,0.01709289662539959
1772045798350638000,7.87163818359375,-0.03690281882882118,0.1897096037864685,-0.0035870817955583334
1772045798360623000,7.881623046875,-0.030755385756492615,0.13329556584358215,-0.03729543089866638
1772045798370609200,7.891609130859375,-0.027380093932151794,0.10774439573287964,-0.026978611946105957
1772045798380595200,7.90159521484375,-0.042214103043079376,0.09080915153026581,0.005527949891984463
1772045798390580200,7.911580322265625,-0.05355171114206314,0.06686148047447205,0.03930428996682167
1772045798400566000,7.92156591796875,-0.04763808101415634,0.035709429532289505,0.06889103353023529
1772045798410552000,7.931552001953125,-0.029664140194654465,-0.003496296238154173,0.07638969272375107
1772045798420537300,7.941537353515625,-0.0090064387768507,-0.03792618215084076,0.07155228406190872
1772045798430523100,7.951523193359375,0.010435434989631176,-0.07012992352247238,0.040700096637010574
1772045798440509200,7.96150927734375,0.007755965925753117,-0.10581515729427338,0.009272982366383076
1772045798450494000,7.971493896484375,0.016439203172922134,-0.09972424060106277,0.015325016342103481
1772045798460480300,7.981480224609375,0.029209688305854797,-0.06604362279176712,0.06400761753320694
1772045798470466000,7.991466064453125,0.029177997261285782,-0.05586155876517296,0.09618446230888367
1772045798480451000,8.001451171875,0.028886225074529648,-0.07022064179182053,0.0937984362244606
1772045798490437000,8.01143701171875,0.04305530712008476,-0.07133065164089203,0.07483992725610733
