time,seconds_elapsed,z,y,x
1772093639084722000,0.086721923828125,0.06560147620141506,-0.025554237571172415,0.016762608225177972
1772093639094670800,0.0966708984375,0.0724836369305849,-0.03027523821108043,0.011489754989324136
1772093639104620800,0.106620849609375,0.06125847856104374,-0.028544267966318874,0.017079930546041577
1772093639114570800,0.11657080078125,0.07323065590560436,-0.01875694211386144,0.01356348339030519
1772093639124520000,0.12652001953125,0.06560030715763568,-0.0263227194593288,0.007665118667250499
1772093639134469600,0.1364697265625,0.06784545573592185,-0.03389193087089806,0.016115122368186713
1772093639144419600,0.146419677734375,0.07113572945296764,-0.03009719649674371,0.014256881615100428
1772093639154368800,0.15636865234375,0.06485328818261624,-0.02256835362818092,0.011534132987167685
1772093639164318700,0.166318603515625,0.06425590681135654,-0.02317472202349454,0.017999036418646572
1772093639174268700,0.1762685546875,0.06904372560977935,-0.025182792176585644,0.020152953916369006
1772093639184217600,0.186217529296875,0.061707975894212716,-0.02624537990679964,0.0185627438491676
1772093639194167800,0.196167724609375,0.05452127926051616,-0.023523407597001642,0.01597311094845645
1772093639204117800,0.20611767578125,0.06903378873765469,-0.018945340825431048,0.02165609762147069
1772093639214066700,0.216066650390625,0.06424655446112155,-0.023049177681375294,0.01062060747197829
1772093639224016600,0.2260166015625,0.06559387741684913,-0.024163422533590346,0.01907162495306693
1772093639233966800,0.235966796875,0.06888532017767429,-0.015069120446592569,0.018437793162092566
1772093639243915800,0.245915771484375,0.07681435961127281,-0.02186004096204415,0.009590086247306317
1772093639253865700,0.25586572265625,0.07411679109036921,-0.018279223333206026,0.024035576636530456
1772093639263816000,0.26581591796875,0.0619961451858282,-0.02185426880838349,0.014129245780594647
1772093639273766000,0.275765869140625,0.06798515646755694,-0.027365342113748192,0.014363876520376651
1772093639283714800,0.28571484375,0.07322539520859718,-0.03454537154464051,0.01854854179387912
1772093639293664800,0.295664794921875,0.06694295393824577,-0.026566446821019052,0.024663992466870694
1772093639303615000,0.305614990234375,0.07203413959741592,-0.019179441842250525,0.024870812751119954
1772093639313564000,0.31556396484375,0.06978723745346069,-0.020677881972771137,0.026116657226905225
1772093639323513900,0.325513916015625,0.06380231782495975,-0.02846479125563055,0.019639542767824605
1772093639333463800,0.3354638671875,0.06514847173690795,-0.022282303228415547,0.016319239238696173
1772093639343413000,0.3454130859375,0.06874035874903202,-0.0304816109707579,0.021591270490642637
1772093639353362700,0.35536279296875,0.07682371196150779,-0.02686738426266238,0.015749595257733017
1772093639363312600,0.365312744140625,0.07472878550887108,-0.022405272020958364,0.020872655626200137
1772093639373261600,0.375261474609375,0.0760743548989296,-0.018299937327671795,0.019636282231658697
1772093639383211800,0.385211669921875,0.07233516837060451,-0.019459117300156502,0.018258545871358365
1772093639393161700,0.39516162109375,0.06694704559147358,-0.014264891391620039,0.009923802580544724
1772093639403110700,0.405110595703125,0.06963818437159061,-0.02224633686589077,0.02189746862929314
1772093639413060900,0.415060791015625,0.0660480509251356,-0.025125582096632567,0.019775051381532103
1772093639423010800,0.4250107421875,0.06529810934066772,-0.01891498221978545,0.020696595806395632
1772093639432959700,0.434959716796875,0.0702355657428503,-0.018639654143434017,0.01824501053635031
1772093639442909700,0.44490966796875,0.0699351214915514,-0.023836400802619753,0.014841376105323432
1772093639452860000,0.45485986328125,0.06589256810247898,-0.02714992753108963,0.017940538563905283
1772093639462809900,0.464809814453125,0.0712812754034996,-0.02362087662210688,0.012514714122889563
1772093639472758800,0.4747587890625,0.06589665975570679,-0.016241854020394384,0.0124901550703682
1772093639482708700,0.484708740234375,0.06873802066147328,-0.0209250434005633,0.017101603521732612
1772093639492659000,0.494658935546875,0.07142974396348,-0.018861078341770917,0.012424359825160354
1772093639502608000,0.50460791015625,0.06619476591944694,-0.02398556348234415,0.011382522622030228
1772093639512557800,0.514557861328125,0.07277823596298694,-0.022313611682131886,0.016937928259465843
1772093639522508000,0.524508056640625,0.07157879704535007,-0.019805300389323384,0.016746643471065907
1772093639532457000,0.53445703125,0.06319850671291351,-0.018297526174876837,0.020400005746306852
1772093639542407000,0.544406982421875,0.06723521488308906,-0.020052407018188386,0.016154833324067294
1772093639552356600,0.554356689453125,0.07725976529121399,-0.014740199019480496,0.01433355444734916
1772093639562305800,0.564305908203125,0.06752922939360141,-0.02209571288144216,0.019510171633958816
1772093639572255700,0.574255859375,0.0712725075751543,-0.019181798196118323,0.019770019013388082
1772093639582205700,0.584205810546875,0.06798223385810852,-0.031203166710957884,0.013555400548549368
1772093639592154600,0.594154541015625,0.06319616862535476,-0.029161523081827907,0.022616923743952064
1772093639602104800,0.604104736328125,0.07037994264960289,-0.02445489802714437,0.017134948668908325
1772093639612054800,0.6140546875,0.06514321103990077,-0.02694982011541724,0.016358064278587697
1772093639622003700,0.624003662109375,0.06978431484401226,-0.029168738273903726,0.014097946460032835
1772093639631953700,0.63395361328125,0.08444938453435898,-0.011470127840247004,0.020139592111296952
1772093639641903900,0.64390380859375,0.06948387059271335,-0.024208923909440634,0.020063531200401483
1772093639651852800,0.653852783203125,0.06813888572454452,-0.02636383692100644,0.012565722790919243
1772093639661802800,0.663802734375,0.0714291594415903,-0.025644509670510886,0.02098776990585029
1772093639671752700,0.673752685546875,0.06514262651801109,-0.01622386170597747,0.02103735380177386
1772093639681703000,0.683702880859375,0.0712765992283821,-0.024584132163692263,0.024671901778690514
1772093639691651800,0.69365185546875,0.07875906393826007,-0.022472053646855054,0.022067792828055096
1772093639701601800,0.703601806640625,0.06528934151232242,-0.023279369708057492,0.025829547381214797
1772093639711550700,0.71355078125,0.07037292838692664,-0.024115583070181308,0.015608561085537076
1772093639721501000,0.7235009765625,0.0742658441722393,-0.021470676318276673,0.012202433303324505
1772093639731451000,0.733450927734375,0.07366203306019306,-0.024696415165439245,0.014514052980253472
1772093639741400800,0.74340087890625,0.06632394525706768,-0.02369251708621159,0.01720929254675284
1772093639751349800,0.753349853515625,0.06961421897411346,-0.02285573746850714,0.013187087825965135
1772093639761300000,0.763300048828125,0.07365326523184776,-0.02984546849168837,0.01694154498865828
1772093639771249700,0.773249755859375,0.06811784293651581,-0.02113494155788794,0.01795567220095545
1772093639781198800,0.78319873046875,0.06691898854076862,-0.023510201055556533,0.008822618139302357
1772093639791148800,0.793148681640625,0.06422083549797535,-0.018455219220928847,0.017583404822461304
1772093639801098800,0.8030986328125,0.06347206295728683,-0.023243074551969764,0.02225736058340408
1772093639811047700,0.813047607421875,0.06646072337925434,-0.028426340675074605,0.008346114068198948
1772093639820997600,0.82299755859375,0.07363923670649528,-0.022069153668079523,0.018024417455075308
1772093639830947800,0.83294775390625,0.06794833158850669,-0.03514180306782946,0.011946622778195887
1772093639840896800,0.842896728515625,0.07123918982744216,-0.02439282910898328,0.009455408750660716
1772093639850846700,0.8528466796875,0.06031272214353084,-0.03285181070081889,0.011359013882279395
1772093639860796700,0.862796630859375,0.07108253796100616,-0.025459234497789293,0.013440213203663006
1772093639870745900,0.872745849609375,0.06719137574136257,-0.013649572504870592,0.01263081478322856
1772093639880695800,0.88269580078125,0.06001052432656288,-0.02094893573280424,0.017356126272073013
1772093639890645800,0.892645751953125,0.07646715360879898,-0.0159216273563914,0.019474607130233197
1772093639900594700,0.9025947265625,0.06419570105671882,-0.013847049572039395,0.014546786206075921
1772093639910545000,0.912544921875,0.062248658642172806,-0.020163046052120624,0.020567845727037636
1772093639920494800,0.922494873046875,0.05641279209554195,-0.01854348202627152,0.031682100201165304
1772093639930443800,0.93244384765625,0.061949967956542965,-0.016288305244315415,0.015749942317605018
1772093639940393700,0.942393798828125,0.07301847445964812,-0.01629482631664723,0.012858431260334327
1772093639950344000,0.952343994140625,0.06897767463624477,-0.024376334631908685,0.011900354217365383
1772093639960292900,0.96229296875,0.06942717196941375,-0.03174079898530617,0.0062271674191579215
1772093639970242800,0.972242919921875,0.06388941158652305,-0.01964150639604777,0.012628001771634444
1772093639980193000,0.982193115234375,0.06703063222169876,-0.014445855715405196,0.009684267336782067
1772093639990142700,0.992142822265625,0.06867547681927681,-0.022053152381349354,0.015559086787467822
1772093640000092000,1.002091796875,0.06852642373740672,-0.022657840276230124,0.010908621499966829
1772093640010041600,1.01204150390625,0.06643091276288032,-0.015745814131759107,0.02134439219064079
1772093640019991800,1.02199169921875,0.05984978080689907,-0.014590744078811257,0.016674354552989823
1772093640029940700,1.031940673828125,0.06343932973146438,-0.02786110800774768,0.013549363533407448
1772093640039890700,1.041890625,0.05894903257489204,-0.021967958315927533,0.01820885237758048
1772093640049840600,1.051840576171875,0.06269172623455524,-0.020810312713403254,0.024874694341793655
1772093640059789800,1.061789794921875,0.06433949344158173,-0.029276472964696584,0.027253250908246263
1772093640069739800,1.07173974609375,0.07287234398722649,-0.027043471481930464,0.01665984197044745
1772093640079689700,1.081689697265625,0.07152502103149891,-0.023206359270773826,0.018735314803943037
1772093640089638700,1.091638671875,0.07361877844035625,-0.02320126297054812,0.025256734195630997
1772093640099588900,1.1015888671875,0.07885492552816867,-0.03033120618201792,0.02210414278306998
1772093640109538800,1.111538818359375,0.057306526064872736,-0.03820897208610549,0.01979501645732671
1772093640119487700,1.12148779296875,0.06897825915813445,-0.03143650054279715,0.021107706491090356
1772093640129438000,1.13143798828125,0.06942834101319313,-0.017825013292301444,0.01607510088505223
1772093640139388000,1.141387939453125,0.07122749938964844,-0.022911376645881682,0.020703281275508925
1772093640149336800,1.1513369140625,0.07242752282917499,-0.026184498298726974,0.02234059102060273
1772093640159286800,1.161286865234375,0.06943652431964874,-0.03250411150800064,0.01882860997742973
1772093640169237000,1.171237060546875,0.06807984901368618,-0.022999840380623936,0.022397097847657275
1772093640179186000,1.18118603515625,0.13056523902118206,-0.007497022958192974,0.03068796546412632
1772093640189136000,1.191135986328125,0.07729425208270549,-0.023366481735929846,0.029642867724830282
1772093640199085800,1.2010859375,-0.059761518001556393,-0.05402843597596511,-0.03660414897166192
1772093640209035000,1.211034912109375,0.20310089839994905,0.006043700611032545,0.06882958966875448
1772093640218985000,1.22098486328125,0.017427520141005515,-0.010928349113743751,-0.0034615294975694267
1772093640228934700,1.2309345703125,0.03178688488304615,-0.04848238268876448,-0.010840497300354763
1772093640238883800,1.2408837890625,0.11049217280745506,0.016322518041171134,0.06361625720094889
1772093640248833800,1.250833740234375,0.029128479328751563,-0.018574626083206383,-0.03362498703040182
1772093640258783700,1.26078369140625,0.05668108764290809,-0.03164831666257232,0.024386499832896515
1772093640268732700,1.270732666015625,0.08558744865357876,-0.010488240663427859,0.027924172439752145
1772093640278682600,1.2806826171875,0.08378712123334407,-0.0033243221171200274,0.0025152342239394784
1772093640288632800,1.2906328125,0.08198854737877845,-0.011481672147568315,0.03823877356932498
1772093640298582800,1.300582763671875,0.06793138045370578,-0.03378900021938607,0.0024541425533127037
1772093640308531700,1.31053173828125,0.05011573777794838,-0.013146938478667288,0.026469407054176552
1772093640318481700,1.320481689453125,0.08723112420737743,-0.0220099160278216,0.016665294463699683
1772093640328431900,1.330431884765625,0.03949555956423283,-0.016122447158116848,0.017799668788490815
1772093640338380800,1.340380859375,0.07840133654177188,-0.019224815353937445,0.03541199831133708
1772093640348330800,1.350330810546875,0.06314005452394485,-0.01880189550044015,0.012709496909473091
1772093640358280700,1.36028076171875,0.05909925470054149,-0.021943645858578383,0.017799486125400287
1772093640368230000,1.37022998046875,0.0933674350053072,-0.011984799364116042,0.026645950931170954
1772093640378179800,1.380179931640625,0.05581190359294414,-0.013267715314123778,0.01590269432705827
1772093640388129800,1.3901298828125,0.08903145162761211,-0.025343864489812403,0.003088376203086227
1772093640398078700,1.40007861328125,0.07032733567953109,-0.019849267395213244,0.013288401909125967
1772093640408029000,1.41002880859375,0.05910509991943836,-0.02254310958907008,0.011609335381537675
1772093640417979000,1.419978759765625,0.07392272982299328,-0.02459638885706663,0.013173296762630342
1772093640427927800,1.429927734375,0.07631693148314952,-0.02775297145815566,0.019001966383494436
1772093640437877800,1.439877685546875,0.06658814915120602,-0.01666347696594894,0.02055168004352599
1772093640447827700,1.44982763671875,0.06913491102457046,-0.02458188540767878,0.021863045769883318
1772093640457777000,1.45977685546875,0.05925882917642593,-0.023546605809498578,0.018442752465000375
1772093640467726600,1.4697265625,0.07362637722492217,-0.031991668473836034,0.017167709294194356
1772093640477676800,1.4796767578125,0.07063771680295466,-0.02947694570655003,0.011769119919976218
1772093640487625700,1.489625732421875,0.06779810946285725,-0.0204680203480646,0.016932247437350452
1772093640497575700,1.49957568359375,0.06854805104732513,-0.02321246021799743,0.017024894156865776
1772093640507525600,1.509525634765625,0.07602700862586498,-0.023726656817831097,0.011610111699672415
1772093640517474600,1.519474609375,0.07378302909135818,-0.020671525297220796,0.02308834978113882
1772093640527424800,1.5294248046875,0.07273556586503982,-0.01395273843621835,0.017403162017883732
1772093640537374700,1.539374755859375,0.058823944890499115,-0.015437570166494696,0.015165182965900748
1772093640547324700,1.54932470703125,0.06271744519770145,-0.024396683300193397,0.013684223693143576
1772093640557273900,1.55927392578125,0.07064882271885871,-0.02322157510621473,0.013491605464182793
1772093640567223800,1.569223876953125,0.07903262018263339,-0.024319179350882767,0.015969494219264014
1772093640577172700,1.5791728515625,0.06960603566765784,-0.012976111956406383,0.01821473412909545
1772093640587122700,1.589122802734375,0.08502104694247245,-0.023878449846059083,0.012118170819664374
1772093640597073000,1.599072998046875,0.07349544432163238,-0.016268924690410493,0.016195850321045143
1772093640607022800,1.60902294921875,0.0740957483023405,-0.026119305841717868,0.014918076337035744
1772093640616971800,1.6189716796875,0.07888239805698394,-0.02023174564046785,0.021284131637075914
1772093640626921700,1.628921630859375,0.07663900304436683,-0.01293194402111694,0.021835180515423415
1772093640636872000,1.638871826171875,0.0673597180455923,-0.019135931494086978,0.023328195552155373
1772093640646820900,1.64882080078125,0.06705985831618308,-0.016731847760733217,0.02457277051946148
1772093640656770800,1.658770751953125,0.0670639499694109,-0.022064112166780978,0.019908669432252644
1772093640666720800,1.668720703125,0.07753624414503574,-0.023305855856183916,0.015888784532714636
1772093640676670000,1.678669921875,0.08382160802483558,-0.02133124958127737,0.015954945104103533
1772093640686619600,1.68861962890625,0.08247603863477707,-0.015916457990929483,0.01591208320991136
1772093640696569600,1.698569580078125,0.057789341145753854,-0.02805447515537962,0.012377826402848586
1772093640706518500,1.7085185546875,0.07036065342724322,-0.023753636156301945,0.015414399353461339
1772093640716468700,1.71846875,0.0612339286416769,-0.020331443155277518,0.011298506733542308
1772093640726418700,1.728418701171875,0.07470306654572487,-0.024881763403397053,0.018626137074735014
1772093640736367600,1.73836767578125,0.07814239334464072,-0.01902980423849076,0.01628633248293772
1772093640746317800,1.74831787109375,0.06646890668570996,-0.02435691754538566,0.0183961825100705
1772093640756267800,1.758267822265625,0.07260521748363971,-0.02278608803208917,0.022016190504981204
1772093640766216700,1.768216796875,0.07125614096224307,-0.021190525936335323,0.00916298340903595
1772093640776166700,1.778166748046875,0.06766600751578808,-0.02122689415765926,0.01676236163000576
1772093640786116900,1.788116943359375,0.07335340550243855,-0.027792901609744874,0.022030849217996
1772093640796065800,1.798065673828125,0.06123509768545627,-0.022298487178236244,0.014138588997675105
1772093640806015700,1.808015625,0.07185586042106151,-0.01792200739337131,0.015599245267920196
1772093640815965700,1.817965576171875,0.06601824030876159,-0.024466424068156627,0.01714438321753405
1772093640825915000,1.827914794921875,0.07320142981112003,-0.014934808276128022,0.0023590390152297912
1772093640835864800,1.83786474609375,0.07290449269115924,-0.024210147752147165,0.020602935306727885
1772093640845814800,1.847814697265625,0.08008768219351768,-0.018805092104524374,0.013459520692331715
1772093640855765000,1.857764892578125,0.07350479667186736,-0.024006861998699603,0.01434870635070838
1772093640865714000,1.8677138671875,0.063330024138093,-0.019893289200030265,0.015185294172167777
1772093640875664000,1.877663818359375,0.07410334708690643,-0.014214275449234991,0.013620994864357635
1772093640885613600,1.887613525390625,0.07066226672232151,-0.016899623809382317,0.018489897808665407
1772093640895562800,1.897562744140625,0.0767968239545822,-0.023772231258917597,0.02406779840569943
1772093640905512700,1.9075126953125,0.07634732662141322,-0.019748400836624203,0.02156866593318991
1772093640915462700,1.917462646484375,0.07275543960928917,-0.00682352587711066,0.011831819025799632
1772093640925411600,1.92741162109375,0.07110650335848331,-0.01919122361158952,0.02003091670558788
1772093640935361800,1.93736181640625,0.06407528954744339,-0.030071587131451815,0.015467453848104924
1772093640945311700,1.947311767578125,0.07529927887320519,-0.024189159763045608,0.014518035035626962
1772093640955260700,1.9572607421875,0.07500175723135472,-0.01637901573507115,0.016546462990157305
1772093640965210600,1.967210693359375,0.06976210301220416,-0.016441541310958565,0.006717736548231914
1772093640975160800,1.977160888671875,0.07305179220736026,-0.020842735411971805,0.014382197628356515
1772093640985109800,1.98710986328125,0.07035480820834636,-0.029879169831890613,0.014036197202280163
1772093640995059700,1.997059814453125,0.06766191586256026,-0.026123068701382725,0.016650334356585517
1772093641005009700,2.007009765625,0.06631225481927394,-0.021243461699970066,0.011510094524454324
1772093641014958800,2.016958740234375,0.0697521661400795,-0.01906746936775744,0.015827080940734595
1772093641024908800,2.02690869140625,0.0690028090775013,-0.022583240670058874,0.019409980928804724
1772093641034858800,2.036858642578125,0.06944587666988372,-0.02480661580795422,0.010432473621889949
1772093641044807700,2.0468076171875,0.06704933692216873,-0.01734369604876265,0.009349628554936498
1772093641054758000,2.0567578125,0.06360591847002506,-0.020998547028191386,0.02103041260433383
1772093641064707800,2.066707763671875,0.06794307089149952,-0.022719215074647216,0.017055225363047793
1772093641074656800,2.07665673828125,0.07138415125608444,-0.01739149897955358,0.008425124988006428
1772093641084606700,2.086606689453125,0.08006430131793021,-0.01435266100661829,0.01389436844564043
1772093641094557000,2.096556884765625,0.06779401780962943,-0.011404990182165056,0.013214103697054088
1772093641104506600,2.106506591796875,0.08065934460163116,-0.01755003227582201,0.017313401375198736
1772093641114455800,2.116455810546875,0.07452420284748076,-0.021724249220546332,0.015898209948185832
1772093641124405800,2.12640576171875,0.06808978588581084,-0.028713048661965876,0.02048677984746173
1772093641134355700,2.136355712890625,0.06389993298053741,-0.027176961668487636,0.01799130976991728
1772093641144304600,2.1463046875,0.0715296972066164,-0.02547150945747271,0.018648120577679946
1772093641154254600,2.156254638671875,0.07182838789224624,-0.016100965978670865,0.0177656295215711
1772093641164204800,2.166204833984375,0.07452420284748076,-0.01944081445848569,0.016330500418227166
1772093641174153700,2.17615380859375,0.0692857176721096,-0.026897943797707557,0.01577868435489945
1772093641184103700,2.186103759765625,0.05985971767902374,-0.026460630092676726,0.011517574578011407
1772093641194053600,2.1960537109375,0.07272679803669452,-0.028967151287198064,0.017270055423816665
1772093641204002800,2.2060029296875,0.08424889352619648,-0.02402425152491778,0.022932483365992084
1772093641213952800,2.215952880859375,0.06165303083658218,-0.023871654779091474,0.019095051494427025
1772093641223902700,2.22590283203125,0.0743704735904932,-0.010526124988403171,0.0186084918201901
1772093641233851600,2.2358515625,0.06643734250366687,-0.020398261313792316,0.019118158375378697
1772093641243801900,2.2458017578125,0.07541442968547343,-0.017181235496047883,0.01353907046825625
1772093641253751800,2.255751708984375,0.0689805972456932,-0.013812745443638414,0.026793917167652396
1772093641263700700,2.26570068359375,0.07496785496175289,-0.013373970433883367,0.016056487516127527
1772093641273650700,2.275650634765625,0.07736205662190913,-0.016860917500499634,0.008068210442271084
1772093641283601000,2.285600830078125,0.07541676777303219,-0.01232131957579404,0.018452397076180203
1772093641293551000,2.295551025390625,0.055963879284262656,-0.018701631730049847,0.017142492654547096
1772093641303500300,2.305500244140625,0.06569324613809585,-0.026662472807709125,0.016491070407954975
1772093641313450000,2.315449951171875,0.06823650088012218,-0.0218455375126563,0.009183962264982982
1772093641323400200,2.325400146484375,0.06853869869709014,-0.019375074012205003,0.016212828855309634
1772093641333349000,2.33534912109375,0.06809095492959022,-0.02749183630393818,0.020532947943592443
1772093641343299000,2.345299072265625,0.06868833630084992,-0.018586444385163485,0.012102881918987259
1772093641353249000,2.3552490234375,0.07601940984129905,-0.009518719777837395,0.01160416601607576
1772093641363198200,2.3651982421875,0.07871113314330577,-0.014469693248718976,0.014147850016364826
1772093641373148200,2.375148193359375,0.07452186475992202,-0.015094200088921933,0.012666178357554599
1772093641383098000,2.38509814453125,0.07497194661498069,-0.022626933681312945,0.010699782788567244
1772093641393047000,2.395047119140625,0.07168167289793491,-0.019982392255589364,0.0073475406180601565
1772093641402997200,2.404997314453125,0.07048281850218772,-0.01390318193975836,0.014243812070973217
1772093641412947200,2.414947265625,0.07497311565876007,-0.021080964614637196,0.013210834027733653
1772093641422896000,2.424896240234375,0.06973463048338889,-0.024884558148682116,0.01211427096268162
1772093641432846000,2.43484619140625,0.06345043564736842,-0.013722436811681836,0.012176842204341664
1772093641442796300,2.44479638671875,0.0830541307836771,-0.02112604586537927,0.016866771852551025
1772093641452745200,2.4547451171875,0.07153261981606483,-0.02310337382033467,0.024203772810287773
1772093641462695200,2.464695068359375,0.06180559104979038,-0.016872315677348523,0.019552512938342988
1772093641472645400,2.474645263671875,0.07886369335651397,-0.02525850602760911,0.018105675130896268
1772093641482594300,2.48459423828125,0.08006313227415085,-0.020021482156962155,0.013116022750595584
1772093641492544300,2.494544189453125,0.06405483128130436,-0.017994122781511395,0.012940383055899292
1772093641502494200,2.504494140625,0.07019114207923412,-0.017347952098771928,0.010029327047942205
1772093641512444200,2.514444091796875,0.06704875240027904,-0.01794332417603582,0.021127087044995278
1772093641522393300,2.524393310546875,0.08335749764442443,-0.02604156443038955,0.01937175867711194
1772093641532343000,2.534343017578125,0.06270458571612834,-0.014768365668039768,0.010060955162066966
1772093641542293000,2.54429296875,0.07003449021279812,-0.01937505574589595,0.013350114634260534
1772093641552242200,2.5542421875,0.06988368356525898,-0.018162812145613133,0.019408245629444716
1772093641562192100,2.564192138671875,0.07931260616779327,-0.013157934796717017,0.021660518068261442
1772093641572142000,2.57414208984375,0.06898644246459007,-0.02073609669972211,0.010143473213212564
1772093641582091000,2.584091064453125,0.07482172448933123,-0.024846217165980487,0.009868437397805973
1772093641592041200,2.594041259765625,0.07272738255858421,-0.01909548988584429,0.02692924311826937
1772093641601991200,2.6039912109375,0.07706804211139678,-0.012350162077788263,0.020779004259686915
1772093641611940000,2.613940185546875,0.06853986774086952,-0.021670199212059378,0.00999583577029407
1772093641621890000,2.62389013671875,0.06734335143268108,-0.019003336356673388,0.013601906571397556
1772093641631840300,2.63384033203125,0.06973755309283733,-0.02097218874422833,0.00943832061854191
1772093641641789200,2.6437890625,0.0655471156656742,-0.013830061904620378,0.014503705116175115
1772093641651739100,2.6537392578125,0.07003624377846718,-0.022224106767773626,0.017981272433092818
1772093641661689300,2.663689453125,0.0698866061747074,-0.02588120450321585,0.01170853970600292
1772093641671639300,2.673639404296875,0.06539572449624538,-0.016044121224898844,0.01656651026434265
1772093641681588200,2.683588134765625,0.06584697539508343,-0.017932273059058933,0.024012615886051206
1772093641691538200,2.6935380859375,0.07123276008665562,-0.01946983962357044,0.015857183818053452
1772093641701488400,2.70348828125,0.06973521500527859,-0.017910335221886634,0.016139434825535863
1772093641711437300,2.713437255859375,0.0694336017102003,-0.01517188670132309,0.016846249654330313
1772093641721387300,2.72338720703125,0.0703314273327589,-0.02395295812068507,0.01960712006925605
1772093641731337000,2.7333369140625,0.08125088075399399,-0.020011106893420217,0.020180079385312272
1772093641741286400,2.743286376953125,0.07750935613811015,-0.016236922116950152,0.014050508855422958
1772093641751236000,2.753236083984375,0.06404430988729,-0.020626243117079137,0.025578184702340512
1772093641761186000,2.76318603515625,0.06524141071736812,-0.015937939170375465,0.01232968554534018
1772093641771135000,2.773135009765625,0.06793371854126452,-0.01694687875090167,0.006559659909689799
1772093641781085200,2.783085205078125,0.06493979742228985,-0.027954101787135005,0.017121102806646377
1772093641791035100,2.79303515625,0.06868073751628398,-0.012181472713686525,0.0242097093607299
1772093641800984000,2.802984130859375,0.07302315063476562,-0.0062942413059994574,0.020869285492179913
1772093641810934000,2.81293408203125,0.06703764648437499,-0.030060481215547767,0.0079171115337871
1772093641820884200,2.82288427734375,0.07047814232707023,-0.0183212541103363,0.007745134234055876
1772093641830834200,2.832834228515625,0.06973112335205078,-0.018147358848154545,0.015565772256581113
1772093641840783000,2.842783203125,0.05910802252888679,-0.02558169183367863,0.014120980275748297
1772093641850733300,2.8527333984375,0.06135317110717296,-0.029013657310046254,0.02360378848998807
1772093641860683300,2.862683349609375,0.06494447359740733,-0.024531525193620472,0.01228523448226042
1772093641870632200,2.872632080078125,0.07317395728230476,-0.016372567727975545,0.008442815908323973
1772093641880582100,2.88258203125,0.06045534548461437,-0.02264706315388903,0.023767856477899474
1772093641890532400,2.892532470703125,0.07257365330159664,-0.02033516948232427,0.013811896060267462
1772093641900481300,2.902481201171875,0.07496843948364257,-0.017027378374896943,0.015966589876124634
1772093641910431200,2.91243115234375,0.0668938540995121,-0.022368556739762423,0.009968107513152063
1772093641920381200,2.922381103515625,0.06794248636960983,-0.023070129137858747,0.02444566440791823
1772093641930330400,2.932330322265625,0.06764554924964905,-0.026246421086415648,0.01038954779561609
1772093641940280300,2.9422802734375,0.07317980250120162,-0.018513123420625922,0.013840793361188843
1772093641950230000,2.95222998046875,0.05761924527585506,-0.01439728559963405,0.018000863049551844
1772093641960179200,2.96217919921875,0.07048924824297428,-0.023110296751465646,0.009902905922988429
1772093641970129200,2.972129150390625,0.06869535056352614,-0.021086627170443534,0.01047666895664297
1772093641980079000,2.9820791015625,0.06645195555090903,-0.016286241151392458,0.020955520737217737
1772093641990029000,2.992029052734375,0.06600128917396068,-0.018521343259699643,0.010920448935078457
1772093641999978000,3.00197802734375,0.07183598667681217,-0.01463343244306743,0.015532189647387713
1772093642009928200,3.01192822265625,0.08664835588335991,-0.02138358255671337,0.016874598965980113
1772093642019878100,3.021878173828125,0.06659691697955131,-0.02136845805281773,0.01807312456816435
1772093642029827000,3.0318271484375,0.06570201396644115,-0.020698815162945538,0.017084424058068544
1772093642039777300,3.04177734375,0.06749824973344802,-0.016044815344642846,0.012033332947269082
1772093642049727200,3.051727294921875,0.06809387753903866,-0.01916152259306982,0.0037434243120253083
1772093642059676200,3.06167626953125,0.06599719752073288,-0.021618998747784644,0.010788757979962975
1772093642069626000,3.071626220703125,0.07586743414998054,-0.006502477229200303,0.01665986936991103
1772093642079576300,3.081576416015625,0.07870704149007797,-0.021790683786571025,0.01690941455103457
1772093642089525200,3.091525146484375,0.06598842969238758,-0.011757475147955119,0.00891586764701642
1772093642099475200,3.10147509765625,0.07646364647746086,-0.020042177885118872,0.01554101227466017
1772093642109425200,3.111425048828125,0.0653904637992382,-0.024307233184762297,0.015252632920490576
1772093642119375000,3.121375,0.07212181788086891,-0.01762779195345938,0.023328049421682952
1772093642129324300,3.13132421875,0.06314823783040047,-0.018089929572492836,0.010996473313355818
1772093642139274200,3.141274169921875,0.07107961535155773,-0.014101079132035373,0.01701899413904175
1772093642149224200,3.15122412109375,0.05342530071735382,-0.015748170485626906,0.019888868753239513
1772093642159173400,3.16117333984375,0.06973579952716827,-0.031759814213030035,-0.02320695292581804
1772093642169123000,3.171123046875,0.05761281553506851,-0.006420735496189445,0.03051091013047844
1772093642179073000,3.181072998046875,0.10175532412230968,-0.03521488657034933,0.03201384377302602
1772093642189022000,3.19102197265625,0.05192775563597679,-0.021393062771111724,-0.00504027745584026
1772093642198972200,3.20097216796875,0.0830500391304493,-0.02476717884670943,0.016699717323109507
1772093642208922000,3.210922119140625,0.06240121885538101,-0.01944465038338676,0.011331650951318443
1772093642218871000,3.22087109375,0.06853986774086952,-0.009840955735836177,0.006643840194959193
1772093642228821200,3.2308212890625,0.07736965540647506,-0.01849202583367005,0.011155956457694991
1772093642238771200,3.240771240234375,0.0664449412882328,-0.027647830583248285,0.017732384839095176
1772093642248720100,3.25072021484375,0.06853986774086952,-0.019224413495138287,0.015855950842192396
1772093642258670000,3.260670166015625,0.0673421823889017,-0.013190741087775676,0.02030627218140289
1772093642268620300,3.270620361328125,0.05103168357908725,-0.017320315173175185,0.020159392790310083
1772093642278570200,3.2805703125,0.06360241133868694,-0.01827688524564728,0.016288131714379414
1772093642288520000,3.29052001953125,0.08140461001098155,-0.007084460101928562,0.013327583142044021
1772093642298470000,3.300469970703125,0.06943184814453125,-0.019954846661537885,0.016180671018222344
1772093642308419800,3.310419921875,0.06988017643392086,-0.02002051404258236,0.021002465151483192
1772093642318369000,3.320369140625,0.07511807708740234,-0.016257745709270237,0.016585123633267355
1772093642328318700,3.330318603515625,0.07212532501220703,-0.01676967728678137,0.010549030939955264
1772093642338269000,3.34026904296875,0.07152619007527827,-0.02076762434914708,0.018289963922929017
1772093642348217900,3.3502177734375,0.06359656611979007,-0.015080646487604826,0.006364740125788375
1772093642358167800,3.360167724609375,0.06539397093057632,-0.017179207935743034,0.01476600931417197
1772093642368117800,3.37011767578125,0.07467033331990242,-0.01788870791196823,0.01720142890070565
1772093642378066700,3.380066650390625,0.07676292168498039,-0.020960370442271233,0.00827959730378352
1772093642388017000,3.390016845703125,0.07571604298055172,-0.019443864932097495,0.01061320048365742
1772093642397966800,3.399966796875,0.06718903765380382,-0.01653468122081831,0.01471875437265262
1772093642407916800,3.409916748046875,0.07437398072183132,-0.017488657477404922,0.008065561827458441
1772093642417866000,3.419865966796875,0.07183072597980499,-0.015826532951463013,0.011875603368598968
1772093642427816000,3.42981591796875,0.07033668802976607,-0.0247501181140542,0.016016529965074734
1772093642437766000,3.439765869140625,0.06704524526894093,-0.025364724614750592,0.019328239195793864
1772093642447714800,3.44971484375,0.07183364858925342,-0.02347960498789325,0.012672535033104941
1772093642457665000,3.4596650390625,0.07168050385415553,-0.03142616181187331,0.015269921982008963
1772093642467615000,3.469614990234375,0.0692857176721096,-0.025354824275244027,0.013547938761301339
1772093642477564000,3.47956396484375,0.06734042882323264,-0.023621662073396145,0.021454738963628185
1772093642487513900,3.489513916015625,0.06449906791746617,-0.024057715403102337,0.008983252061111852
1772093642497464000,3.499464111328125,0.07003624377846718,-0.020664730230253187,0.009910906566353515
1772093642507413000,3.5094130859375,0.07572130367755889,-0.020863339808583257,0.009222823837492615
1772093642517363000,3.519363037109375,0.07691548189818859,-0.02175911960452795,0.008923146771173923
1772093642527313000,3.52931298828125,0.06674246293008328,-0.014974994156043977,0.01010271194456145
1772093642537262800,3.539262939453125,0.06778817259073257,-0.02161134516429156,0.013053003984363749
1772093642547211800,3.549211669921875,0.08275193296670913,-0.02203368049589917,0.014952837123163044
1772093642557161700,3.55916162109375,0.06419745462238788,-0.027817670724820345,0.016886837393045424
1772093642567112000,3.56911181640625,0.06240531050860881,-0.024995946101285516,0.018598993339482693
1772093642577060900,3.579060791015625,0.06315525209307671,-0.027817743790056554,0.009431388554256409
1772093642587010800,3.5890107421875,0.07063947036862372,-0.01771291295364499,0.013247649773629381
1772093642596960800,3.598960693359375,0.07048574111163616,-0.013518201210163533,0.017488146020751445
1772093642606910000,3.608909912109375,0.06853928321897983,-0.014078629838209598,0.008831687361747026
1772093642616860000,3.61885986328125,0.07557458868324757,-0.022838713268470017,0.012559475713223219
1772093642626809900,3.628809814453125,0.07767126870155334,-0.024895919792912898,0.014396600613044574
1772093642636758800,3.6387587890625,0.07093640748858451,-0.018143705586344004,0.017003157249093053
1772093642646709000,3.648708984375,0.0627063392817974,-0.021878362070024013,0.01521107706739567
1772093642656659000,3.658658935546875,0.06839490631222725,-0.022575349624548106,0.00948985900953412
1772093642666607900,3.66860791015625,0.07153320433795451,-0.021353497945703563,0.016993567436840384
1772093642676557800,3.678557861328125,0.07048574111163616,-0.020684877969138322,0.019243629652261732
1772093642686508000,3.688508056640625,0.07901742261350155,-0.01582057813471183,0.015151976424455642
1772093642696458000,3.6984580078125,0.07752163109779357,-0.015962470823433248,0.013430331130465491
1772093642706407000,3.708406982421875,0.06270867736935615,-0.014904595800954847,0.004005965972039848
1772093642716357000,3.718357177734375,0.07707096472084522,-0.013047222697548568,0.007632531571900472
1772093642726306800,3.728306884765625,0.06809037040770054,-0.024474077651649714,0.009162873811181634
1772093642736256000,3.738256103515625,0.06928454862833022,-0.01978201084528118,0.005396114289341494
1772093642746205700,3.748205810546875,0.06584229921996593,-0.02032908680140972,0.005069804944423958
1772093642756156000,3.758156005859375,0.0641968701004982,-0.019884978029411284,0.010433112942706792
1772093642766104800,3.768104736328125,0.061655953446030615,-0.014105225584190337,0.019405122090596704
1772093642776054800,3.7780546875,0.07153320433795451,-0.02112515081623569,0.013450634132977575
1772093642786004700,3.788004638671875,0.06719312930703163,-0.016547120577283202,0.020933610299509017
1772093642795954000,3.797953857421875,0.06704466074705123,-0.012563768295850604,0.0070078420686069875
1772093642805904000,3.80790380859375,0.0642015462756157,-0.030656602211482822,0.014019867121987044
1772093642815853800,3.817853759765625,0.05851707089841365,-0.03022617490496486,0.026317805822193622
1772093642825802800,3.827802734375,0.07632511478960513,-0.019463537746947257,0.018029851682018486
1772093642835753000,3.8377529296875,0.06150865392982959,-0.021490221268963067,0.012687732602236792
1772093642845703000,3.847702880859375,0.0707850163191557,-0.02593764739818871,0.020978792014950884
1772093642855652900,3.85765283203125,0.06824059253334999,-0.018369952090270817,0.01083119061589241
1772093642865601800,3.867601806640625,0.06734335143268108,-0.01891463515991345,0.010519083326263353
1772093642875552000,3.877552001953125,0.08066051364541053,-0.015490012739785015,0.016137827390339223
1772093642885502000,3.887501953125,0.06345394277870654,-0.013863909375295042,0.020386470411298794
1772093642895451000,3.897450927734375,0.07466916427612304,-0.02346899226233363,0.007921687244204804
1772093642905401000,3.907401123046875,0.08319558508098125,-0.01198958513708785,0.0108277565497905
1772093642915351000,3.91735107421875,0.06987725382447242,-0.014799893317464738,0.0036751083161681887
1772093642925300000,3.927300048828125,0.0763093326985836,-0.01820835005408153,0.017308871330553664
1772093642935250000,3.93725,0.06254559576213359,-0.01655196114918217,0.012646715605258941
1772093642945199900,3.947199951171875,0.07736147210001945,-0.024238314400706437,0.012640039269300176
1772093642955149800,3.95714990234375,0.08065408390462397,-0.02227428431874141,0.015669862818717954
1772093642965098800,3.9670986328125,0.061198272806406016,-0.019819840371329337,0.01339277559905313
1772093642975048700,3.977048583984375,0.07017360642254353,-0.025709428132884203,0.017250574405211955
1772093642984999000,3.9869990234375,0.07421382172405719,-0.02808525388613343,0.023904917727876455
1772093642994947800,3.99694775390625,0.06403612658083438,-0.022020035563036798,0.024879863707255572
1772093643004897800,4.006897705078125,0.06687748748660087,-0.023988760086428373,0.015514160800352691
1772093643014848000,4.016847900390625,0.06822364139854907,-0.025656656766030937,0.011241835509706288
1772093643024797000,4.026796875,0.05700666633546352,-0.02167783452924341,0.0071090282876044505
1772093643034747000,4.036746826171875,0.07541442968547343,-0.016892974872887132,0.010183129370165989
1772093643044696800,4.04669677734375,0.0686842446476221,0.0008045213159173727,0.009496708875428885
1772093643054645800,4.056645751953125,0.060902504730224606,-0.005161693612113594,0.01010236488468945
1772093643064596000,4.066595947265625,0.06464227578043938,-0.015128047559596597,0.017137505952175707
1772093643074546000,4.0765458984375,0.06808277162313461,-0.01592655925983563,0.0065857259327080095
1772093643084494800,4.086494873046875,0.06957739409506321,-0.011693762261979282,0.012458645687252282
1772093643094445000,4.096445068359375,0.06254618028402328,-0.02145292146587744,0.01075841764062643
1772093643104395000,4.10639501953125,0.06225041220784187,-0.017986706660035996,0.018609204206243155
1772093643114344000,4.116343994140625,0.06823650088012218,-0.025208675536513327,0.020131344872759655
1772093643124294000,4.1262939453125,0.06749006642699241,-0.022431411109212783,0.018470270659588277
1772093643134243800,4.136243896484375,0.0694336017102003,-0.02653983280872926,0.01963860205290839
1772093643144193800,4.14619384765625,0.06090484281778335,-0.021291721288487313,0.014175322545180096
1772093643154143000,4.15614306640625,0.07467033331990242,-0.020790420702844856,0.01732350264410488
1772093643164092700,4.1660927734375,0.08185235377848148,-0.014795290207583457,0.014239035431155934
1772093643174043000,4.17604296875,0.060308630490303036,-0.020069869609642774,0.015432190738478674
1772093643183991800,4.18599169921875,0.06494914977252483,-0.018696772891841826,0.012827762127434835
1772093643193941800,4.195941650390625,0.07183481763303279,-0.015665771165490148,0.014649415463488549
1772093643203892000,4.20589208984375,0.06599953560829162,-0.022332937437109648,0.006227477946411818
1772093643213841000,4.2158408203125,0.06674480101764202,-0.016081731555238364,0.021967300728801636
1772093643223790800,4.225790771484375,0.07093816105425357,-0.02415339432992041,0.008286949493177235
1772093643233740800,4.23574072265625,0.06136193893551826,-0.024529588964860884,0.01079487719349563
1772093643243689700,4.245689697265625,0.0727326432555914,-0.02267630751468241,0.016511775269266216
1772093643253640000,4.255639892578125,0.07812018151283263,-0.02012804780397564,0.012136345797171816
1772093643263590000,4.26558984375,0.07512742943763732,-0.02155141340428963,0.008800671168975531
1772093643273538800,4.275538818359375,0.0627110154569149,-0.013411763427313416,0.01646241056905128
1772093643283489000,4.285489013671875,0.06405775389075279,-0.0212092671694234,0.014855404630675912
1772093643293437700,4.295437744140625,0.06854863556921481,-0.01826183380698785,0.003114670554967597
1772093643303388000,4.305387939453125,0.0619657500475645,-0.022641364065464586,0.013410110326344147
1772093643313336800,4.3153369140625,0.06585925035476684,-0.015997761332523078,0.016645658181468025
1772093643323286800,4.325286865234375,0.056879825085401535,-0.01729691603127867,0.012918207756709307
1772093643333236700,4.33523681640625,0.078130702906847,-0.021080581022147087,0.014270690944744273
1772093643343186000,4.34518603515625,0.0682534520149231,-0.021100582630559802,0.013529234060831367
1772093643353135900,4.355135986328125,0.05927578031122684,-0.0179259894487448,0.02223734984183684
1772093643363085800,4.3650859375,0.07738309940993786,-0.026607326820679008,0.0033133805979974566
1772093643373034800,4.37503466796875,0.06346738678216934,-0.027336280416045335,0.012186769943311809
1772093643382985000,4.38498486328125,0.0702004944294691,-0.016316873751673847,0.011743218293739482
1772093643392935000,4.394934814453125,0.060029813548922534,-0.016089914861693977,0.01837031741645187
1772093643402883800,4.4048837890625,0.06317044966220856,-0.024834234467241912,0.012369268637057394
1772093643412833800,4.414833740234375,0.07828384764194488,-0.02110211700052023,0.017613781694415957
1772093643422783700,4.42478369140625,0.06212532452344894,-0.015742635793983936,0.019566313134832307
1772093643432733000,4.43473291015625,0.06077507895827293,-0.024215353650227187,0.01304423615601845
1772093643442682600,4.4446826171875,0.06645838529169559,-0.015158113904297351,0.015135408882144838
1772093643452632800,4.4546328125,0.07753039892613887,-0.01038110876083374,0.010760582198249175
1772093643462582800,4.464582763671875,0.06900105551183223,-0.019059395659156143,0.009087653150502592
1772093643472531700,4.47453173828125,0.06765373255610466,-0.019920743462536483,0.008161615213612094
1772093643482481700,4.484481689453125,0.083960724234581,-0.017312223198264837,0.008838254099851473
1772093643492432000,4.494431884765625,0.06615384938716888,-0.017052841609716415,0.013692187803890555
1772093643502380800,4.504380859375,0.06136544606685638,-0.025259766402933745,0.014695866687409579
1772093643512330800,4.514330810546875,0.06705284405350685,-0.023311883738171307,0.013858548213588073
1772093643522280700,4.52428076171875,0.0630161358833313,-0.025095698415022342,0.021412525523407385
1772093643532230000,4.53422998046875,0.05778349592685699,-0.017841434704139826,0.009340604998264461
1772093643542179800,4.544179931640625,0.07783376578688621,-0.030826204891037195,0.011924922403041273
1772093643552129800,4.5541298828125,0.060925301083922384,-0.019760219138581305,0.020878044187370687
1772093643562078700,4.56407861328125,0.0582365003913641,-0.018912297072354704,0.012900325040146708
1772093643572029000,4.57402880859375,0.0720002373278141,-0.021745200677029786,0.02105152845759876
1772093643581979000,4.583978759765625,0.05972936929762363,-0.016320709676574913,0.004754318387620151
1772093643591927800,4.593927734375,0.06481354069411754,-0.020972481005173176,0.011353725785808637
1772093643601877800,4.603877685546875,0.07124737313389777,-0.01526362010538578,0.014089132965914904
1772093643611828000,4.613827880859375,0.0713946726500988,-0.0096598452815786,0.008616373243788257
1772093643621777700,4.623777587890625,0.06451251192092895,-0.01733500128565356,0.011591434398666023
1772093643631726800,4.633726806640625,0.0652642070710659,-0.008797273635491728,0.014400326940091326
1772093643641676800,4.6436767578125,0.06062602587640285,-0.016927589528542012,0.0159248513599392
1772093643651626800,4.653626708984375,0.06705985831618308,-0.024653452806547283,0.008099098770879208
1772093643661575700,4.66357568359375,0.07020166347324848,-0.01629321888145059,0.00037081520692445335
1772093643671525600,4.673525634765625,0.06840425866246223,-0.020003508108854293,0.014395312838256359
1772093643681475800,4.683475830078125,0.06047463470697403,-0.021207751065772027,0.009990182347642257
1772093643691424800,4.6934248046875,0.06900514716506004,-0.01598963282499462,0.006474155317014083
1772093643701374700,4.703374755859375,0.06421499027907848,-0.01950249978415668,0.013659281048132106
1772093643711324700,4.71332470703125,0.07753332153558731,-0.020629786781035362,0.018251303279818967
1772093643721273900,4.72327392578125,0.06017477497756481,-0.008568944772332906,0.007499927301332354
1772093643731223800,4.733223876953125,0.061520928889513014,-0.01002107980940491,0.010592340358719228
1772093643741173800,4.743173828125,0.06286942088901996,-0.022185053399018943,0.01040855389018543
1772093643751122700,4.753122802734375,0.06018003567457199,-0.01732195914098993,0.012547292085085064
1772093643761073000,4.763072998046875,0.07768529722690581,-0.014089297362696379,0.01754758459040895
1772093643771022800,4.77302294921875,0.0766354959130287,-0.01656257387474179,0.015366779085760935
1772093643780971800,4.7829716796875,0.06990297278761863,-0.021810173938330263,0.012868075871514156
1772093643790921700,4.792921630859375,0.07109948909580707,-0.01651767528709024,0.016435604760516434
1772093643800872000,4.802871826171875,0.07139584169387816,-0.017842859476245938,0.011556016025412827
1772093643810822000,4.81282177734375,0.06900105551183223,-0.022597616255283354,0.011563432146888226
1772093643820770800,4.822770751953125,0.06032148997187614,-0.022235103085823354,0.02600673057902604
1772093643830721000,4.832720947265625,0.058228317084908485,-0.016602010835986582,0.0074016819580923765
1772093643840670700,4.842670654296875,0.060473465663194656,-0.01075565942795947,0.011792920920671895
1772093643850620000,4.852619873046875,0.0649631782978773,-0.01759672096176073,0.007162402442656457
1772093643860569600,4.862569580078125,0.06436345883905888,-0.022949425367638467,0.009281613953178749
1772093643870519800,4.872519775390625,0.06166589031815529,-0.02674870805274695,0.016504149085236713
1772093643880468700,4.88246875,0.05927110413610935,-0.019233857176918535,0.017834959297580645
1772093643890418700,4.892418701171875,0.06750175686478614,-0.01456376474034041,0.014875351440161467
1772093643900368600,4.90236865234375,0.06465981143712997,-0.02267906572734937,0.011252941425610332
1772093643910317800,4.91231787109375,0.0547854831546545,-0.01945080612953752,0.011378531433502212
1772093643920267800,4.922267822265625,0.06301438231766224,-0.025095862811803815,0.015136176067125051
1772093643930217700,4.9322177734375,0.06944821475744246,-0.008109930692147464,0.011478137616766616
1772093643940166700,4.942166748046875,0.06465864239335059,-0.012826492618955672,0.013966529499553144
1772093643950116900,4.952116943359375,0.08096504954993725,-0.012074852267745882,0.017320169042702765
1772093643960066800,4.96206689453125,0.07303484107255935,-0.010272241558879614,0.015016111617721616
1772093643970015700,4.972015625,0.06764554924964905,-0.011172167806979268,0.018356380222644655
1772093643979965700,4.981965576171875,0.06659808602333069,-0.010127718521654606,0.017176349258376286
1772093643989916000,4.991916015625,0.07108779865801335,-0.02253965725665912,0.018025860493490472
1772093643999865900,5.001865966796875,0.06226444073319435,-0.015234631472919135,0.012826538284728304
1772093644009814800,5.011814697265625,0.0651075552046299,-0.02453536111852154,0.007009951827302575
1772093644019765000,5.021764892578125,0.05583060829341411,-0.022588044709339738,0.010378743273811414
1772093644029715000,5.03171484375,0.06660451576411723,-0.017354820230975745,0.009638117506960406
1772093644039663900,5.041663818359375,0.06196867265701293,-0.009695318453758954,0.011454975936887785
1772093644049613800,5.05161376953125,0.07483809110224246,-0.024513733808603135,0.017954183496767653
1772093644059563800,5.061563720703125,0.06960077497065068,-0.01739290548535064,0.011207102123042567
1772093644069513000,5.071512939453125,0.06975099709630012,-0.017906645427457988,0.009611677024606614
1772093644079462700,5.081462646484375,0.0707978758007288,-0.01664641623329371,0.007774643456330522
1772093644089412600,5.09141259765625,0.06301438231766224,-0.01868619669890031,0.011473726303130387
1772093644099361800,5.10136181640625,0.05882569845616817,-0.026099760891031474,0.0049166693424806
1772093644109311700,5.111311767578125,0.07334113054275512,-0.021761238496378062,0.014141968264849855
1772093644119261700,5.12126171875,0.0678045392036438,-0.025372633926570413,0.017044676569569855
1772093644129210600,5.131210693359375,0.07139525717198848,-0.024618089232221245,0.010501328473864122
1772093644139160800,5.141160888671875,0.06765548612177372,-0.0207934163775295,0.022198196008382364
1772093644149110800,5.15111083984375,0.06720715783238411,-0.023186101934034375,0.014809556194953619
1772093644159060700,5.161060791015625,0.06556231323480606,-0.02012359082456678,0.011838148301886394
1772093644169009700,5.171009765625,0.07364508192539215,-0.032592904036305846,0.007539976183930411
1772093644178960000,5.1809599609375,0.065717211535573,-0.014786248384602367,0.008004552355222403
1772093644188908800,5.19090869140625,0.07529284913241863,-0.02239053110955283,0.009128871076880022
1772093644198858800,5.200858642578125,0.06571545796990394,-0.01699009683812037,0.012407335625123231
1772093644208809000,5.21080908203125,0.06631517742872238,-0.017547146198991684,0.0213684123870451
1772093644218759000,5.220759033203125,0.06496960803866386,-0.023876696280390023,0.013275460229162126
1772093644228707800,5.230707763671875,0.06422142001986503,-0.012944803502690047,0.011437248483952134
1772093644238657800,5.24065771484375,0.07335223645865917,-0.01719531882032752,0.01175637003625743
1772093644248608000,5.25060791015625,0.0717085609048605,-0.02395810921983793,0.009212247644551098
1772093644258557000,5.260556884765625,0.07529927887320519,-0.024609631931129843,0.017120198624348267
1772093644268507000,5.2705068359375,0.0691641371190548,-0.026856789803411812,0.015770765909925103
1772093644278456600,5.28045654296875,0.06587094079256058,-0.011006291454471647,0.00723050837595947
1772093644288409300,5.290409423828125,0.0718564449429512,-0.007247523442842066,0.013971342671988532
1772093644298359300,5.300359375,0.07320201433300971,-0.02722277357159182,0.008372070493362844
1772093644308309500,5.3103095703125,0.06407528954744339,-0.02651716431919485,0.009982510497840122
1772093644318258400,5.320258544921875,0.07440262229442596,-0.022709168604668227,0.012629070350714026
1772093644328208400,5.33020849609375,0.06302782632112502,-0.021459296407736837,0.0036280451708938922
1772093644338158600,5.34015869140625,0.07140519404411315,-0.015606387394759802,0.012462490745307878
1772093644348107500,5.350107421875,0.06467383996248245,-0.01673256014678627,0.013163606485677883
1772093644358057500,5.360057373046875,0.07006254726350307,-0.027598146222624926,0.015585472470894455
1772093644368007400,5.37000732421875,0.06677694972157477,-0.020383429070841518,0.012079829836962744
1772093644377956600,5.37995654296875,0.06049450845122337,-0.024259685982298104,0.01167681112717837
1772093644387906600,5.389906494140625,0.05645253958404064,-0.020169347928743808,0.018615633947029708
1772093644397856500,5.3998564453125,0.067076809450984,-0.01172885184166953,0.009058143928227945
1772093644407806500,5.409806396484375,0.061089551734924315,-0.010448712370637804,0.010878235494857653
1772093644417755600,5.419755615234375,0.07261340079009533,-0.01638177394773811,0.010301595517527311
1772093644427705600,5.42970556640625,0.0714162999600172,-0.011706804406642913,0.010844725950900464
1772093644437655600,5.439655517578125,0.07305997551381588,-0.019721147503517566,0.018863434695638715
1772093644447604500,5.4496044921875,0.07290741530060768,-0.013654979332350194,0.01728255871236324
1772093644457554700,5.4595546875,0.07215922728180885,-0.01156642782157287,0.014008395879901945
1772093644467504400,5.46950439453125,0.06722177087962627,-0.015477518584392964,0.014294418880203738
1772093644477453600,5.47945361328125,0.06527998916208744,-0.02327078454280272,0.014172336003649979
1772093644487403500,5.489403564453125,0.07186229016184806,-0.02250422061709687,0.02041818985696882
1772093644497353500,5.499353515625,0.07141279282867909,-0.01529304712926969,0.011402935222396627
1772093644507302400,5.509302490234375,0.07096504906117916,-0.02398022972010076,0.015384762267023323
1772093644517252400,5.51925244140625,0.05854337438344955,-0.018501926173176614,0.009371447661099954
1772093644527202600,5.52920263671875,0.06213409235179424,-0.023850319730117916,0.006364237802289426
1772093644537151500,5.5391513671875,0.06497837586700916,-0.024949494877364486,0.019064519358845428
1772093644547101400,5.549101318359375,0.0666238049864769,-0.01681815607100725,0.013961506264563649
1772093644557051400,5.559051513671875,0.057495911157131194,-0.01980650596572086,0.014822333478135987
1772093644567000600,5.56900048828125,0.06991232513785361,-0.01927007926777005,0.021558400267502293
1772093644576950500,5.578950439453125,0.07454758372306823,-0.026875129177700727,0.018380327353812752
1772093644586900500,5.588900390625,0.06661795976758003,-0.02784497885685414,0.014976619857549667
1772093644596849400,5.598849365234375,0.06497369969189166,-0.013230634706746786,0.011910555950971319
1772093644606799600,5.608799560546875,0.06856500218212604,-0.015411412811931221,0.008078256912250071
1772093644616749600,5.61874951171875,0.062280807346105575,-0.013708079492766409,0.012096808371227234
1772093644626698500,5.628698486328125,0.06347790817618369,-0.018220332752820104,0.013496683498099446
1772093644636648400,5.6386484375,0.05824234561026096,-0.023043679522350428,0.008725203913124278
1772093644646598700,5.6485986328125,0.05988835925161838,-0.01853685135608539,0.01348881071889773
1772093644656547600,5.658547607421875,0.06617606121897697,-0.022547347372770307,0.016756991335144265
1772093644666497500,5.66849755859375,0.06572831745147704,-0.010577161055896431,0.00935653321975842
1772093644676447700,5.67844775390625,0.07081658050119877,-0.015841547857504336,0.011571551521262153
1772093644686396700,5.688396728515625,0.06602993074655532,-0.017558946234639734,0.014394262525485828
1772093644696346600,5.6983466796875,0.06692950993478297,-0.011655841404385863,0.01127253204206936
1772093644706296300,5.70829638671875,0.07036825221180916,-0.014133921955712139,0.014373347601620479
1772093644716246500,5.71824658203125,0.06692775636911392,-0.02209680885998532,0.012869454977847635
1772093644726195500,5.728195556640625,0.0625888503819704,-0.02090818359730765,0.015044378730980678
1772093644736145400,5.7381455078125,0.07486205649971961,-0.011357132452446966,0.012782324683666229
1772093644746095400,5.748095458984375,0.06618424452543259,-0.019436412278003988,0.007284110859874636
1772093644756044500,5.75804443359375,0.06962298680245876,-0.02184751027403399,0.009235025731939822
1772093644765994500,5.767994384765625,0.0765057320535183,-0.02474040043763816,0.0072792702879756685
1772093644775944400,5.7779443359375,0.06887830591499805,-0.026367873775307086,0.018560771087789908
1772093644785893400,5.787893310546875,0.06753156748116015,-0.023346041736099866,0.017760524088190868
1772093644795843600,5.797843505859375,0.07067454168200492,-0.01930922396807,0.013493057635752483
1772093644805793500,5.80779345703125,0.06753507461249827,-0.020270634612441062,0.0033413828497752544
1772093644815742500,5.817742431640625,0.06753449009060859,-0.020063074542675165,0.0071792439796030515
1772093644825692400,5.8276923828125,0.061253217864036556,-0.02956371067455038,0.006413218910014257
1772093644835642600,5.837642578125,0.06634031186997891,-0.024702516112662852,0.00828694036002271
1772093644845591600,5.847591552734375,0.062000821360945695,-0.019363876764755695,0.012121732749929651
1772093644855541500,5.85754150390625,0.061253802385926245,-0.019263010206166654,0.005967621433828026
1772093644865491700,5.86749169921875,0.06903671134710311,-0.020488606478367,0.007838201078679411
1772093644875440600,5.877440673828125,0.06604571283757686,-0.01565199836846441,0.009649561349581927
1772093644885390600,5.887390625,0.0706844785541296,-0.012502466562669724,0.01485060059139505
1772093644895340500,5.897340576171875,0.06813947024643421,-0.018664277128037064,0.0027716840698849407
1772093644905289500,5.90728955078125,0.0687368516176939,-0.02189522187327966,0.010688083217618986
1772093644915239700,5.91723974609375,0.07098083115220069,-0.016700064382981508,0.015589061800623312
1772093644925189400,5.927189453125,0.06903495778143405,-0.02141118294969201,0.008351603094069286
1772093644935138600,5.937138671875,0.06633972734808921,-0.01321284332172945,0.013800771878054365
1772093644945088500,5.947088623046875,0.07411971369981765,-0.009300327786803245,0.011150823624851182
1772093644955038500,5.95703857421875,0.060499184626340866,-0.0158791033889167,0.015642646018229425
1772093644964987400,5.9669873046875,0.06603811405301094,-0.02308236756492406,0.016531740345060823
1772093644974937300,5.976937255859375,0.07112696162462234,-0.02477359032118693,0.02013764674938284
1772093644984887600,5.986887451171875,0.059305590927600856,-0.018226013574935494,0.009854956861725076
1772093644994836500,5.99683642578125,0.059901803255081175,-0.020057813845667988,0.01239143480309285
1772093645004786400,6.006786376953125,0.0652905105561018,-0.018654358522221446,0.0059734118537977336
1772093645014736400,6.016736328125,0.06349602835476398,-0.016903934658318756,0.010932002375554292
1772093645024685600,6.026685546875,0.06633797378242015,-0.021041180593520403,0.010892483215918763
1772093645034635500,6.036635498046875,0.07636077062487602,-0.01822869872236624,0.0007600337202195077
1772093645044585500,6.04658544921875,0.06274316416084766,-0.02416534049604088,0.010022321918420493
1772093645054535700,6.05653564453125,0.06783025816679,-0.024429014667216687,0.004165175121743232
1772093645064484600,6.066484619140625,0.07351473354399204,-0.02449135758001357,0.013842693057330324
1772093645074434600,6.0764345703125,0.06902502090930938,-0.016515519862622022,0.013538074954412877
1772093645084384500,6.086384521484375,0.05974982756376266,-0.02345879966188222,0.016271555038914084
1772093645094333400,6.09633349609375,0.06857786166369914,-0.017760661085508764,0.007466015898576006
1772093645104283600,6.10628369140625,0.057955345362424845,-0.016232410338614136,0.00998564316984266
1772093645114233600,6.116233642578125,0.06992576914131642,-0.02986525090439245,0.007190039368253201
1772093645124182500,6.1261826171875,0.06903261969387531,-0.023530385327059773,0.01118322805711068
1772093645134132700,6.1361328125,0.06948153250515461,-0.023360472120251507,0.007085382550535723
1772093645144082400,6.14608251953125,0.06424421637356281,-0.016409209943935275,0.015312034957529976
1772093645154031600,6.156031494140625,0.061701546153426164,-0.02165861837211996,0.00999333328595385
1772093645163981300,6.165981201171875,0.07337503281235694,-0.029492088476754722,0.006657658657757565
1772093645173931500,6.175931640625,0.0594604892283678,-0.02266489107152447,0.006162029761075973
1772093645183880400,6.18588037109375,0.05197568643093109,-0.02707315423414111,0.0095430505014956
1772093645193830400,6.195830322265625,0.06843523832261562,-0.02286194801358506,0.0034556934118270873
1772093645203780400,6.2057802734375,0.07606850968003273,-0.023753015101794152,0.011788454808108507
1772093645213729500,6.2157294921875,0.06425006159245968,-0.023194431370962408,0.01591551727601327
1772093645223679500,6.225679443359375,0.0730804337799549,-0.020243308214098213,0.011231524178246036
1772093645233629400,6.23562939453125,0.06215864227116107,-0.020022231075633317,0.008084284794237465
1772093645243578400,6.245578369140625,0.06469897440373897,-0.0256088173026219,0.01461655437350273
1772093645253528600,6.255528564453125,0.06918751799464225,-0.018753087922651318,0.006026740343077108
1772093645263478500,6.265478515625,0.0771194800376892,-0.02231134665980935,0.006757027379004284
1772093645273427500,6.275427490234375,0.07338029350936412,-0.0187819852235727,0.012866130509600043
1772093645283377400,6.28537744140625,0.06994038218855858,-0.021085549458209424,0.007758861365308985
1772093645293324000,6.295323974609375,0.0679956778615713,-0.023681411170307545,0.003921210298035294
1772093645303273000,6.30527294921875,0.06574994476139545,-0.024098157011345028,0.004110650189220905
1772093645313223200,6.31522314453125,0.07398527366518974,-0.024468689090479164,0.014274499470181763
1772093645323173000,6.325173095703125,0.07652911292910576,-0.024781335236225277,0.012335284169064833
1772093645333122000,6.3351220703125,0.057224693000316615,-0.01873538786917925,0.015022979749925433
1772093645343072000,6.345072021484375,0.07009528048932552,-0.005349215540848672,0.007967681810399517
1772093645353022200,6.355022216796875,0.06635492491722106,-0.012634933835919945,0.012632933675078674
1772093645362971100,6.36497119140625,0.06815232972800732,-0.02417317674262449,0.004294920714944601
1772093645372921000,6.374921142578125,0.0693505996018648,-0.02267804281404242,0.01268761387122795
1772093645382871000,6.38487109375,0.05079553673565387,-0.021503665272425858,0.0106694424492307
1772093645392820200,6.3948203125,0.060820087143778796,-0.012660963326320052,0.010562639340199529
1772093645402770000,6.40477001953125,0.06800210760235786,-0.01969667064938694,0.015258925663959234
1772093645412719900,6.414719970703125,0.06695289081037044,-0.018644659112114458,-0.000296681391634047
1772093645422669000,6.4246689453125,0.07503565950095653,-0.02126994784809649,0.010740927649708465
1772093645432619000,6.434618896484375,0.07040040091574191,-0.01691178917121142,0.01594401271813549
1772093645442569000,6.44456884765625,0.07084814468324184,-0.028094259176496415,0.005187796167749911
1772093645452518000,6.454517822265625,0.07459025382101535,-0.022475177185703066,0.011171053562127053
1772093645462468000,6.464468017578125,0.0724924047589302,-0.017333265986293554,0.015241919730231165
1772093645472418000,6.47441796875,0.06456102723777293,-0.025434666312113403,0.014598059735586866
1772093645482367000,6.484366943359375,0.0593254646718502,-0.017804755955561996,0.0024599603727459905
1772093645492317000,6.49431689453125,0.06366729326844214,-0.020732553035765884,0.006294825827889144
1772093645502267100,6.50426708984375,0.058576107609272,-0.023268884846661238,0.00913110869973898
1772093645512216000,6.514216064453125,0.06336334188580513,-0.018857041487470267,0.013464206000603735
1772093645522166000,6.524166015625,0.05573240861594676,-0.025967859873361886,0.011750771412532775
1772093645532116000,6.534115966796875,0.06515607052147387,-0.024636885264236477,0.015265611133072524
1772093645542065200,6.544065185546875,0.059767947742342946,-0.028225466074422,0.01085670864963904
1772093645552015000,6.55401513671875,0.0708417149424553,-0.021936503731738773,0.01245950420377776
1772093645561965000,6.563965087890625,0.0741354957908392,-0.016758005115296692,0.01705776438000612
1772093645571915300,6.573915283203125,0.060220952206850045,-0.015861585998535155,-0.0020713263813406228
1772093645581864200,6.5838642578125,0.07802548896670342,-0.01371956900116056,0.007766396217793225
1772093645591814100,6.593814208984375,0.05902209781110286,-0.021079265847895292,0.006263873567199334
1772093645601763800,6.603763916015625,0.06500643291771412,-0.018775025759823618,0.002507945966627449
1772093645611713300,6.61371337890625,0.0802653768479824,-0.020715656699892133,0.015843292290018872
1772093645621663000,6.6236630859375,0.059015083548426626,-0.022751747371070087,0.015453224393352866
1772093645631613000,6.633613037109375,0.07637129201889038,-0.019741331775020805,0.00421974572003819
1772093645641562000,6.64356201171875,0.06529986290633678,-0.01740534484181553,0.01237599063878879
1772093645651512000,6.653511962890625,0.06305822145938873,-0.021101678609102965,0.014892823164770379
1772093645661462000,6.6634619140625,0.060362406504154205,-0.02062922052545473,0.007688892268482596
1772093645671411000,6.673410888671875,0.08086392726302147,-0.01575739497169852,0.005757558879721909
1772093645681361000,6.68336083984375,0.0688894118309021,-0.01877334525939077,0.008694151187734677
1772093645691311000,6.69331103515625,0.06515197886824607,-0.01676454445393756,0.011978406155947596
1772093645701260000,6.703260009765625,0.06395078638494014,-0.022138602175097912,0.013109766539745032
1772093645711210000,6.7132099609375,0.06335282049179077,-0.0201642150959,0.015375793509278446
1772093645721160200,6.72316015625,0.07801672113835811,-0.005138897258415818,0.011285482855187729
1772093645731109000,6.733109130859375,0.06514613364934921,-0.019130743862316012,0.009193999601807445
1772093645741059000,6.74305908203125,0.07203121698796748,-0.02316737896725535,0.007701422956492752
1772093645751009000,6.753009033203125,0.053773675763607025,-0.01293550595138222,0.008775701124500483
1772093645760958000,6.7629580078125,0.07516717692613602,-0.002863700601737946,0.007778735109558329
1772093645770908200,6.772908203125,0.06948036346137523,-0.013040098837018012,0.006495143306115642
1772093645780858000,6.782858154296875,0.05840834982693195,-0.026709380689356476,0.0151679046459496
1772093645790807000,6.79280712890625,0.06618892070055007,-0.020841529835574326,0.013825906319310887
1772093645800757200,6.80275732421875,0.06319383053779602,-0.014730061217956244,0.0005778272874187678
1772093645810707200,6.812707275390625,0.06229366682767868,-0.02551958638289943,0.008036134803574532
1772093645820656000,6.82265625,0.07546411404609679,-0.026796547516155986,0.008869169827923178
1772093645830606000,6.832606201171875,0.06498714369535445,-0.02185660689594224,0.007574152448168024
1772093645840556000,6.84255615234375,0.06229308230578899,-0.030740554167889057,0.012812317963130771
1772093645850505200,6.852505126953125,0.06917875016629696,-0.024200229146331548,0.009864628872368483
1772093645860455000,6.862454833984375,0.07112345449328422,-0.017693514133431017,0.009751797881349921
1772093645870404900,6.87240478515625,0.06004968729317188,-0.021607271777372806,0.013793483620742335
1772093645880354000,6.88235400390625,0.07082768641710281,-0.015942670144420117,0.011188233025791123
1772093645890304000,6.892303955078125,0.07517009953558444,-0.022461751448549328,0.01168956101089716
1772093645900254000,6.90225390625,0.0672422291457653,-0.009217398743703961,0.010100958378892392
1772093645910203000,6.912202880859375,0.07113339136540889,-0.009844061008375137,0.015644573113834485
1772093645920153000,6.922153076171875,0.062006082057952876,-0.014857742718234658,0.010173713087849319
1772093645930103000,6.93210302734375,0.06170388424098491,-0.016082480473909526,0.010366614444600417
1772093645940052000,6.942052001953125,0.06005494799017906,-0.005072517491318285,0.005981266366690397
1772093645950002000,6.952001953125,0.07097498593330383,-0.011071136851608753,0.0042186954072676594
1772093645959952100,6.9619521484375,0.07456745746731758,-0.01482913767825812,0.009111125357635318
1772093645969901000,6.971901123046875,0.07142214517891407,-0.014236395949497818,0.013584480512561276
1772093645979851000,6.98185107421875,0.07127192305326462,-0.022003194026090203,0.008799703054595738
1772093645989801200,6.99180126953125,0.06169628545641899,-0.016976013513840735,0.009564942672895267
1772093645999750100,7.001750244140625,0.07037643551826477,-0.018380126424413175,0.012430515571311116
1772093646009700000,7.0117001953125,0.07845569707751274,-0.01998237398928031,0.010208035482559353
1772093646019650000,7.021650146484375,0.059601359003782266,-0.019232377605885267,0.0045168655030895025
1772093646029599000,7.031598876953125,0.06992752270698548,-0.01841002837233245,0.008139576911740004
1772093646039549200,7.041549072265625,0.07441606629788876,-0.01384513160958886,0.011920154896378517
1772093646049499100,7.0514990234375,0.0679834029018879,-0.020870007011387495,0.008007155304262414
1772093646059448000,7.061447998046875,0.06977671605944633,-0.023949213527329264,0.01665373189006932
1772093646069398300,7.071398193359375,0.07082301024198531,-0.016772526830993593,0.013027321553835644
1772093646079348000,7.081347900390625,0.05510930828154087,-0.015197843126486987,0.004190163432527334
1772093646089297200,7.091297119140625,0.05899754789173603,-0.021357041609659788,0.005179530662903562
1772093646099247000,7.1012470703125,0.05181786552071571,-0.025455069779325275,0.0075629004017915575
1772093646109197000,7.111197021484375,0.05795066918730735,-0.014018789409752935,0.0054323911791201674
1772093646119146000,7.12114599609375,0.062439797300100325,-0.013211254152841865,0.006362438570847734
1772093646129096000,7.131095947265625,0.06857201644480228,-0.016062898990605024,0.0008022380272857845
1772093646139046000,7.1410458984375,0.06602408552765845,-0.01893576927948743,0.010654601073125377
1772093646148995000,7.1509951171875,0.07350596571564674,-0.02056307822037488,0.010781944646686316
1772093646158945000,7.160945068359375,0.06870996361076831,-0.01912599462196231,0.004395047488017007
1772093646168895000,7.17089501953125,0.06766425395011902,-0.025475254050828514,0.009613814182765782
1772093646178844000,7.180843994140625,0.07050970650911331,-0.012823496944271028,0.00549491675500758
1772093646188794000,7.190794189453125,0.07080664362907409,-0.01788419613363221,0.010142340702051297
1772093646198744000,7.200744140625,0.07155775425732136,-0.02677725829379633,0.005989897197717801
1772093646208693000,7.21069287109375,0.06632160716950893,-0.019000943470187485,0.015286242929147556
1772093646218643000,7.220642822265625,0.049561026504635806,-0.01610328579992056,0.013333985483366995
1772093646228593200,7.23059326171875,0.05150631535351276,-0.025200510496366766,0.0158568184918724
1772093646238542000,7.2405419921875,0.06811433580517769,-0.019514774743840096,0.011362447948381304
1772093646248492000,7.250491943359375,0.06527355942130088,-0.014565116447210312,0.003793391800438985
1772093646258442200,7.260442138671875,0.0627285511136055,-0.007538524012360721,0.003021320582553744
1772093646268391200,7.27039111328125,0.07141162378489971,-0.027203283419832587,0.011890828337194397
1772093646278341000,7.280341064453125,0.06572656388580798,-0.022794600132107733,0.010608524308539926
1772093646288291000,7.290291015625,0.07380465640127658,-0.012202204974461346,0.01772858544681221
1772093646298239200,7.3002392578125,0.06676876641511917,-0.013301599317416549,0.017532916744239627
1772093646308189200,7.310189208984375,0.06242518425285816,-0.008667290580272675,0.012789612940978258
1772093646318139400,7.320139404296875,0.07184826163649559,-0.013845570001006125,0.0033516667817719277
1772093646328088300,7.33008837890625,0.055543608045578,-0.015675141782034187,0.0021436609651893377
1772093646338038300,7.340038330078125,0.058685413202643394,-0.025088556288182733,0.016493691623304038
1772093646347988500,7.349988525390625,0.08203121747672558,-0.01937120155468583,0.007419619473582133
1772093646357937400,7.3599375,0.05554711517691612,-0.023314167026802897,-0.005777880148543044
1772093646367887400,7.369887451171875,0.05553776282668113,-0.020869385956879705,0.014410145081207155
1772093646377837000,7.379837158203125,0.09771393977701663,-0.00988154347455129,0.01097988750473596
1772093646387786200,7.3897861328125,0.07570902871787548,-0.015281466289330274,-0.0023049798735883084
1772093646397736200,7.399736083984375,0.035444822868704796,-0.029902459375932812,0.017367570114694534
1772093646407686100,7.40968603515625,0.09693418757617472,-0.023084760451409964,0.02246703041186556
1772093646417635300,7.41963525390625,0.04156885870695114,-0.013322550773900002,-0.006949435545410961
1772093646427585300,7.429585205078125,0.06639876405894755,-0.03462758820168674,0.017855718957819042
1772093646437535200,7.43953515625,0.06324468394219875,-0.028747023996803907,0.012057809801399708
1772093646447484200,7.449484130859375,0.0900169555336237,-0.01687918380955234,-0.011538681298121809
1772093646457434000,7.45943408203125,0.07322714877426624,0.00288755640136078,0.005616679971152916
1772093646467383000,7.469383056640625,0.06332184083163737,-0.015825601369701323,0.01182022905270569
1772093646477333200,7.479333251953125,0.07347381701171397,-0.016766590280551462,-0.008374088920513167
1772093646487283200,7.489283203125,0.08062544233202934,-0.01264313540868461,-0.0010867723233997822
1772093646497232100,7.499232177734375,0.06549567773938178,-0.0048620530784130095,0.008271130869537591
1772093646507182300,7.509182373046875,0.03691021924614906,-0.04694066967209801,0.008407717195479199
1772093646517132300,7.51913232421875,0.0705669896543026,-0.015742854989692568,0.02936155743226409
1772093646527081200,7.529081298828125,0.05964578266739845,-0.017222736550215632,0.006526698355004191
1772093646537031200,7.53903125,0.04633621923923492,-0.016998846400156618,-0.0042253900095354765
1772093646546981400,7.5489814453125,0.08945172286629677,-0.02596964997164905,0.028177800140948964
1772093646556930300,7.558930419921875,0.01811491788327694,-0.03018991628149524,0.016671596340322867
1772093646566880300,7.56888037109375,0.08834931458234786,-0.04518005320774391,0.005634352625161409
1772093646576830200,7.578830322265625,0.06444704546928405,-0.018643837128207087,0.01771935182758607
1772093646586779400,7.588779296875,0.055518473604321474,-0.03151402275841683,0.006052769833477214
1772093646596729300,7.598729248046875,0.12405658777952193,-0.03012583806933835,0.012625992477638646
1772093646606679300,7.60867919921875,0.06703063222169876,0.012767656837496906,0.025838013815460727
