time,seconds_elapsed,z,y,x
1772093639084722000,0.086721923828125,0.0011299499310553074,0.0009032546076923609,0.0006722244434058666
1772093639094670800,0.0966708984375,-0.0008878710214048624,-0.0009968648664653301,0.0012999475002288818
1772093639104620800,0.106620849609375,0.00211271271109581,0.0004596179351210594,0.0014687920920550823
1772093639114570800,0.11657080078125,0.00016822852194309235,0.0002834796905517578,0.0027392921037971973
1772093639124520000,0.12652001953125,-0.0008640126325190067,-0.001906171441078186,-0.0028493511490523815
1772093639134469600,0.1364697265625,0.0009969696402549744,0.00014350749552249908,0.0016631009057164192
1772093639144419600,0.146419677734375,0.0006986954249441624,-0.00038726069033145905,0.0007472396828234196
1772093639154368800,0.15636865234375,0.00015639141201972961,0.0001180935651063919,-0.003356499131768942
1772093639164318700,0.166318603515625,-0.0022369916550815105,-0.0013453131541609764,-0.0003857431001961231
1772093639174268700,0.1762685546875,0.001593706663697958,0.0013707992620766163,0.0006129266694188118
1772093639184217600,0.186217529296875,-0.0005067286547273397,-0.0007267063483595848,0.0006637927144765854
1772093639194167800,0.196167724609375,0.0027843406423926353,-0.004733056761324406,-0.0015884512104094028
1772093639204117800,0.20611767578125,-0.0011731167323887348,-0.0013175527565181255,-0.00025740358978509903
1772093639214066700,0.216066650390625,0.00023468909785151482,-0.000980667769908905,-0.0027316431514918804
1772093639224016600,0.2260166015625,-0.001458016224205494,-0.0037178643979132175,-0.0012655733153223991
1772093639233966800,0.235966796875,-0.0002603628672659397,-0.001452950295060873,-0.0012736567296087742
1772093639243915800,0.245915771484375,0.000007284805178642273,-0.0003069923259317875,0.002167679835110903
1772093639253865700,0.25586572265625,-0.0022023306228220463,-0.002576005645096302,0.0003503388725221157
1772093639263816000,0.26581591796875,0.0011172997765243053,0.0013636087533086538,-0.0011799135245382786
1772093639273766000,0.275765869140625,0.00021047703921794891,-0.0009130761027336121,-0.002315038815140724
1772093639283714800,0.28571484375,-0.002460407093167305,0.0013463497161865234,-0.002147792372852564
1772093639293664800,0.295664794921875,0.001229546032845974,0.0002933391369879246,-0.0008824425749480724
1772093639303615000,0.305614990234375,0.0016111773438751698,-0.0004856353625655174,-0.0002627251669764519
1772093639313564000,0.31556396484375,0.0012984015047550201,-0.0013067927211523056,-0.0016639088280498981
1772093639323513900,0.325513916015625,0.0012283604592084885,0.0005382448434829712,0.00015556300058960915
1772093639333463800,0.3354638671875,0.001996309496462345,-0.0010589724406599998,0.0014088749885559082
1772093639343413000,0.3454130859375,-0.0005712443962693214,0.000336524099111557,-0.0005525434389710426
1772093639353362700,0.35536279296875,-0.00007999176159501076,-0.000678451731801033,-0.0007166094146668911
1772093639363312600,0.365312744140625,0.00005369866266846657,-0.002226280514150858,-0.0011126217432320118
1772093639373261600,0.375261474609375,0.0009320918470621109,0.001181441592052579,-0.0006554350256919861
1772093639383211800,0.385211669921875,-0.0006437005940824747,0.0010490824934095144,0.0006274096667766571
1772093639393161700,0.39516162109375,-0.0022877086885273457,0.000830336706712842,-0.0014400146901607513
1772093639403110700,0.405110595703125,0.0016700150445103645,-0.0029098065569996834,-0.0004245513118803501
1772093639413060900,0.415060791015625,-0.0006266008131206036,0.00074937311001122,-0.0017194617539644241
1772093639423010800,0.4250107421875,-0.0009158202446997166,-0.0013092504814267159,-0.0005447417497634888
1772093639432959700,0.434959716796875,-0.0007889478001743555,-0.003008077386766672,-0.0000935201533138752
1772093639442909700,0.44490966796875,-0.0019082743674516678,-0.0006690230220556259,0.0014164922758936882
1772093639452860000,0.45485986328125,-0.0006501232273876667,0.0013000161852687597,0.0005719913169741631
1772093639462809900,0.464809814453125,0.0004833182319998741,0.00021211476996541023,-0.0019614738412201405
1772093639472758800,0.4747587890625,-0.0013627405278384686,0.0005894848145544529,-0.00010604923591017723
1772093639482708700,0.484708740234375,-0.0011840425431728363,-0.0002544708549976349,0.0026657686103135347
1772093639492659000,0.494658935546875,-0.0002128942869603634,0.0007922579534351826,0.0000398014672100544
1772093639502608000,0.50460791015625,0.0002827197313308716,0.00022180890664458275,-0.00019668694585561752
1772093639512557800,0.514557861328125,0.000032811425626277924,-0.0019123414531350136,0.0014208261854946613
1772093639522508000,0.524508056640625,0.00018088286742568016,0.0007167311850935221,-0.00006841355934739113
1772093639532457000,0.53445703125,-0.0019411570392549038,0.0006037985440343618,-0.00043873582035303116
1772093639542407000,0.544406982421875,-0.0021744498517364264,-0.0012649418786168098,0.00009975535795092583
1772093639552356600,0.554356689453125,0.0013830107636749744,-0.00041969679296016693,0.0022671015467494726
1772093639562305800,0.564305908203125,0.00019683875143527985,0.0003217272460460663,-0.000632281880825758
1772093639572255700,0.574255859375,-0.0014430182054638863,-0.0016910783015191555,-0.0012289988808333874
1772093639582205700,0.584205810546875,-0.00009439373388886452,0.0008727468084543943,-0.001100634690374136
1772093639592154600,0.594154541015625,-0.0002745718229562044,-0.0016182311810553074,-0.00178592000156641
1772093639602104800,0.604104736328125,-0.0020714066922664642,-0.0003873179666697979,-0.00022157933562994003
1772093639612054800,0.6140546875,0.00021970458328723907,-0.0010697380639612675,-0.0017244014889001846
1772093639622003700,0.624003662109375,-0.002683939877897501,0.0010930150747299194,0.00035153236240148544
1772093639631953700,0.63395361328125,-0.0006022027228027582,0.00037735048681497574,0.002237743930891156
1772093639641903900,0.64390380859375,-0.00037716561928391457,-0.0012245411053299904,0.0017234873957931995
1772093639651852800,0.653852783203125,0.0019393921829760075,0.002829579636454582,0.0005339924246072769
1772093639661802800,0.663802734375,0.00040567759424448013,0.001013569999486208,0.0007326644845306873
1772093639671752700,0.673752685546875,-0.0008160038851201534,-0.0005556917749345303,0.0016244007274508476
1772093639681703000,0.683702880859375,0.00038135331124067307,-0.0012712832540273666,0.0006896313279867172
1772093639691651800,0.69365185546875,0.0006693648174405098,0.0003430093638598919,0.0017205956391990185
1772093639701601800,0.703601806640625,0.0011053243651986122,-0.0005241157487034798,0.001028706319630146
1772093639711550700,0.71355078125,-0.0010665960144251585,-0.001038234680891037,-0.00022866111248731613
1772093639721501000,0.7235009765625,-0.0010101369116455317,0.0020960397087037563,0.0019530004356056452
1772093639731451000,0.733450927734375,0.0007213945500552654,-0.0011133570224046707,0.00599018344655633
1772093639741400800,0.74340087890625,-0.00012176204472780228,0.002613470423966646,0.0015466990880668163
1772093639751349800,0.753349853515625,0.0018173949792981148,0.002459264360368252,0.0015675481408834457
1772093639761300000,0.763300048828125,-0.0007474953308701515,0.0003090281970798969,0.000459140632301569
1772093639771249700,0.773249755859375,0.0013000029139220715,0.001033758046105504,0.002204187447205186
1772093639781198800,0.78319873046875,-0.0023256244603544474,0.00014532729983329773,0.003670257516205311
1772093639791148800,0.793148681640625,-0.0012745310086756945,-0.00017208093777298927,0.002626163652166724
1772093639801098800,0.8030986328125,-0.000010594725608825684,-0.0020719803869724274,-0.0012916126288473606
1772093639811047700,0.813047607421875,0.0008991998620331287,-0.00015387125313282013,0.0009718593209981918
1772093639820997600,0.82299755859375,0.0006501944735646248,0.0008480099495500326,0.0020480426028370857
1772093639830947800,0.83294775390625,-0.0017330471891909838,0.0009756132494658232,0.0026188238989561796
1772093639840896800,0.842896728515625,0.0018933792598545551,-0.0011423984542489052,0.0009836428798735142
1772093639850846700,0.8528466796875,0.0005234330892562866,-0.0007154121994972229,0.0017066483851522207
1772093639860796700,0.862796630859375,-0.0006590103730559349,0.0015831619966775179,0.0011122310534119606
1772093639870745900,0.872745849609375,0.00017880555242300034,0.0020864561665803194,0.0010859216563403606
1772093639880695800,0.88269580078125,0.0001295371912419796,0.0013434342108666897,0.0011357227340340614
1772093639890645800,0.892645751953125,-0.0007439183536916971,0.0034041632898151875,0.0035624487791210413
1772093639900594700,0.9025947265625,-0.0004040990024805069,0.0013434095308184624,0.0017067580483853817
1772093639910545000,0.912544921875,-0.0020048751030117273,-0.0032269428484141827,-0.000743083655834198
1772093639920494800,0.922494873046875,-0.0013731732033193111,0.0015337239019572735,0.001368536613881588
1772093639930443800,0.93244384765625,0.0019190413877367973,-0.002009158954024315,-0.00023251771926879883
1772093639940393700,0.942393798828125,-0.0012836763635277748,-0.0006384300068020821,0.0012508626095950603
1772093639950344000,0.952343994140625,-0.0018381718546152115,0.00039577996358275414,0.002224733354523778
1772093639960292900,0.96229296875,-0.00004240265116095543,-0.0023608580231666565,-0.0007614688947796822
1772093639970242800,0.972242919921875,-0.0007906332612037659,0.0009134097490459681,0.00025083497166633606
1772093639980193000,0.982193115234375,-0.0010337799321860075,0.00004868116229772568,0.0006127585656940937
1772093639990142700,0.992142822265625,-0.00040462869219481945,-0.0011368663981556892,0.00037247175350785255
1772093640000092000,1.002091796875,0.003894512075930834,-0.0023680459707975388,-0.00019478192552924156
1772093640010041600,1.01204150390625,0.0002602403983473778,-0.0022917366586625576,-0.0032321601174771786
1772093640019991800,1.02199169921875,0.0016631940379738808,-0.002427557948976755,-0.0018467842601239681
1772093640029940700,1.031940673828125,0.00005435757339000702,0.0011222418397665024,0.002551920944824815
1772093640039890700,1.041890625,-0.0016942736692726612,0.0005326177924871445,0.000742835458368063
1772093640049840600,1.051840576171875,0.0018221084028482437,-0.0016613984480500221,-0.0006126970984041691
1772093640059789800,1.061789794921875,-0.0005864542908966541,0.00007258588448166847,-0.0036995667032897472
1772093640069739800,1.07173974609375,0.0011796196922659874,0.0002771136350929737,-0.0010949182324111462
1772093640079689700,1.081689697265625,0.0009950627572834492,-0.0023945695720613003,0.0012087160721421242
1772093640089638700,1.091638671875,-0.00018848199397325516,0.0000939834862947464,0.0009080441668629646
1772093640099588900,1.1015888671875,0.0020509702153503895,0.0005464546848088503,-0.0002520289272069931
1772093640109538800,1.111538818359375,-0.0006030017975717783,0.0038167729508131742,-0.00023685814812779427
1772093640119487700,1.12148779296875,0.0011323140934109688,0.00039381207898259163,-0.0007021119818091393
1772093640129438000,1.13143798828125,0.002099106553941965,-0.0006986204534769058,-0.0011248942464590073
1772093640139388000,1.141387939453125,0.0001472756266593933,0.0007128550205379725,-0.002235432155430317
1772093640149336800,1.1513369140625,-0.0002269688993692398,0.001539240125566721,0.0012419125996530056
1772093640159286800,1.161286865234375,0.0008955537341535091,4.6566128730773926e-7,-0.0014417548663914204
1772093640169237000,1.171237060546875,0.000523742288351059,-0.017026405781507492,0.008065786212682724
1772093640179186000,1.18118603515625,-0.0012826796155422926,-0.025774890556931496,0.01549866795539856
1772093640189136000,1.191135986328125,0.0015692077577114105,0.01944872923195362,-0.01582513004541397
1772093640199085800,1.2010859375,-0.0031086348462849855,-0.026324883103370667,0.010566795244812965
1772093640209035000,1.211034912109375,0.001256920862942934,0.0025691853370517492,0.008068843744695187
1772093640218985000,1.22098486328125,0.0005842065438628197,0.013567241840064526,-0.011431621387600899
1772093640228934700,1.2309345703125,0.0018632924184203148,-0.016779959201812744,0.008756652474403381
1772093640238883800,1.2408837890625,0.0020134947262704372,0.023103008046746254,-0.0051607610657811165
1772093640248833800,1.250833740234375,-0.0013919344637542963,0.012675774283707142,-0.006608012598007917
1772093640258783700,1.26078369140625,-0.0012598414905369282,0.002032984048128128,-0.007058619987219572
1772093640268732700,1.270732666015625,-0.0018148836679756641,0.01081487163901329,-0.00429178774356842
1772093640278682600,1.2806826171875,0.00022057024762034416,-0.006267975550144911,0.005599192343652248
1772093640288632800,1.2906328125,-0.0005391095764935017,0.0034547753166407347,-0.004080117214471102
1772093640298582800,1.300582763671875,0.0005911360494792461,-0.002380210440605879,-0.00007925089448690414
1772093640308531700,1.31053173828125,-0.000478650676086545,0.00197609537281096,0.0014249742962419987
1772093640318481700,1.320481689453125,0.00016024149954319,-0.0002311323769390583,-0.0036613973788917065
1772093640328431900,1.330431884765625,0.00046042585745453835,-0.0028213649056851864,-0.0002934979274868965
1772093640338380800,1.340380859375,0.0006473795510828495,0.0030450462363660336,0.00021143769845366478
1772093640348330800,1.350330810546875,0.0014563691802322865,-0.002610714640468359,0.0007388461381196976
1772093640358280700,1.36028076171875,0.001550378743559122,-0.0013118907809257507,-0.0011975383386015892
1772093640368230000,1.37022998046875,0.000525355339050293,0.0008362696971744299,-0.0008800937794148922
1772093640378179800,1.380179931640625,-0.000013934914022684097,0.0025830368977040052,0.0001422935165464878
1772093640388129800,1.3901298828125,-0.003338664071634412,0.00021927058696746826,-0.0011272388510406017
1772093640398078700,1.40007861328125,0.0020944508723914623,0.0016366047784686089,-0.0008800975047051907
1772093640408029000,1.41002880859375,0.0005310289561748505,-0.0022381297312676907,-0.00024840887635946274
1772093640417979000,1.419978759765625,-0.00038456590846180916,0.0035103033296763897,-0.000177835114300251
1772093640427927800,1.429927734375,0.0009208922274410725,-0.0013218480162322521,-0.0012176064774394035
1772093640437877800,1.439877685546875,-0.00210365979000926,-0.0022736620157957077,-0.0007374384440481663
1772093640447827700,1.44982763671875,0.000003850553184747696,-0.00001834193244576454,-0.0011073439382016659
1772093640457777000,1.45977685546875,0.0001567159779369831,-0.00002553267404437065,0.00045486632734537125
1772093640467726600,1.4697265625,0.0006574532017111778,0.0005413987673819065,-0.0010351683013141155
1772093640477676800,1.4796767578125,0.0000787484459578991,0.0015760369133204222,-0.0004974761977791786
1772093640487625700,1.489625732421875,0.0011334200389683247,0.0011806164402514696,-0.0023650722578167915
1772093640497575700,1.49957568359375,-0.001337727066129446,-0.001475087832659483,-0.00023720692843198776
1772093640507525600,1.509525634765625,0.0006559425964951515,0.00015641702339053154,-0.000764066819101572
1772093640517474600,1.519474609375,0.000800552312284708,-0.002315795049071312,0.0009350301697850227
1772093640527424800,1.5294248046875,-0.0007765651680529118,-0.0001180991530418396,-0.001083915587514639
1772093640537374700,1.539374755859375,0.001680467277765274,0.0022585056722164154,-0.002751321066170931
1772093640547324700,1.54932470703125,0.003556863870471716,-0.0015571597032248974,-0.00013682246208190918
1772093640557273900,1.55927392578125,-0.0005452032200992107,0.004151326138526201,-0.0007778452709317207
1772093640567223800,1.569223876953125,-0.0014346812386065722,0.00038001127541065216,0.0006695208139717579
1772093640577172700,1.5791728515625,0.0016074473969638348,0.001087346812710166,-0.001697230152785778
1772093640587122700,1.589122802734375,-0.0013528377749025822,-0.00004860246554017067,-0.0008676471188664436
1772093640597073000,1.599072998046875,0.0007792888209223747,0.00020839227363467216,0.00014195730909705162
1772093640607022800,1.60902294921875,-0.0000349096953868866,-0.0015803868882358074,0.0003392733633518219
1772093640616971800,1.6189716796875,0.001939291600137949,-0.0003236411139369011,-0.00010653957724571228
1772093640626921700,1.628921630859375,0.00031039025634527206,0.00037064822390675545,0.0015337830409407616
1772093640636872000,1.638871826171875,-0.002022805158048868,0.0009722562972456217,0.0015473649837076664
1772093640646820900,1.64882080078125,0.0019485577940940857,0.0014634965918958187,0.0006245053373277187
1772093640656770800,1.658770751953125,0.0015056738629937172,0.0023170397616922855,-0.00010200496762990952
1772093640666720800,1.668720703125,-0.0008352345321327448,-0.0020642797462642193,0.0026698876172304153
1772093640676670000,1.678669921875,0.0014257892034947872,0.00032484205439686775,-0.0003293645568192005
1772093640686619600,1.68861962890625,0.0009140651673078537,-0.0005481895059347153,-0.0016205860301852226
1772093640696569600,1.698569580078125,-0.00032164156436920166,0.0035863681696355343,-0.0006464016623795033
1772093640706518500,1.7085185546875,-0.00041480129584670067,0.0013808347284793854,-0.0006046369671821594
1772093640716468700,1.71846875,0.0022345115430653095,0.000677493866533041,-0.000950315035879612
1772093640726418700,1.728418701171875,-0.002413068898022175,-0.00005620485171675682,0.0008119801059365273
1772093640736367600,1.73836767578125,0.0016610347665846348,0.0028639514930546284,0.002508680336177349
1772093640746317800,1.74831787109375,-0.0024718521162867546,-0.001280250959098339,0.00028246594592928886
1772093640756267800,1.758267822265625,-0.0004960529040545225,0.0021829234901815653,0.0005402597598731518
1772093640766216700,1.768216796875,-0.0007193379569798708,-0.0019388999789953232,-0.0002822224050760269
1772093640776166700,1.778166748046875,-0.000258611049503088,0.0015767391305416822,-0.0012409603223204613
1772093640786116900,1.788116943359375,-0.00004734983667731285,0.0020798074547201395,-0.0008663353510200977
1772093640796065800,1.798065673828125,-0.0013403147459030151,0.00011838926002383232,0.0014665937051177025
1772093640806015700,1.808015625,0.00020721415057778358,0.0013150942977517843,0.0009031780064105988
1772093640815965700,1.817965576171875,-0.00047109322622418404,-0.0024032113142311573,-0.000735198613256216
1772093640825915000,1.827914794921875,-0.0004897364415228367,0.0000788634642958641,0.00037443917244672775
1772093640835864800,1.83786474609375,-0.0016822998877614737,0.003690109821036458,-0.0022066966630518436
1772093640845814800,1.847814697265625,-0.0029050339944660664,0.0012784097343683243,0.0006703948602080345
1772093640855765000,1.857764892578125,-0.00040006451308727264,0.0012344676069915295,0.0007710619829595089
1772093640865714000,1.8677138671875,-0.003236960619688034,-0.00042145373299717903,-0.001434891950339079
1772093640875664000,1.877663818359375,0.003966623451560736,-0.0016377191059291363,-0.0013238382525742054
1772093640885613600,1.887613525390625,0.00014945166185498238,0.00015250220894813538,0.0011379015631973743
1772093640895562800,1.897562744140625,0.0009254971519112587,-0.0012658974155783653,-0.0016853157430887222
1772093640905512700,1.9075126953125,-0.0005148847121745348,0.0008552689105272293,0.000452456995844841
1772093640915462700,1.917462646484375,0.0010579782538115978,-0.001210811547935009,0.00036324141547083855
1772093640925411600,1.92741162109375,0.00047699781134724617,0.000505280215293169,0.00003784988075494766
1772093640935361800,1.93736181640625,-0.0002769432030618191,-0.0014167232438921928,-0.0012260866351425648
1772093640945311700,1.947311767578125,-0.0003381012938916683,-0.0006058821454644203,0.0000016703270375728607
1772093640955260700,1.9572607421875,-0.0009445031173527241,-0.0004610060714185238,-0.0005794311873614788
1772093640965210600,1.967210693359375,0.0006358586251735687,0.0007361660245805979,0.00004005013033747673
1772093640975160800,1.977160888671875,0.0003016320988535881,-0.0022835922427475452,0.000028598587960004807
1772093640985109800,1.98710986328125,0.00044219987466931343,-0.00029141223058104515,-0.0004635751247406006
1772093640995059700,1.997059814453125,0.000539138913154602,0.0007418941240757704,0.0014800000935792923
1772093641005009700,2.007009765625,-0.0008998694829642773,-0.002935325261205435,-0.0006366660818457603
1772093641014958800,2.016958740234375,0.00012171920388936996,0.0020596995018422604,-0.001274759415537119
1772093641024908800,2.02690869140625,0.000043748412281274796,0.00001924019306898117,-0.0005301418714225292
1772093641034858800,2.036858642578125,0.002665097825229168,-0.0024015731178224087,0.001578549388796091
1772093641044807700,2.0468076171875,0.0017313421703875065,0.0002145557664334774,0.00033094221726059914
1772093641054758000,2.0567578125,0.001532936468720436,-0.0004658820107579231,0.00041536474600434303
1772093641064707800,2.066707763671875,-0.001681491732597351,-0.0007455502636730671,0.0007753251120448112
1772093641074656800,2.07665673828125,-0.0012710986193269491,-0.0010914946906268597,-0.0009195106104016304
1772093641084606700,2.086606689453125,0.0009666965343058109,-0.0008223457261919975,-0.0020076935179531574
1772093641094557000,2.096556884765625,-0.0010104342363774776,0.00012946780771017075,-0.0014423048123717308
1772093641104506600,2.106506591796875,0.0017262720502912998,-0.00039607658982276917,0.00031276606023311615
1772093641114455800,2.116455810546875,-0.0020141375716775656,0.0011046144645661116,-0.000467540230602026
1772093641124405800,2.12640576171875,0.0008131456561386585,0.00027073780074715614,-0.00024115154519677162
1772093641134355700,2.136355712890625,0.00017159013077616692,0.0002092183567583561,-0.000010255258530378342
1772093641144304600,2.1463046875,-0.0007203123532235622,0.00119085144251585,0.0006891763769090176
1772093641154254600,2.156254638671875,0.0028509865514934063,0.004708620719611645,0.001603439450263977
1772093641164204800,2.166204833984375,-0.0004719048738479614,-0.0004685209132730961,-0.0009533101692795753
1772093641174153700,2.17615380859375,0.0005523469299077988,-0.00015639839693903923,-0.0008768774569034576
1772093641184103700,2.186103759765625,0.001237555406987667,0.000544404610991478,-0.0010665622539818287
1772093641194053600,2.1960537109375,0.002552624326199293,-0.0017637568525969982,0.00017313938587903976
1772093641204002800,2.2060029296875,0.000305818859487772,-0.00044364016503095627,-0.0004019211046397686
1772093641213952800,2.215952880859375,0.0005633463151752949,0.0011305541265755892,-0.0005859457887709141
1772093641223902700,2.22590283203125,-0.0006485257763415575,-0.00014591123908758163,0.0014722803607583046
1772093641233851600,2.2358515625,0.0013397904112935066,0.0014330768026411533,-0.00009259302169084549
1772093641243801900,2.2458017578125,0.001338910311460495,-0.00014959415420889854,-0.00022227922454476357
1772093641253751800,2.255751708984375,-0.002337849698960781,-0.00006197625771164894,0.0002914448268711567
1772093641263700700,2.26570068359375,0.0005464428104460239,0.0008807780686765909,-0.0005021672695875168
1772093641273650700,2.275650634765625,-0.0005497140809893608,-0.000049730297178030014,0.0013194349594414234
1772093641283601000,2.285600830078125,-0.0023470018059015274,0.0019589450675994158,0.00039685051888227463
1772093641293551000,2.295551025390625,0.0017326949164271355,0.0027014343068003654,-0.0002548252232372761
1772093641303500300,2.305500244140625,-0.0003178457263857126,-0.0009366441518068314,0.0011292598210275173
1772093641313450000,2.315449951171875,-0.00004780106246471405,0.002159014344215393,-0.0016377647407352924
1772093641323400200,2.325400146484375,-0.001901926239952445,-0.0009587169624865055,0.0006796950474381447
1772093641333349000,2.33534912109375,0.000014218036085367203,0.001068747602403164,0.0002197669818997383
1772093641343299000,2.345299072265625,-0.0022378801368176937,0.0017637561541050673,0.002701524877920747
1772093641353249000,2.3552490234375,-0.00028205476701259613,-0.0030168844386935234,-0.0007011960260570049
1772093641363198200,2.3651982421875,-0.0014301259070634842,-0.00009344052523374557,-0.001286445651203394
1772093641373148200,2.375148193359375,-0.0018407853785902262,0.001576627604663372,-0.0021786047145724297
1772093641383098000,2.38509814453125,-0.0004834660794585943,0.001362981740385294,-0.0016521792858839035
1772093641393047000,2.395047119140625,0.000408426858484745,-0.0014285435900092125,0.0006615752354264259
1772093641402997200,2.404997314453125,-0.0007890192791819572,0.0004352978430688381,-0.000043591950088739395
1772093641412947200,2.414947265625,0.00040727248415350914,0.0016861844342201948,0.0011401833035051823
1772093641422896000,2.424896240234375,0.002687443047761917,-0.0003406377509236336,-0.0009747566655278206
1772093641432846000,2.43484619140625,-0.00011473475024104118,-0.0013656886294484138,-0.00005596596747636795
1772093641442796300,2.44479638671875,0.0013632788322865963,0.0007497454062104225,0.0009131161496043205
1772093641452745200,2.4547451171875,-0.00021650828421115875,-0.0014753257855772972,0.0011362889781594276
1772093641462695200,2.464695068359375,-0.0018592292908579111,-0.002164914272725582,0.00018566986545920372
1772093641472645400,2.474645263671875,0.000899272970855236,0.0007384638302028179,-0.0013895900920033455
1772093641482594300,2.48459423828125,-0.0016130576841533184,-0.0012075467966496944,-0.0032621026039123535
1772093641492544300,2.494544189453125,-0.0011379497591406107,-0.0019556283950805664,-0.0016833804547786713
1772093641502494200,2.504494140625,-0.00030527892522513866,0.0005805855616927147,0.0016041880007833242
1772093641512444200,2.514444091796875,-0.0009795913938432932,0.0007393097039312124,0.0009099021553993225
1772093641522393300,2.524393310546875,0.0005068839527666569,0.0007520206272602081,0.0025760778225958347
1772093641532343000,2.534343017578125,-0.0009322883561253548,-0.0018267184495925903,0.0017875158227980137
1772093641542293000,2.54429296875,0.0014397785998880863,-0.0014389059506356716,0.0009548626840114594
1772093641552242200,2.5542421875,0.00008476246148347855,0.0012679307255893946,-0.0006715301424264908
1772093641562192100,2.564192138671875,0.0005620722658932209,-0.00010253908112645149,-0.0021763606928288937
1772093641572142000,2.57414208984375,0.0017229439690709114,0.00159016577526927,0.0010684346780180931
1772093641582091000,2.584091064453125,-0.00028270063921809196,0.0025924858637154102,0.0005652555264532566
1772093641592041200,2.594041259765625,0.0023213382810354233,-0.0019593890756368637,-0.00018602237105369568
1772093641601991200,2.6039912109375,-0.0007110547740012407,-0.0024040904827415943,-0.002086242660880089
1772093641611940000,2.613940185546875,0.001640782691538334,0.0010945042595267296,0.0006986246444284916
1772093641621890000,2.62389013671875,-0.0008272246923297644,-0.0012539736926555634,-0.0010626972652971745
1772093641631840300,2.63384033203125,0.0022165020927786827,-0.001086460892111063,-0.0014504538848996162
1772093641641789200,2.6437890625,-0.001758271362632513,-0.0009567425586283207,-0.0012574284337460995
1772093641651739100,2.6537392578125,-0.0024901079013943672,0.0030899308621883392,-0.0010547619313001633
1772093641661689300,2.663689453125,-0.00000867573544383049,0.0012243872042745352,0.0021467965561896563
1772093641671639300,2.673639404296875,0.00011116638779640198,-0.0003277030773460865,-0.0008266228251159191
1772093641681588200,2.683588134765625,0.0014529475010931492,0.00006610946729779243,0.0006754966452717781
1772093641691538200,2.6935380859375,-0.001506623113527894,0.0024187457747757435,-0.00044915638864040375
1772093641701488400,2.70348828125,0.0005615819245576859,-0.000829045195132494,-0.0012629879638552666
1772093641711437300,2.713437255859375,-0.00189571687951684,0.00015472667291760445,-0.0002888035960495472
1772093641721387300,2.72338720703125,-0.0013611014001071453,-0.0003621792420744896,0.00020712288096547127
1772093641731337000,2.7333369140625,0.0005622333846986294,0.0003635319881141186,0.002541383495554328
1772093641741286400,2.743286376953125,-0.0023655325639992952,0.0014664963819086552,-0.0004066741093993187
1772093641751236000,2.753236083984375,0.0005330517888069153,-0.0010262224823236465,-0.001088176853954792
1772093641761186000,2.76318603515625,-0.00328500522300601,-0.00035210559144616127,-0.00028513558208942413
1772093641771135000,2.773135009765625,-0.00038402387872338295,0.0005136877298355103,0.0012381928972899914
1772093641781085200,2.783085205078125,-0.0018515607807785273,-0.0021430449560284615,-0.0007525789551436901
1772093641791035100,2.79303515625,0.0017271949909627438,0.0017992325592786074,0.0007888586260378361
1772093641800984000,2.802984130859375,-0.001678320812061429,-0.0000390373170375824,0.00041968468576669693
1772093641810934000,2.81293408203125,-0.0023579595144838095,0.00037881266325712204,-0.0006935163401067257
1772093641820884200,2.82288427734375,0.002250545658171177,0.0014200157020241022,0.00020188651978969574
1772093641830834200,2.832834228515625,-0.0004352519754320383,0.001222409075126052,-0.001267912331968546
1772093641840783000,2.842783203125,0.002051656600087881,0.0004673372022807598,-0.0012283767573535442
1772093641850733300,2.8527333984375,-0.00037368410266935825,-0.002286105416715145,-0.0008845627307891846
1772093641860683300,2.862683349609375,-0.0012825431767851114,0.0008879373781383038,0.00026396242901682854
1772093641870632200,2.872632080078125,-0.0014455285854637623,0.0028536166064441204,0.0011361478827893734
1772093641880582100,2.88258203125,0.0024195373989641666,0.000472058542072773,-0.00041286740452051163
1772093641890532400,2.892532470703125,-0.000033766962587833405,-0.00009812414646148682,-0.0012528281658887863
1772093641900481300,2.902481201171875,0.0009305980056524277,-0.0007814290001988411,-0.00149227911606431
1772093641910431200,2.91243115234375,0.0007399157620966434,-0.0028259376995265484,-0.003480595536530018
1772093641920381200,2.922381103515625,0.00010093115270137787,-0.0013957200571894646,0.00025034695863723755
1772093641930330400,2.932330322265625,-0.0021875230595469475,0.002500751055777073,-0.00016404082998633385
1772093641940280300,2.9422802734375,0.00022514443844556808,-0.002653623465448618,0.00030045676976442337
1772093641950230000,2.95222998046875,0.00023792777210474014,0.0019461882766336203,-0.0005352431908249855
1772093641960179200,2.96217919921875,0.0006764959543943405,-0.00027685752138495445,0.00018953951075673103
1772093641970129200,2.972129150390625,0.0009196423925459385,0.0015271678566932678,-0.001992388628423214
1772093641980079000,2.9820791015625,0.0028141364455223083,0.0009170991834253073,0.0008136262185871601
1772093641990029000,2.992029052734375,-0.0005963076837360859,-0.0019364780746400356,-0.0012764227576553822
1772093641999978000,3.00197802734375,0.0008791638538241386,-0.002064712345600128,0.0007221954874694347
1772093642009928200,3.01192822265625,0.0012980792671442032,-0.0009307381696999073,-0.0012030038051307201
1772093642019878100,3.021878173828125,0.001447118353098631,0.0019855245482176542,0.000005802605301141739
1772093642029827000,3.0318271484375,0.0006921123713254929,0.0019615560304373503,-0.0020956979133188725
1772093642039777300,3.04177734375,-0.0015080927405506372,-0.0007978901267051697,0.0026020363438874483
1772093642049727200,3.051727294921875,0.0003747623413801193,0.0020423713140189648,0.0006004045717418194
1772093642059676200,3.06167626953125,-0.0027883024886250496,-0.0013972199521958828,0.002560640452429652
1772093642069626000,3.071626220703125,0.00036248331889510155,-0.0017186636105179787,0.0033758338540792465
1772093642079576300,3.081576416015625,0.0013592788018286228,0.0012978066224604845,0.0014524459838867188
1772093642089525200,3.091525146484375,0.00164343835785985,-0.0016452525742352009,-0.0011606477200984955
1772093642099475200,3.10147509765625,0.0028755650855600834,-0.0008136420510709286,-0.0004822942428290844
1772093642109425200,3.111425048828125,0.001386858057230711,0.0038330412935465574,0.0018612875137478113
1772093642119375000,3.121375,-0.0009455627296119928,0.003722656285390258,0.0006890567019581795
1772093642129324300,3.13132421875,-0.00019854633137583733,0.001007030950859189,-0.0007170923054218292
1772093642139274200,3.141274169921875,0.0005418132059276104,-0.0010998710058629513,-0.0011946172453463078
1772093642149224200,3.15122412109375,0.0009439508430659771,0.0027886107563972473,-0.001872125081717968
1772093642159173400,3.16117333984375,-0.0003071415703743696,-0.0019846800714731216,0.004614697303622961
1772093642169123000,3.171123046875,0.0003400067798793316,-0.0017335438169538975,-0.002329228911548853
1772093642179073000,3.181072998046875,0.00034457864239811897,0.0019612321630120277,0.0013653808273375034
1772093642189022000,3.19102197265625,0.0003650849685072899,0.0031774980016052723,0.000384272076189518
1772093642198972200,3.20097216796875,-0.0023166602477431297,-0.0033965385518968105,-0.0000239713117480278
1772093642208922000,3.210922119140625,-0.001421305350959301,0.0015849038027226925,-0.00102931447327137
1772093642218871000,3.22087109375,0.0024823690764606,0.0047738258726894855,0.00032065296545624733
1772093642228821200,3.2308212890625,0.0009766179136931896,-0.0019466611556708813,-0.00022689299657940865
1772093642238771200,3.240771240234375,0.000007731840014457703,-0.00012171594426035881,-0.0012250840663909912
1772093642248720100,3.25072021484375,-0.002345171058550477,0.0016868365928530693,0.0016335533000528812
1772093642258670000,3.260670166015625,0.0015691043809056282,-0.0031109778210520744,-0.003132424782961607
1772093642268620300,3.270620361328125,0.00004870537668466568,-0.0010257228277623653,-0.0023047146387398243
1772093642278570200,3.2805703125,-0.000324649503454566,-0.002108448650687933,0.002699113916605711
1772093642288520000,3.29052001953125,-0.0007662016432732344,-0.0032762447372078896,0.0002149171195924282
1772093642298470000,3.300469970703125,-0.0012353009078651667,-0.003228910733014345,0.00017390726134181023
1772093642308419800,3.310419921875,0.000044348184019327164,0.001945078605785966,0.0009728558361530304
1772093642318369000,3.320369140625,-0.0016879343893378973,-0.0015916363336145878,-0.0010362779721617699
1772093642328318700,3.330318603515625,0.0016245055012404919,-0.0018686051480472088,-0.0013963370583951473
1772093642338269000,3.34026904296875,-0.0002232319675385952,0.0018694885075092316,0.001449901144951582
1772093642348217900,3.3502177734375,0.00010673375800251961,0.0015139563474804163,0.002881882945075631
1772093642358167800,3.360167724609375,-0.0009858564008027315,0.0013635435607284307,-0.001309854444116354
1772093642368117800,3.37011767578125,-0.0022220956161618233,-0.001448754221200943,0.001379938330501318
1772093642378066700,3.380066650390625,0.0004320666193962097,0.0007195230573415756,0.00034146523103117943
1772093642388017000,3.390016845703125,0.0010911989957094193,0.0003038039430975914,-0.0011941133998334408
1772093642397966800,3.399966796875,0.001555078662931919,-0.0014978204853832722,-0.004015821032226086
1772093642407916800,3.409916748046875,-0.0013677405659109354,0.001278524985536933,-0.0004197545349597931
1772093642417866000,3.419865966796875,0.0013515441678464413,0.000842998968437314,-0.0005028978921473026
1772093642427816000,3.42981591796875,-0.0006934972479939461,0.00014019059017300606,-0.0010621617548167706
1772093642437766000,3.439765869140625,0.0015021874569356441,0.0006210561841726303,0.00006195437163114548
1772093642447714800,3.44971484375,-0.00082408357411623,-0.0019923034124076366,-0.0009955870918929577
1772093642457665000,3.4596650390625,0.0033529074862599373,-0.0008870852179825306,0.0017764370422810316
1772093642467615000,3.469614990234375,0.0008980059064924717,0.0011257317382842302,-0.0003724675625562668
1772093642477564000,3.47956396484375,0.00003116484731435776,0.0018968468066304922,-0.002099077682942152
1772093642487513900,3.489513916015625,-0.0005006685387343168,-0.002190039958804846,-0.0019776374101638794
1772093642497464000,3.499464111328125,-0.00011729588732123375,0.0016484318766742945,0.00043022073805332184
1772093642507413000,3.5094130859375,0.0006390414200723171,-0.00018675252795219421,0.0016856349539011717
1772093642517363000,3.519363037109375,0.0012343009002506733,-0.0008210735395550728,-0.00025057559832930565
1772093642527313000,3.52931298828125,-0.000797690823674202,0.0009350148029625416,0.00034384196624159813
1772093642537262800,3.539262939453125,0.00033530499786138535,-0.0016696406528353691,0.00018796417862176895
1772093642547211800,3.549211669921875,-0.000821306137368083,0.001474220771342516,0.0016814649570733309
1772093642557161700,3.55916162109375,-0.001047210767865181,0.001586556201800704,-0.0001486102119088173
1772093642567112000,3.56911181640625,-0.0012128595262765884,0.0021855011582374573,-0.0012104124762117863
1772093642577060900,3.579060791015625,0.0019415165297687054,0.00017092516645789146,-0.0019608386792242527
1772093642587010800,3.5890107421875,-0.00021804054267704487,-0.0008653108961880207,0.0005486579611897469
1772093642596960800,3.598960693359375,0.002065571490675211,0.0004050121642649174,-0.000012286938726902008
1772093642606910000,3.608909912109375,-0.00040664104744791985,0.0004553459584712982,0.0007310011424124241
1772093642616860000,3.61885986328125,0.0001210598275065422,-0.0011349497362971306,-0.0024160901084542274
1772093642626809900,3.628809814453125,0.001747452188283205,-0.0019440180622041225,-0.0004698517732322216
1772093642636758800,3.6387587890625,0.0001965765841305256,-0.0009006736800074577,0.0007234010845422745
1772093642646709000,3.648708984375,-0.0010042425710707903,-0.00024819886311888695,-0.004242328926920891
1772093642656659000,3.658658935546875,0.0009466689079999924,0.0016257681418210268,0.0003810259513556957
1772093642666607900,3.66860791015625,0.0017051375471055508,-0.0015236861072480679,0.00043642008677124977
1772093642676557800,3.678557861328125,-0.0018904802855104208,-0.0005805287510156631,-0.0008443295955657959
1772093642686508000,3.688508056640625,-0.0015301546081900597,-0.0011158240959048271,-0.001341808121651411
1772093642696458000,3.6984580078125,0.0011458946391940117,0.0009262890089303255,0.000390038825571537
1772093642706407000,3.708406982421875,0.0007059401832520962,0.002849890384823084,0.001723483670502901
1772093642716357000,3.718357177734375,0.000624348409473896,0.00030893459916114807,0.0013026180677115917
1772093642726306800,3.728306884765625,-0.00006434507668018341,-0.0019946997053921223,-0.0005994117818772793
1772093642736256000,3.738256103515625,0.0035469871945679188,-0.0013762996532022953,-0.0005197525024414062
1772093642746205700,3.748205810546875,0.002744044177234173,0.0000016195699572563171,-0.0007900632917881012
1772093642756156000,3.758156005859375,-0.0006494726985692978,-0.0005410760641098022,-0.0012354529462754726
1772093642766104800,3.768104736328125,0.001055216882377863,0.0029061194509267807,-0.00085834925994277
1772093642776054800,3.7780546875,-0.001175114419311285,-0.0022154077887535095,0.0005831243470311165
1772093642786004700,3.788004638671875,0.002890201285481453,-0.0005908794701099396,-0.0014225021004676819
1772093642795954000,3.797953857421875,0.00019128480926156044,0.0017852429300546646,0.0007302784360945225
1772093642805904000,3.80790380859375,0.0027825403958559036,0.00010132603347301483,-0.0007352591492235661
1772093642815853800,3.817853759765625,0.00022632163017988205,0.0008706087246537209,0.0013127876445651054
1772093642825802800,3.827802734375,-0.001243210630491376,0.00409756088629365,-0.002277686260640621
1772093642835753000,3.8377529296875,0.0012388098984956741,-0.002114593982696533,0.0005013123154640198
1772093642845703000,3.847702880859375,0.0009016538970172405,0.0004287250339984894,0.002132232068106532
1772093642855652900,3.85765283203125,0.00162132503464818,0.002238305052742362,0.002104648621752858
1772093642865601800,3.867601806640625,-0.0009550170507282019,0.00040445243939757347,-0.00041097309440374374
1772093642875552000,3.877552001953125,0.0009629596024751663,0.000499130692332983,-0.0017352993600070477
1772093642885502000,3.887501953125,0.001959514804184437,0.001558003481477499,-0.0001778830774128437
1772093642895451000,3.897450927734375,-0.0012880181893706322,-0.0020190784707665443,0.0007554702460765839
1772093642905401000,3.907401123046875,0.0026079202070832253,0.002943189814686775,0.0015243245288729668
1772093642915351000,3.91735107421875,-0.0011533170472830534,0.0018692563753575087,0.0032194494269788265
1772093642925300000,3.927300048828125,0.00009916769340634346,0.0006143748760223389,-0.00016569485887885094
1772093642935250000,3.93725,-0.0005304997321218252,0.0007076032925397158,-0.001809531357139349
1772093642945199900,3.947199951171875,-0.0004852260462939739,0.0013590124435722828,-0.0010633133351802826
1772093642955149800,3.95714990234375,0.002890744712203741,0.0015861699357628822,0.00007401639595627785
1772093642965098800,3.9670986328125,-0.00021290313452482224,-0.0020575672388076782,0.0003334083594381809
1772093642975048700,3.977048583984375,0.0007682517170906067,0.001854084199294448,0.0029577678069472313
1772093642984999000,3.9869990234375,-0.0005950205959379673,-0.00023756269365549088,0.00045865727588534355
1772093642994947800,3.99694775390625,-0.0000980212353169918,-0.0025308788754045963,0.000017966143786907196
1772093643004897800,4.006897705078125,0.0003531184047460556,0.0006420114077627659,-0.0003056079149246216
1772093643014848000,4.016847900390625,0.004718862473964691,-0.0008829194121062756,-0.0018321024253964424
1772093643024797000,4.026796875,-0.001332904677838087,0.002422862220555544,-0.00216233404353261
1772093643034747000,4.036746826171875,-0.00044619617983698845,-0.0019147321581840515,0.0006066476926207542
1772093643044696800,4.04669677734375,0.0002792486920952797,-0.000705390702933073,-0.0014357306063175201
1772093643054645800,4.056645751953125,0.0016835378482937813,0.0014553123619407415,0.0013742963783442974
1772093643064596000,4.066595947265625,-0.00026855943724513054,0.0013594385236501694,0.00009304936975240707
1772093643074546000,4.0765458984375,-0.002056925557553768,-0.0004717032425105572,0.00033685844391584396
1772093643084494800,4.086494873046875,0.00006508128717541695,0.0003224513493478298,-0.00045862747356295586
1772093643094445000,4.096445068359375,-0.000003416556864976883,0.0017239423468708992,0.0008008759468793869
1772093643104395000,4.10639501953125,0.0014903503470122814,-0.0008960757404565811,-0.00017037894576787949
1772093643114344000,4.116343994140625,0.00042590685188770294,-0.0003518597222864628,-0.0011946884915232658
1772093643124294000,4.1262939453125,0.001241366844624281,0.00044975196942687035,0.0008716583251953125
1772093643134243800,4.136243896484375,0.0004353565163910389,-0.0009234580211341381,0.0010038954205811024
1772093643144193800,4.14619384765625,-0.00007437216117978096,0.00003501353785395622,0.0005226624198257923
1772093643154143000,4.15614306640625,0.002195977605879307,-0.0019405842758715153,0.0004836497828364372
1772093643164092700,4.1660927734375,0.0002886219881474972,0.001500486396253109,-0.0012407470494508743
1772093643174043000,4.17604296875,0.0003363974392414093,0.0017428719438612461,-0.0007580495439469814
1772093643183991800,4.18599169921875,-0.0034548784606158733,0.0007830685935914516,0.000990315806120634
1772093643193941800,4.195941650390625,-0.0007179593667387962,-0.0006887610070407391,-0.001073875930160284
1772093643203892000,4.20589208984375,0.0007912539876997471,-0.0002890201285481453,-0.00047013722360134125
1772093643213841000,4.2158408203125,-0.001785191474482417,0.001148545416072011,0.0004066573455929756
1772093643223790800,4.225790771484375,-0.0010211304761469364,0.0014939575921744108,-0.0026149656623601913
1772093643233740800,4.23574072265625,-0.0009399722330272198,-0.001743224449455738,0.0012602778151631355
1772093643243689700,4.245689697265625,-0.0019746101461350918,-0.0013599954545497894,-0.0006739762611687183
1772093643253640000,4.255639892578125,-0.0012650408316403627,0.00001539895310997963,0.0012763948179781437
1772093643263590000,4.26558984375,-0.0006961897015571594,-0.0006951321847736835,-0.0016405652277171612
1772093643273538800,4.275538818359375,0.0014584553427994251,0.0017274764832109213,0.0013724537566304207
1772093643283489000,4.285489013671875,-0.0002014930360019207,-0.0007410077378153801,-0.000578578095883131
1772093643293437700,4.295437744140625,0.0013066614046692848,0.0002384488470852375,-0.001406433992087841
1772093643303388000,4.305387939453125,0.0006912047974765301,0.0018366118893027306,-0.001144378911703825
1772093643313336800,4.3153369140625,0.0014503207057714462,-0.0006484645418822765,0.00004653027281165123
1772093643323286800,4.325286865234375,0.0009712181054055691,0.0008112138602882624,-0.0006088740192353725
1772093643333236700,4.33523681640625,-0.0012234728783369064,0.002220130991190672,0.0008325893431901932
1772093643343186000,4.34518603515625,0.0013957461342215538,0.0016448881942778826,-0.001015910878777504
1772093643353135900,4.355135986328125,-0.001278633251786232,0.0016647703014314175,0.00026672007516026497
1772093643363085800,4.3650859375,-0.002302352339029312,0.0028317675460129976,-0.0004486045800149441
1772093643373034800,4.37503466796875,-0.00009001325815916061,0.00033490080386400223,0.0020696274004876614
1772093643382985000,4.38498486328125,0.0005129263736307621,0.0024116337299346924,0.00012152502313256264
1772093643392935000,4.394934814453125,-0.0013544440735131502,0.0020671109668910503,-0.0005991305224597454
1772093643402883800,4.4048837890625,-0.003305742284283042,0.0007373946718871593,0.0011199400760233402
1772093643412833800,4.414833740234375,-0.001895721536129713,0.0006923975888639688,-0.0002753697335720062
1772093643422783700,4.42478369140625,-0.0020813439041376114,0.00017787469550967216,0.00013049598783254623
1772093643432733000,4.43473291015625,0.0008569876663386822,-0.0021016867831349373,-0.000842660665512085
1772093643442682600,4.4446826171875,-0.0011670147068798542,-0.0020694625563919544,-0.00194148113951087
1772093643452632800,4.4546328125,0.0022071870043873787,-0.0006574923172593117,-0.000004983041435480118
1772093643462582800,4.464582763671875,0.0025717737153172493,0.0025460240431129932,-0.000520837027579546
1772093643472531700,4.47453173828125,-0.00018908502534031868,-0.00003073969855904579,-0.0004560742527246475
1772093643482481700,4.484481689453125,0.0023129545152187347,0.00007232464849948883,0.0000390075147151947
1772093643492432000,4.494431884765625,0.0014140978455543518,-0.004305774345993996,-0.0007820907048881054
1772093643502380800,4.504380859375,-0.0009302827529609203,0.004092503804713488,0.0005550822243094444
1772093643512330800,4.514330810546875,-0.00016685808077454567,0.00008441973477602005,-0.001078824046999216
1772093643522280700,4.52428076171875,0.0005788267590105534,0.0015539517626166344,-0.0023816428147256374
1772093643532230000,4.53422998046875,0.00006605545058846474,-0.0020700725726783276,0.000557195395231247
1772093643542179800,4.544179931640625,-0.0015384990256279707,-0.00013741664588451385,-0.0022841310128569603
1772093643552129800,4.5541298828125,0.001639623660594225,0.001275831600651145,0.0013793297111988068
1772093643562078700,4.56407861328125,0.0010814252309501171,-0.001516758929938078,-0.001086224801838398
1772093643572029000,4.57402880859375,-0.0007896842435002327,0.00020699063315987587,0.0001646885648369789
1772093643581979000,4.583978759765625,-0.0009073959663510323,-0.0000513358972966671,0.00039638346061110497
1772093643591927800,4.593927734375,0.0005838829092681408,-0.00020974921062588692,0.0007910444401204586
1772093643601877800,4.603877685546875,0.0005266251973807812,-0.0007943133823573589,-0.00005956925451755524
1772093643611828000,4.613827880859375,-0.004414747469127178,0.0002501439303159714,0.0025207644794136286
1772093643621777700,4.623777587890625,-0.00001680338755249977,0.0007566772401332855,-0.002006076741963625
1772093643631726800,4.633726806640625,0.0003612600266933441,-0.0005444511771202087,0.00014273962005972862
1772093643641676800,4.6436767578125,0.001659550704061985,-0.000452572014182806,-0.000760604627430439
1772093643651626800,4.653626708984375,-0.002925364999100566,-0.0006522727198898792,-0.000623075757175684
1772093643661575700,4.66357568359375,-0.0001918962225317955,0.0005378937348723412,0.0005622971802949905
1772093643671525600,4.673525634765625,0.0006362730637192726,0.000333564355969429,-0.000833611935377121
1772093643681475800,4.683475830078125,0.0016440129838883877,0.001414275262504816,0.0006329906173050404
1772093643691424800,4.6934248046875,0.0023958617821335793,0.0016020305920392275,-0.00032384227961301804
1772093643701374700,4.703374755859375,-0.00016316957771778107,-0.002739987336099148,-0.00238006841391325
1772093643711324700,4.71332470703125,0.0008269841782748699,0.001962090376764536,0.0007174811325967312
1772093643721273900,4.72327392578125,0.0001476118341088295,0.0018126871436834335,0.0020179024431854486
1772093643731223800,4.733223876953125,-0.00026767095550894737,-0.0010242401622235775,0.00028971582651138306
1772093643741173800,4.743173828125,0.0003829393535852432,-0.0003419383428990841,-0.001274358481168747
1772093643751122700,4.753122802734375,-0.0006346972659230232,-0.002342649269849062,-0.0013626026920974255
1772093643761073000,4.763072998046875,0.0004891566932201385,0.003907256759703159,0.0034947367385029793
1772093643771022800,4.77302294921875,0.001093289814889431,0.0026977811940014362,-0.0001329844817519188
1772093643780971800,4.7829716796875,0.00047064293175935745,-0.0005249101668596268,0.0005061742849647999
1772093643790921700,4.792921630859375,-0.000642415601760149,0.0012237087357789278,0.0008226614445447922
1772093643800872000,4.802871826171875,-0.0014893007464706898,0.0006833532825112343,0.0013422444462776184
1772093643810822000,4.81282177734375,-0.002353692427277565,-0.0019057830795645714,-0.0013601575046777725
1772093643820770800,4.822770751953125,0.0006125364452600479,0.0009414022788405418,0.000012169592082500458
1772093643830721000,4.832720947265625,0.00043193018063902855,-0.0007355604320764542,-0.0021902071312069893
1772093643840670700,4.842670654296875,-0.001855192705988884,-0.002661558799445629,-0.001988339703530073
1772093643850620000,4.852619873046875,-0.00024326099082827568,-0.000530618242919445,0.00043326010927557945
1772093643860569600,4.862569580078125,-0.00007015559822320938,-0.001269911415874958,0.00036002323031425476
1772093643870519800,4.872519775390625,0.00038588978350162506,-0.0013460279442369938,0.0008003544062376022
1772093643880468700,4.88246875,-0.0006644611712545156,-0.0007478818297386169,-0.00004333537071943283
1772093643890418700,4.892418701171875,0.000568716786801815,0.003186318324878812,-0.00012703100219368935
1772093643900368600,4.90236865234375,0.002985801547765732,-0.0022712978534400463,-0.00037337327376008034
1772093643910317800,4.91231787109375,-0.0014668023213744164,0.00043292250484228134,-0.00020534871146082878
1772093643920267800,4.922267822265625,-0.0014108759351074696,0.0004222695715725422,0.0003768187016248703
1772093643930217700,4.9322177734375,-0.0012416688259691,0.0008650394156575203,0.001502828672528267
1772093643940166700,4.942166748046875,0.0007349294610321522,-0.00020129047334194183,0.000457005575299263
1772093643950116900,4.952116943359375,0.000235747080296278,0.00017749937251210213,0.0017141809221357107
1772093643960066800,4.96206689453125,-0.00042338529601693153,0.00033649010583758354,-0.0017934688366949558
1772093643970015700,4.972015625,0.002046369481831789,-0.0026970156468451023,0.00014294451102614403
1772093643979965700,4.981965576171875,0.00008175522089004517,0.0019520644564181566,0.0011773165315389633
1772093643989916000,4.991916015625,0.0003252788446843624,0.0018864693120121956,-0.0019138571806252003
1772093643999865900,5.001865966796875,-0.0011583680752664804,-0.00027655018493533134,-0.0012568552047014236
1772093644009814800,5.011814697265625,-0.00026305881328880787,-0.00205826573073864,0.00020553730428218842
1772093644019765000,5.021764892578125,-0.0005109990015625954,0.0011521747801452875,-0.001244553830474615
1772093644029715000,5.03171484375,0.0013507469557225704,-0.0009102365002036095,0.0001709028147161007
1772093644039663900,5.041663818359375,0.001487100962549448,-0.0002519027329981327,-0.0007710568606853485
1772093644049613800,5.05161376953125,-0.0008468953892588615,-0.0016433806158602238,0.00024248752743005753
1772093644059563800,5.061563720703125,0.00028441566973924637,-0.0002191220410168171,-0.0007601925171911716
1772093644069513000,5.071512939453125,0.000315037090331316,-0.0011362885124981403,-0.0006120284087955952
1772093644079462700,5.081462646484375,-0.00018723495304584503,0.0023790840059518814,0.0007962514646351337
1772093644089412600,5.09141259765625,-0.0012712557800114155,-0.003177457023411989,-0.0006417375989258289
1772093644099361800,5.10136181640625,-0.0016195974312722683,0.0013097028713673353,-0.0003703618422150612
1772093644109311700,5.111311767578125,0.0017858273349702358,-0.0009488128125667572,-0.00030016154050827026
1772093644119261700,5.12126171875,0.0028217965736985207,0.000641360878944397,-0.0003441036678850651
1772093644129210600,5.131210693359375,-0.001185722416266799,-0.0014564590528607368,0.0006811674684286118
1772093644139160800,5.141160888671875,-0.00042325956746935844,0.00030921678990125656,-0.0018704067915678024
1772093644149110800,5.15111083984375,0.0009709661826491356,-0.0015562567859888077,-0.002855925355106592
1772093644159060700,5.161060791015625,-0.00019416678696870804,-0.002016451209783554,0.00034892279654741287
1772093644169009700,5.171009765625,-0.002315566875040531,-0.0013260128907859325,-0.002644942607730627
1772093644178960000,5.1809599609375,-0.000476121436804533,-0.0018019196577370167,0.00043846573680639267
1772093644188908800,5.19090869140625,0.001505549531430006,-0.0014264793135225773,-0.00047050928696990013
1772093644198858800,5.200858642578125,-0.001921139657497406,-0.001491194125264883,-0.003092923667281866
1772093644208809000,5.21080908203125,-0.0014191463124006987,-0.0025054793804883957,-0.001692438032478094
1772093644218759000,5.220759033203125,-0.0010044921655207872,0.0014490485191345215,-0.0017089499160647392
1772093644228707800,5.230707763671875,0.00019795307889580727,0.00011605629697442055,0.0010379413142800331
1772093644238657800,5.24065771484375,-0.0007482680957764387,0.0004177927039563656,-0.0020302864722907543
1772093644248608000,5.25060791015625,-0.0006173648871481419,-0.005265423096716404,-0.0003243274986743927
1772093644258557000,5.260556884765625,0.001310497522354126,0.0003498517908155918,-0.000011672265827655792
1772093644268507000,5.2705068359375,-0.0021875188685953617,0.00154428044334054,0.0014989371411502361
1772093644278456600,5.28045654296875,0.0015100138261914253,-0.0005076853558421135,0.0016296980902552605
1772093644288409300,5.290409423828125,-0.0001490134745836258,0.0016289467457681894,-0.0003366130404174328
1772093644298359300,5.300359375,-0.0005151981022208929,0.0006510340608656406,0.0003139972686767578
1772093644308309500,5.3103095703125,0.0026048459112644196,-0.00006507802754640579,-0.0010067606344819069
1772093644318258400,5.320258544921875,0.0016277320683002472,-0.0019551231525838375,-0.00026080943644046783
1772093644328208400,5.33020849609375,0.002551482990384102,-0.002462610136717558,0.0012501543387770653
1772093644338158600,5.34015869140625,0.0007165647111833096,-0.0010151821188628674,-0.001281979028135538
1772093644348107500,5.350107421875,0.00032951775938272476,-0.0014259223826229572,-0.0022890670225024223
1772093644358057500,5.360057373046875,0.0027639134787023067,0.0014180673751980066,-0.0001494837924838066
1772093644368007400,5.37000732421875,0.0016448847018182278,-0.00023233657702803612,-0.0022842022590339184
1772093644377956600,5.37995654296875,0.0018158596940338612,0.00003957189619541168,-0.00030360929667949677
1772093644387906600,5.389906494140625,-0.00208379072137177,-0.001956071238964796,0.0008793002925813198
1772093644397856500,5.3998564453125,-0.0007759123109281063,0.002003782894462347,0.002644443418830633
1772093644407806500,5.409806396484375,-0.0023311288096010685,-0.0007371585816144943,-0.0009929006919264793
1772093644417755600,5.419755615234375,0.000020708423107862473,0.0007920286152511835,0.0011181868612766266
1772093644427705600,5.42970556640625,0.002803484443575144,0.0006403177976608276,0.00126715749502182
1772093644437655600,5.439655517578125,-0.001822959166020155,-0.0019442797638475895,-0.0004995837807655334
1772093644447604500,5.4496044921875,-0.00031871022656559944,0.00046031177043914795,0.00007869210094213486
1772093644457554700,5.4595546875,-0.000829238211736083,0.00033620838075876236,-0.001350626815110445
1772093644467504400,5.46950439453125,-0.00034560682252049446,-0.0037599005736410618,-0.0010502804070711136
1772093644477453600,5.47945361328125,0.0004938216879963875,-0.0005156374536454678,0.00029701273888349533
1772093644487403500,5.489403564453125,0.0005566142499446869,-0.0015271753072738647,0.0018624092917889357
1772093644497353500,5.499353515625,0.001093774102628231,0.001974615268409252,-0.0011120755225419998
1772093644507302400,5.509302490234375,0.0005521676503121853,-0.0003749658353626728,-0.001015951856970787
1772093644517252400,5.51925244140625,0.0015495214611291885,0.0003784424625337124,-0.0002841153182089329
1772093644527202600,5.52920263671875,-0.0007032519206404686,-0.0007724352180957794,0.001403831411153078
1772093644537151500,5.5391513671875,-0.0012470693327486515,0.0022646337747573853,0.0005670660175383091
1772093644547101400,5.549101318359375,-0.001901591895148158,0.002394435228779912,0.0003301044926047325
1772093644557051400,5.559051513671875,-0.0018102454487234354,-0.0026274877600371838,0.000733573455363512
1772093644567000600,5.56900048828125,0.00001381896436214447,-0.00044402945786714554,0.0021400260739028454
1772093644576950500,5.578950439453125,-0.00012999167665839195,0.00026863254606723785,0.0017554655205458403
1772093644586900500,5.588900390625,-0.0012147922534495592,0.0001832796260714531,-0.0016525015234947205
1772093644596849400,5.598849365234375,-0.0004624493885785341,0.0009657165501266718,0.0015853694640100002
1772093644606799600,5.608799560546875,-0.0007808513473719358,0.001219501020386815,-0.0002496629022061825
1772093644616749600,5.61874951171875,0.000030347611755132675,-0.0016433969140052795,-0.00044886721298098564
1772093644626698500,5.628698486328125,0.0001588454470038414,-0.0002938108518719673,-0.0001562526449561119
1772093644636648400,5.6386484375,-0.0012236011680215597,0.0013751920778304338,0.0007652011699974537
1772093644646598700,5.6485986328125,-0.0014010397717356682,-0.0010223360732197762,0.00037190644070506096
1772093644656547600,5.658547607421875,0.00023014657199382782,-0.0006652059964835644,0.0008475468493998051
1772093644666497500,5.66849755859375,-0.0002450961619615555,0.0005363533273339272,-0.000615396536886692
1772093644676447700,5.67844775390625,0.002609013579785824,-0.0008833780884742737,-0.00022124871611595154
1772093644686396700,5.688396728515625,0.0016300375573337078,-0.000829178374260664,-0.0029406314715743065
1772093644696346600,5.6983466796875,0.001857738010585308,-0.001867278479039669,-0.00014431262388825417
1772093644706296300,5.70829638671875,0.0004554223269224167,0.0009865243919193745,0.0007231687195599079
1772093644716246500,5.71824658203125,-0.003327597863972187,-0.00020097941160202026,-0.0003234534524381161
1772093644726195500,5.728195556640625,-0.0004024929367005825,0.0017781564965844154,-0.0017188354395329952
1772093644736145400,5.7381455078125,0.0005746209062635899,0.0017216973938047886,-0.0009438558481633663
1772093644746095400,5.748095458984375,-0.0012798500247299671,0.000674249604344368,0.0015142178162932396
1772093644756044500,5.75804443359375,-0.00027610454708337784,0.0005629295483231544,0.0015448443591594696
1772093644765994500,5.767994384765625,-0.0012363153509795666,0.00406451104208827,0.000535047147423029
1772093644775944400,5.7779443359375,-0.0010139413643628359,0.0014306448865681887,-0.0022218571975827217
1772093644785893400,5.787893310546875,-0.0032629393972456455,0.0020192472729831934,-0.0002110302448272705
1772093644795843600,5.797843505859375,0.00003378791734576225,0.002053335774689913,-0.0020795040763914585
1772093644805793500,5.80779345703125,-0.0013253388460725546,0.0018043490126729012,-0.0013647759333252907
1772093644815742500,5.817742431640625,0.0004171673208475113,0.00029540201649069786,-0.00026382552459836006
1772093644825692400,5.8276923828125,0.0016537774354219437,0.0008407342247664928,-0.0007344037294387817
1772093644835642600,5.837642578125,0.002272962126880884,-0.00019869767129421234,-0.0021677170880138874
1772093644845591600,5.847591552734375,0.0007305564358830452,-0.0019058524630963802,-0.0003043017350137234
1772093644855541500,5.85754150390625,0.0008333544246852398,0.00026675453409552574,-0.0011085760779678822
1772093644865491700,5.86749169921875,0.001873980276286602,-0.0009888047352433205,-0.0002582934685051441
1772093644875440600,5.877440673828125,0.0007224297150969505,0.0002122805453836918,0.00015875743702054024
1772093644885390600,5.887390625,0.000020914245396852493,0.001703914487734437,0.0002136225812137127
1772093644895340500,5.897340576171875,0.0016291970387101173,0.0020895402412861586,0.0014442694373428822
1772093644905289500,5.90728955078125,-0.001092750346288085,-0.0034553133882582188,0.0005572838708758354
1772093644915239700,5.91723974609375,0.00088491290807724,-0.0007532699964940548,0.00004968559369444847
1772093644925189400,5.927189453125,0.00022182520478963852,0.0007879347540438175,0.0014425977133214474
1772093644935138600,5.937138671875,0.0014900225214660168,0.0008414643816649914,0.0009352653287351131
1772093644945088500,5.947088623046875,-0.0011254411656409502,-0.001903508324176073,-0.0003140931949019432
1772093644955038500,5.95703857421875,-0.0022679371759295464,0.0013535378966480494,0.0026609241031110287
1772093644964987400,5.9669873046875,-0.0033022912684828043,0.0006934460252523422,-0.001688538584858179
1772093644974937300,5.976937255859375,-0.002054866636171937,-0.0009806170128285885,-0.0010118293575942516
1772093644984887600,5.986887451171875,0.0005542822182178497,0.0015122967306524515,0.0005209925584495068
1772093644994836500,5.99683642578125,0.0005774516612291336,-0.0015316964127123356,-0.0020750565454363823
1772093645004786400,6.006786376953125,-0.000610231189057231,0.0006175725720822811,0.0003054030239582062
1772093645014736400,6.016736328125,0.0004443805664777756,-0.000981655903160572,-0.0002626492641866207
1772093645024685600,6.026685546875,0.0004534721374511719,0.0011125074233859777,0.0010512960143387318
1772093645034635500,6.036635498046875,-0.000521777430549264,-0.0006614243611693382,0.0007330481894314289
1772093645044585500,6.04658544921875,0.0018155365251004696,0.00024525588378310204,-0.0010178368538618088
1772093645054535700,6.05653564453125,-0.0003219165373593569,-0.0012951167300343513,-0.00033846404403448105
1772093645064484600,6.066484619140625,0.00032255426049232483,-0.0015390175394713879,0.000325067900121212
1772093645074434600,6.0764345703125,0.0010799574665725231,0.0014397280756384134,0.0015578451566398144
1772093645084384500,6.086384521484375,-0.002166778314858675,-0.0016776053234934807,-0.00017299270257353783
1772093645094333400,6.09633349609375,-0.0005292005371302366,0.0012505401391535997,-0.0007570241577923298
1772093645104283600,6.10628369140625,-0.0018309552688151598,0.000047788023948669434,0.0005109487101435661
1772093645114233600,6.116233642578125,-0.0018208352848887444,-0.0008832528255879879,-0.001896549016237259
1772093645124182500,6.1261826171875,-0.00022888695821166039,0.003186002839356661,-0.000952486414462328
1772093645134132700,6.1361328125,-0.00024007214233279228,-0.002647917717695236,0.0002435394562780857
1772093645144082400,6.14608251953125,-0.0015801070258021355,0.0006056297570466995,-0.002108612097799778
1772093645154031600,6.156031494140625,0.0006867758929729462,0.0006080265156924725,0.0002341708168387413
1772093645163981300,6.165981201171875,0.0007920698262751102,0.0028860648162662983,-0.00023949425667524338
1772093645173931500,6.175931640625,0.000927358865737915,-0.0012748581357300282,0.00014852825552225113
1772093645183880400,6.18588037109375,0.002285331953316927,-0.0006072567775845528,-0.00025426410138607025
1772093645193830400,6.195830322265625,-0.0021552229300141335,-0.0017486875876784325,0.0005063344724476337
1772093645203780400,6.2057802734375,-0.0012659551575779915,-0.0015524551272392273,-0.0024867109023034573
1772093645213729500,6.2157294921875,0.002343426924198866,0.0006489134393632412,-0.00005710916593670845
1772093645223679500,6.225679443359375,-0.00014897994697093964,0.0010255768429487944,0.0007205381989479065
1772093645233629400,6.23562939453125,0.0005940417759120464,-0.0007877694442868233,-0.00008054077625274658
1772093645243578400,6.245578369140625,0.0008710529655218124,-0.0021897591650485992,-0.0007750815711915493
1772093645253528600,6.255528564453125,0.0004063313826918602,-0.0004725526086986065,-0.0009372681379318237
1772093645263478500,6.265478515625,-0.00012289220467209816,0.0013038543984293938,0.0009273122996091843
1772093645273427500,6.275427490234375,0.0026704976335167885,-0.0006008381024003029,0.0005041360855102539
1772093645283377400,6.28537744140625,-0.00044438615441322327,-0.0005843830294907093,-0.0016233702190220356
1772093645293324000,6.295323974609375,0.0031234505586326122,-0.0012826640158891678,-0.00021535716950893402
1772093645303273000,6.30527294921875,0.0015199501067399979,0.0013622406404465437,-0.0008266340009868145
1772093645313223200,6.31522314453125,-0.0021237870678305626,-0.00018239254131913185,-0.002335580997169018
1772093645323173000,6.325173095703125,0.0017849020659923553,-0.001477808691561222,-0.00024866312742233276
1772093645333122000,6.3351220703125,-0.0009203371591866016,-0.0014136265963315964,-0.00020445464178919792
1772093645343072000,6.345072021484375,0.0007100589573383331,-0.00021484913304448128,-0.00030594831332564354
1772093645353022200,6.355022216796875,0.002379062119871378,0.002483998192474246,0.0005406709387898445
1772093645362971100,6.36497119140625,-0.0012835341040045023,0.0005018031224608421,0.00007020030170679092
1772093645372921000,6.374921142578125,0.0002280762419104576,0.00006744172424077988,0.00004090508446097374
1772093645382871000,6.38487109375,0.0008460637181997299,0.00035273144021630287,-0.00004446879029273987
1772093645392820200,6.3948203125,0.00006415974348783493,-0.0009684627875685692,-0.0012551420368254185
1772093645402770000,6.40477001953125,-0.00018498022109270096,0.0012911527883261442,0.0009153108112514019
1772093645412719900,6.414719970703125,0.002771394792944193,0.0005201674066483974,0.002587509574368596
1772093645422669000,6.4246689453125,-0.0008665749337524176,-0.0012510553933680058,-0.001959450077265501
1772093645432619000,6.434618896484375,0.0008671428076922894,-0.0007099006325006485,-0.0002853870391845703
1772093645442569000,6.44456884765625,0.0009479247964918613,-0.0011863834224641323,0.0022535736206918955
1772093645452518000,6.454517822265625,-0.0007125558331608772,0.00023867422714829445,-0.0010045375674962997
1772093645462468000,6.464468017578125,0.002685545478016138,-0.0009448942728340626,-0.00011491868644952774
1772093645472418000,6.47441796875,0.00012917723506689072,-0.0007496848702430725,0.000716520007699728
1772093645482367000,6.484366943359375,0.0020349319092929363,0.0016819254960864782,-0.001756585668772459
1772093645492317000,6.49431689453125,0.0017052325420081615,0.0012520912569016218,0.00037447549402713776
1772093645502267100,6.50426708984375,-0.0015774017665535212,0.00014053145423531532,0.0009711128659546375
1772093645512216000,6.514216064453125,0.0026303930208086967,0.0005985950119793415,-0.0006190603598952293
1772093645522166000,6.524166015625,0.00179304089397192,0.0002057054080069065,-0.00016870256513357162
1772093645532116000,6.534115966796875,0.001071324571967125,-0.0025013978593051434,0.001260882243514061
1772093645542065200,6.544065185546875,-0.0022212739568203688,0.0009679400827735662,-0.0008703344501554966
1772093645552015000,6.55401513671875,-0.0013975582551211119,-0.000017696060240268707,0.0005691042169928551
1772093645561965000,6.563965087890625,0.00041651539504528046,0.0033299769274890423,-0.0011978670954704285
1772093645571915300,6.573915283203125,0.0008066683076322079,0.000144303310662508,0.0009310641326010227
1772093645581864200,6.5838642578125,0.0017805136740207672,-0.00255350349470973,-0.0003108247183263302
1772093645591814100,6.593814208984375,-0.0009699992369860411,0.00033096643164753914,-0.001996872015297413
1772093645601763800,6.603763916015625,0.00020554987713694572,-0.0021051415242254734,0.00047434959560632706
1772093645611713300,6.61371337890625,-0.001319376053288579,-0.00005024624988436699,3.073364496231079e-7
1772093645621663000,6.6236630859375,-0.00017162226140499115,-0.003914672415703535,-0.0015473030507564545
1772093645631613000,6.633613037109375,0.00047472724691033363,-0.0004949071444571018,-0.0005014794878661633
1772093645641562000,6.64356201171875,0.0005378182977437973,0.00068313954398036,-0.0015145698562264442
1772093645651512000,6.653511962890625,-0.000584970461204648,-0.0007219440303742886,-0.002118308562785387
1772093645661462000,6.6634619140625,-0.0003344309516251087,0.0002951081842184067,-0.00064803846180439
1772093645671411000,6.673410888671875,-0.0004015425220131874,-0.001192267518490553,-0.00006640423089265823
1772093645681361000,6.68336083984375,-0.003272624686360359,-0.00018256530165672302,0.000006463378667831421
1772093645691311000,6.69331103515625,-0.000030492432415485382,0.00004912959411740303,-0.00016317982226610184
1772093645701260000,6.703260009765625,-0.0013173602055758238,0.0002545062452554703,0.0007230080664157867
1772093645711210000,6.7132099609375,0.0015362170524895191,0.0005224202759563923,-0.0002162889577448368
1772093645721160200,6.72316015625,0.00028011295944452286,-0.0008781016804277897,0.0017103184945881367
1772093645731109000,6.733109130859375,-0.0004474627785384655,0.0006079422309994698,-0.00021434808149933815
1772093645741059000,6.74305908203125,0.0020666392520070076,0.000653665978461504,0.0006150794215500355
1772093645751009000,6.753009033203125,-0.00007747160270810127,-0.002044915221631527,0.0004126792773604393
1772093645760958000,6.7629580078125,0.00038456497713923454,0.001613417873159051,0.0012350897304713726
1772093645770908200,6.772908203125,-0.0013081401120871305,0.002395854564383626,0.00040551507845520973
1772093645780858000,6.782858154296875,0.0003954526036977768,-0.0010113264434039593,-0.001049920916557312
1772093645790807000,6.79280712890625,-0.00021254690364003181,0.0003162589855492115,0.0016712970100343227
1772093645800757200,6.80275732421875,0.0012630843557417393,-0.0006585926748812199,0.00023408234119415283
1772093645810707200,6.812707275390625,0.001927277073264122,-0.0031321365386247635,-0.0020735464058816433
1772093645820656000,6.82265625,-0.002121023368090391,0.003218808677047491,0.0003339056856930256
1772093645830606000,6.832606201171875,0.00348173500970006,-0.002620438579469919,0.000014592893421649933
1772093645840556000,6.84255615234375,0.0005042622797191143,0.00044618500396609306,-0.000796835869550705
1772093645850505200,6.852505126953125,-0.0012843168806284666,0.003955432679504156,-0.00020241830497980118
1772093645860455000,6.862454833984375,-0.0007499319035559893,0.0014473004266619682,0.0004644128493964672
1772093645870404900,6.87240478515625,-0.0008932100608944893,0.002558637410402298,-0.0010250932537019253
1772093645880354000,6.88235400390625,0.00013582687824964523,0.0018123481422662735,-0.0020886710844933987
1772093645890304000,6.892303955078125,-0.00029773591086268425,0.001429918222129345,-0.0012598955072462559
1772093645900254000,6.90225390625,-0.004469306208193302,0.0007963506504893303,-0.0023750895634293556
1772093645910203000,6.912202880859375,-0.0011291697155684233,0.00017077429220080376,0.002666540676727891
1772093645920153000,6.922153076171875,0.001094447448849678,0.0008293704595416784,0.0017389331478625536
1772093645930103000,6.93210302734375,0.000039569102227687836,-0.0023123607970774174,0.0014166906476020813
1772093645940052000,6.942052001953125,-0.0021993627306073904,-0.00027506332844495773,0.0007610530592501163
1772093645950002000,6.952001953125,-0.00010718358680605888,0.0028256550431251526,0.0006111171096563339
1772093645959952100,6.9619521484375,-0.0007550707086920738,0.0005823327228426933,0.0006802892312407494
1772093645969901000,6.971901123046875,0.002330468036234379,-0.0006927885115146637,0.0018861684948205948
1772093645979851000,6.98185107421875,0.0005090511403977871,-0.002104460261762142,-0.0006833840161561966
1772093645989801200,6.99180126953125,0.0015817726962268353,0.0005895933136343956,0.0008982671424746513
1772093645999750100,7.001750244140625,0.00142382038757205,0.0013223951682448387,0.0005616950802505016
1772093646009700000,7.0117001953125,-0.0025363003369420767,0.0013570163864642382,-0.0005562999285757542
1772093646019650000,7.021650146484375,-0.0015547072980552912,0.001566996332257986,0.00006837351247668266
1772093646029599000,7.031598876953125,0.001210985705256462,-0.0014551589265465736,0.0007299031130969524
1772093646039549200,7.041549072265625,0.0014109238982200623,0.0007183882407844067,0.001749934395775199
1772093646049499100,7.0514990234375,-0.000356083270162344,0.0007282420992851257,0.0009049135260283947
1772093646059448000,7.061447998046875,0.0002511749044060707,0.001673216000199318,-0.000048265326768159866
1772093646069398300,7.071398193359375,0.0004956531338393688,-0.0029481672681868076,-0.00047676824033260345
1772093646079348000,7.081347900390625,-0.0006402407307177782,0.0014599703717976809,-0.00016510160639882088
1772093646089297200,7.091297119140625,-0.000571531243622303,0.0005827252753078938,0.002375820418819785
1772093646099247000,7.1012470703125,-0.0016202370170503855,0.0010987648274749517,-0.0019162818789482117
1772093646109197000,7.111197021484375,-0.00031528808176517487,-0.0011774390004575253,-0.0007026796229183674
1772093646119146000,7.12114599609375,-0.0011749486438930035,0.0015275513287633657,0.003831829410046339
1772093646129096000,7.131095947265625,0.0012581152841448784,-0.002162790857255459,0.0013212673366069794
1772093646139046000,7.1410458984375,0.00020174449309706688,-0.000044467393308877945,0.0004235701635479927
1772093646148995000,7.1509951171875,-0.00031091365963220596,-0.0012146607041358948,-0.000041151419281959534
1772093646158945000,7.160945068359375,0.0011165556497871876,-0.0011458732187747955,0.0016116071492433548
1772093646168895000,7.17089501953125,0.0006086910143494606,-0.0017647920176386833,0.00007150089368224144
1772093646178844000,7.180843994140625,-0.000032774172723293304,0.0011788259726017714,0.0008790609426796436
1772093646188794000,7.190794189453125,-0.001989931333810091,0.0049626450054347515,0.00021034153178334236
1772093646198744000,7.200744140625,0.0027324953116476536,-0.0000716247595846653,0.00038189487531781197
1772093646208693000,7.21069287109375,0.0015338067896664143,0.0005454299971461296,-0.0016831201501190662
1772093646218643000,7.220642822265625,0.0016238680109381676,-0.0017013484612107277,0.0018466096371412277
1772093646228593200,7.23059326171875,-0.0009711161255836487,-0.00035698479041457176,0.00024045724421739578
1772093646238542000,7.2405419921875,-0.0019935164600610733,0.000148111954331398,-0.0022173281759023666
1772093646248492000,7.250491943359375,0.0016800477169454098,-0.0011320696212351322,-0.0015368903987109661
1772093646258442200,7.260442138671875,-0.0010910546407103539,0.000010155141353607178,0.0004835892468690872
1772093646268391200,7.27039111328125,0.0004357355646789074,0.002633102471008897,-0.0022868970409035683
1772093646278341000,7.280341064453125,0.0000024116598069667816,-0.0022279941476881504,-0.00021476345136761665
1772093646288291000,7.290291015625,0.0013076267205178738,-0.003156904596835375,0.0012233434244990349
1772093646298239200,7.3002392578125,-0.0008176623377948999,-0.0007848376408219337,0.0009493171237409115
1772093646308189200,7.310189208984375,-0.0005670590326189995,-0.0003182515501976013,0.0021618541795760393
1772093646318139400,7.320139404296875,0.0011805417016148567,0.005053355358541012,0.0006065121851861477
1772093646328088300,7.33008837890625,0.00013099005445837975,-0.001880450639873743,-0.0024997987784445286
1772093646338038300,7.340038330078125,0.0002402900718152523,-0.0029351431876420975,0.00042059365659952164
1772093646347988500,7.349988525390625,-0.0010715830139815807,0.0056516872718930244,0.0013564284890890121
1772093646357937400,7.3599375,0.002451880369335413,-0.004806780256330967,-0.00221814401447773
1772093646367887400,7.369887451171875,0.0001519746147096157,-0.002407538238912821,0.00857697892934084
1772093646377837000,7.379837158203125,-0.0019131181761622429,0.003462358843535185,0.009550848975777626
1772093646387786200,7.3897861328125,0.00044937198981642723,0.0007991977035999298,0.0013224794529378414
1772093646397736200,7.399736083984375,-0.0005417643114924431,-0.00592368608340621,0.0061649056151509285
1772093646407686100,7.40968603515625,-0.0025396677665412426,0.007516488898545504,0.005451178178191185
1772093646417635300,7.41963525390625,-0.002136662369593978,0.003388067474588752,0.003598050447180867
1772093646427585300,7.429585205078125,0.0016066767275333405,-0.003472235519438982,0.0036531779915094376
1772093646437535200,7.43953515625,-0.003143101232126355,0.007934990338981152,0.01228412613272667
1772093646447484200,7.449484130859375,-0.0008543806616216898,0.010230102576315403,0.012595982290804386
1772093646457434000,7.45943408203125,0.0005040252581238747,-0.0024725529365241528,0.01348833553493023
1772093646467383000,7.469383056640625,0.0005538263358175755,0.007403247058391571,0.013532810844480991
1772093646477333200,7.479333251953125,0.0007953755557537079,0.01352149248123169,0.02006438560783863
1772093646487283200,7.489283203125,-0.002612937707453966,0.003784709144383669,0.016164718195796013
1772093646497232100,7.499232177734375,-0.0001624380238354206,0.009552018716931343,0.003441351233050227
1772093646507182300,7.509182373046875,0.0009473012760281563,-0.002962973900139332,0.003566519822925329
1772093646517132300,7.51913232421875,-0.00017082272097468376,-0.002251068130135536,0.001430146861821413
1772093646527081200,7.529081298828125,0.0016076364554464817,0.0036544916220009327,-0.0021605929359793663
1772093646537031200,7.53903125,0.0005623567849397659,-0.00521917873993516,-0.007341222371906042
1772093646546981400,7.5489814453125,-0.0007172918412834406,-0.0028601502999663353,-0.01426730491220951
1772093646556930300,7.558930419921875,-0.0004132415633648634,-0.005165541544556618,-0.028051385655999184
1772093646566880300,7.56888037109375,0.0020579053089022636,-0.009355759248137474,-0.024992743507027626
1772093646576830200,7.578830322265625,-0.00033976766280829906,-0.00631101755425334,-0.020810164511203766
1772093646586779400,7.588779296875,-0.0008119461126625538,-0.00570914288982749,-0.02636605128645897
1772093646596729300,7.598729248046875,0.001878185197710991,-0.021420253440737724,0.004980158526450396
1772093646606679300,7.60867919921875,-0.0006914988625794649,0.027754483744502068,0.004329015500843525
