time,seconds_elapsed,z,y,x
1772094457277369300,0.078369384765625,0.44716450630724425,0.06678761724606155,-0.05690905117988586
1772094457287319300,0.0883193359375,0.604319646090269,0.019386618319526313,-0.09590944763831794
1772094457297269000,0.09826904296875,0.8594576057195663,0.08959588057734072,-0.1510315423361957
1772094457307218200,0.10821826171875,1.0419885942995548,0.20510449330732225,-0.11830956856012344
1772094457317168000,0.118168212890625,1.141972817096114,0.2653545254781842,-0.07323438223265111
1772094457327117300,0.128117431640625,1.173553365752101,0.262108821555227,0.028609277760237455
1772094457337067000,0.13806689453125,1.2005699674934147,0.29463205788880586,0.12722469642162323
1772094457347016200,0.14801611328125,1.2430752302676438,0.3335151115778833,0.21088789901435373
1772094457356966100,0.157966064453125,1.1902350359618663,0.35320794630236924,0.17512524236813187
1772094457366915300,0.167915283203125,1.2348135978788137,0.3747783384017646,0.027311712230369448
1772094457376865000,0.177864990234375,1.420030464541912,0.4125890136189759,-0.06646233081445098
1772094457386814200,0.187814208984375,1.6091940230041741,0.47489634364582595,-0.12511062687709926
1772094457396764200,0.19776416015625,1.8556711217939852,0.5061227451018989,-0.17881963990665972
1772094457406713300,0.20771337890625,2.206205391907692,0.5247552571184932,-0.22850443892143665
1772094457416663300,0.217663330078125,2.5864029788792133,0.5810358011364937,-0.34290925512798126
1772094457426613000,0.227613037109375,3.0218846461772917,0.6210404792666435,-0.40973837342821057
1772094457436562200,0.237562255859375,3.340676455071568,0.6913952874749899,-0.43667197306118904
1772094457446512000,0.24751220703125,3.610580606678128,0.8863326070331037,-0.5025746972315013
1772094457456461300,0.25746142578125,3.884816650009155,1.063670118623227,-0.5037923293929547
1772094457466411000,0.267410888671875,4.167465716898441,1.1884963756009936,-0.4913088415253907
1772094457476360200,0.277360107421875,4.547663303869962,1.2449892471954225,-0.47590157516561443
1772094457486310100,0.28731005859375,4.82077881873846,1.234361762458086,-0.3513493128236383
1772094457496259300,0.29725927734375,4.727651037707925,1.138237429960072,-0.24583332099355756
1772094457506209000,0.307208984375,4.4970402010917665,0.9775104230396449,-0.295821559934318
1772094457516158200,0.317158203125,4.401905756413936,0.8226520158916711,-0.362875134640187
1772094457526108200,0.327108154296875,4.328666917201876,0.7065130693688988,-0.3304693872064352
1772094457536058000,0.33705810546875,4.133867983201146,0.4314744774833321,-0.14784282929748296
1772094457546007000,0.347007080078125,3.6585476419895886,-0.0756498458765447,0.24155937000140545
1772094457555957000,0.35695703125,2.831030065888166,-0.7760681055016815,0.7661891010440885
1772094457565906000,0.366906005859375,1.3484797245472668,-1.3039604916021228,1.4113804173573852
1772094457575856000,0.376856201171875,-1.0599065283060074,-1.7360934329941868,2.041279033601284
1772094457585805000,0.38680517578125,-3.6928994089245792,-2.1513822070911526,2.406448562788963
1772094457595755000,0.396755126953125,-6.371817589893936,-2.158174351449311,2.2657708028152586
1772094457605704200,0.4067041015625,-9.656581019085644,-1.5423700192704797,1.7557012197837232
1772094457615654100,0.416654052734375,-12.792777104097604,-0.48726862622387707,0.6855482419472188
1772094457625603000,0.42660302734375,-15.162357533216476,0.8120641325123608,-0.37461730262115595
1772094457635553000,0.436552978515625,-16.132288607043026,1.4824522877939044,-0.9963492712832986
1772094457645502200,0.446502197265625,-15.442351701682805,0.9362678736776113,-1.3297569038987158
1772094457655452200,0.4564521484375,-13.464190510773658,-0.30934549676552414,-1.2229586902383713
1772094457665402000,0.466402099609375,-10.724672022891044,-1.235294805524498,-1.2554263239271939
1772094457675351000,0.47635107421875,-7.787427899906039,-1.9508327467396853,-1.5211080355331301
1772094457685301000,0.486301025390625,-5.539318718248605,-2.6733529480576514,-1.5939371249005199
1772094457695250000,0.49625,-4.454426217246056,-3.136945149813592,-1.4786425202473996
1772094457705200000,0.5062001953125,-4.403349525481462,-3.2768256219297647,-1.230430268228054
1772094457715149000,0.516149169921875,-4.811946692985296,-3.0563167848721147,-1.1579692815206943
1772094457725099000,0.52609912109375,-5.170160411685705,-2.45561562153995,-1.387136641330272
1772094457735048000,0.5360478515625,-5.3977948628395795,-1.6145435673385857,-1.467877088344097
1772094457744998100,0.545998046875,-5.189341497495771,-0.7469933291215449,-1.23188309738487
1772094457754947000,0.555947021484375,-4.528304523405432,-0.029174583492800592,-0.7796735826477408
1772094457764897000,0.56589697265625,-3.569761105033755,0.47126076362244784,-0.32175467728786167
1772094457774846000,0.575845947265625,-2.548212072172761,0.590724689849466,0.28103505582138893
1772094457784796200,0.585796142578125,-1.4074936390519142,0.5296943209558725,0.8261095359344035
1772094457794745000,0.5957451171875,-0.17202128500342367,0.3055857058405876,1.0212344870191068
1772094457804695000,0.605695068359375,1.0982914962798356,0.04784333586655557,0.9338985872630029
1772094457814645000,0.61564501953125,2.0344372048825026,-0.07897431412413716,0.8935396888677031
1772094457824594200,0.62559423828125,2.341076803690195,-0.1868922525294125,0.9430303535498679
1772094457834544000,0.635544189453125,2.4554583851516245,-0.16418730344213545,0.937474180727452
1772094457844493000,0.6454931640625,2.914122775116563,0.14207542487718164,0.769015556641668
1772094457854443000,0.655443115234375,3.712747434210777,0.5465934333086013,0.3503125171218067
1772094457864392000,0.665391845703125,4.4634728625327345,0.8239940050851553,0.056965530607476826
1772094457874342100,0.675342041015625,4.931813427859544,0.9388382356222719,0.0674818465879187
1772094457884291000,0.685291015625,5.382571574744582,0.9374098102543502,0.0038549218624830245
1772094457894241000,0.695240966796875,6.493176609152555,0.8410941199027001,0.1886550244182348
1772094457904190000,0.70518994140625,7.127371753546595,0.6355703782700002,0.8415807343758642
1772094457914140200,0.71514013671875,7.134525716954469,0.5244443645384163,1.2660961865015328
1772094457924089000,0.725089111328125,7.74755181659162,0.6334696065984666,0.6217471662312746
1772094457934039000,0.7350390625,7.954243432959914,1.0318269735082983,-0.2260655213367194
1772094457943989000,0.744989013671875,7.833550184133649,1.1748990812726319,-0.6709506114698947
1772094457953938200,0.754938232421875,7.310107324787974,0.8701397432535887,-0.616803133957833
1772094457963888000,0.76488818359375,6.794953570359945,0.813997730923444,-0.824730721861869
1772094457973837000,0.774837158203125,6.493247920823097,0.9856148190401494,-1.131973547259718
1772094457983787000,0.784787109375,6.107455874845385,0.9199338478617369,-1.230751170745492
1772094457993736200,0.794736083984375,5.680447436860203,0.7688947067409754,-1.1085396263107656
1772094458003686100,0.80468603515625,5.276111433932185,1.110835774423927,-0.7778188946917652
1772094458013635000,0.814635009765625,4.783365326145291,1.5008471916623414,-0.8506490069724619
1772094458023585000,0.8245849609375,4.342807086235284,1.647570515410602,-0.8945667668931185
1772094458033534000,0.834533935546875,3.7526691102325915,1.783238338267803,-0.9169916569299995
1772094458043484200,0.844484130859375,2.9564965204656124,1.8667557026490569,-1.0676283547297118
1772094458053433000,0.85443310546875,2.338030860123038,1.7627778801716862,-1.285516049503535
1772094458063383000,0.864383056640625,1.9088538459271192,1.614734267605096,-1.5053225835107267
1772094458073333200,0.874333251953125,1.4862667315155267,1.357566117322445,-1.6740372281841933
1772094458083282200,0.8842822265625,0.9777519767105579,0.9690567752100526,-1.7133727748811245
1772094458093232000,0.894232177734375,0.2946849571198225,0.5841797982506454,-1.5737683432273566
1772094458103181000,0.90418115234375,-0.5917226148456335,0.21737565359845756,-1.2343781290709972
1772094458113131000,0.914131103515625,-1.4013725258231162,0.056475335937738416,-0.9468526883170008
1772094458123080200,0.924080078125,-1.8501684327244758,0.10880085871964693,-0.9171513044711201
1772094458133030000,0.93402978515625,-1.8898931248694657,-0.03109992553219199,-0.8956841535504907
1772094458142978800,0.943978759765625,-1.5645488255918025,-0.48057475460842247,-0.8051886207196861
1772094458152928800,0.9539287109375,-1.43452543836236,-0.9520802137069404,-0.8953333673514425
1772094458162877700,0.963877685546875,-1.9529127678841351,-1.2070581604689359,-1.2917846083790063
1772094458172828000,0.973827880859375,-3.0900545115619895,-1.349135411977023,-1.431301361749321
1772094458182776800,0.98377685546875,-4.533396878108382,-1.4791317650690674,-0.8723832843966781
1772094458192726800,0.993726806640625,-6.0813236547231675,-1.2436185433641076,-0.09026771542429923
1772094458202676700,1.0036767578125,-7.592108156901597,-0.42052112179249523,0.25665777134140955
1772094458212625700,1.013625732421875,-8.43103910742104,0.5728735374689102,0.30084406427145005
1772094458222575900,1.023575927734375,-8.387181260994076,1.1840766594626009,0.48652920603342353
1772094458232524800,1.03352490234375,-7.569503526383638,1.4245520336195825,0.6246594004161655
1772094458242474800,1.043474853515625,-6.10397796960175,1.4076285174779593,0.8330056521236896
1772094458252423700,1.053423583984375,-4.568911843603849,1.1731383552104233,1.07243882375136
1772094458262374000,1.063373779296875,-3.215393540367484,0.7167784427955747,1.163703879649937
1772094458272322800,1.07332275390625,-1.9082061956733465,0.08737805839739739,1.1472007078122346
1772094458282272800,1.083272705078125,-0.7291442956328391,-0.4653021474789828,1.107085847305879
1772094458292221700,1.0932216796875,0.1450765794545412,-0.7545400181740521,1.0171678221020848
1772094458302172000,1.103171875,0.8117349005579948,-0.775310345936939,0.897438961328566
1772094458312120800,1.113120849609375,1.3913164112329481,-0.6272145647916942,0.7635532726477832
1772094458322070800,1.12307080078125,1.8517133240789174,-0.4749672169249505,0.666412383518368
1772094458332020700,1.133020751953125,2.2029922750800845,-0.365540627522394,0.637168388051167
1772094458341970000,1.142969970703125,2.6116601697325703,-0.37403102716580033,0.7017208666563034
1772094458351919900,1.152919921875,3.06157485153079,-0.4203520488359034,0.698332320196554
1772094458361868800,1.162868896484375,3.5734383322417735,-0.4330437726266682,0.5424744536824524
1772094458371818800,1.17281884765625,4.082341209581494,-0.46176644763350483,0.36316454604081805
1772094458381767700,1.182767578125,4.382632900667191,-0.5383752747353167,0.27463260490056124
1772094458391718000,1.1927177734375,4.531866599801183,-0.61446343896389,0.2384895158356987
1772094458401666800,1.202666748046875,4.518505013924837,-0.7085901679039001,0.2777909958662465
1772094458411616800,1.21261669921875,4.3675621727854015,-0.6747882168713957,0.24254407018981872
1772094458421565700,1.222565673828125,4.138590335547923,-0.5273556488752364,0.17606698019765316
1772094458431516000,1.232515869140625,3.784908415058255,-0.44700354359187183,0.16477127734255045
1772094458441464800,1.24246484375,3.2552661165505645,-0.3992030239537358,0.024670769267529247
1772094458451414800,1.252414794921875,2.7596815704673525,-0.32455877492316065,-0.1593124456810765
1772094458461364700,1.26236474609375,2.403129062977433,-0.2478164576347917,-0.20067496816096828
1772094458471314000,1.27231396484375,2.1266332580208775,-0.18345022231675684,-0.170157536958158
1772094458481263900,1.282263916015625,1.8670067548006772,-0.13871500853337346,-0.1157483215036802
1772094458491212800,1.292212890625,1.3617016096919774,-0.05233582498021423,0.0002023998374585062
1772094458501162800,1.302162841796875,0.463023169696331,0.12681465431600808,0.04843261156317312
1772094458511112000,1.31211181640625,-0.6869055748403072,0.32819391655512153,-0.039375677777919914
1772094458521062000,1.322061767578125,-2.0066016879737374,0.5423549920212477,-0.2348684027290903
1772094458531010800,1.3320107421875,-3.3926036261856556,0.7444901141289622,-0.4451624823024496
1772094458540960800,1.341960693359375,-4.608349535501003,0.8555640323471277,-0.6078381756052375
1772094458550909700,1.35190966796875,-5.608497468414902,0.8611820183593779,-0.7387910257045179
1772094458560860000,1.36185986328125,-6.355347516608238,0.8265296610426157,-0.8372719312660396
1772094458570808800,1.371808837890625,-6.718153239274025,0.7612238067869097,-0.9021555415216833
1772094458580758800,1.3817587890625,-6.550754353374242,0.617303265499696,-0.9152698015734553
1772094458590709000,1.391708984375,-5.804395303568244,0.45007951697111126,-1.0091698821507393
1772094458600658000,1.401657958984375,-4.594913715344667,0.2513350602149963,-1.0879292383499444
1772094458610607900,1.41160791015625,-3.3138433932036158,-0.05675977890230715,-0.9991962582122534
1772094458620556800,1.421556884765625,-2.160883902668953,-0.40585773260258134,-0.83647150160335
1772094458630506800,1.4315068359375,-1.2483458641469478,-0.62134771858491,-0.6861256034437566
1772094458640456000,1.4414560546875,-0.5705290201693773,-0.705067254474759,-0.5367961888503283
1772094458650406000,1.451406005859375,-0.008758475995063781,-0.6867872822228819,-0.40699185119904574
1772094458660354800,1.461354736328125,0.4646341120243072,-0.6710704384572803,-0.2465295961620286
1772094458670304800,1.4713046875,0.9480401445358991,-0.6820509744159877,-0.18907162412879988
1772094458680253700,1.481253662109375,1.4678893633037804,-0.6849244109604508,-0.22896474990956484
1772094458690204000,1.491203857421875,1.9733342091441153,-0.6335227980904281,-0.22260239353710784
1772094458700152800,1.50115283203125,2.492328272387385,-0.5792283133231103,-0.17091189898941664
1772094458710102800,1.511102783203125,2.9749598133951425,-0.5518756114952266,-0.09990573246655986
1772094458720053000,1.521052978515625,3.3510417817413805,-0.539352741465345,0.007104205982014536
1772094458730002000,1.531001953125,3.73012410094738,-0.538827658145316,0.13076815944844855
1772094458739951900,1.540951904296875,4.116525218734145,-0.5553102255864069,0.24273352834731338
1772094458749900800,1.55090087890625,4.48972081798911,-0.5693033508319407,0.3546334490608424
1772094458759850800,1.560850830078125,4.894371293693781,-0.6220870657101273,0.44739389461632817
1772094458769800000,1.570800048828125,5.194466585424542,-0.63533050509952,0.5646118320148438
1772094458779750000,1.58075,5.165509955531358,-0.5799701446663588,0.6987059027493
1772094458789698800,1.59069873046875,5.002961432272196,-0.46691685266662386,0.7666641712099314
1772094458799648800,1.600648681640625,4.9407244640678165,-0.29315153700746593,0.8070632554851472
1772094458809598000,1.610597900390625,4.93394751727879,-0.15014160775914787,0.9365646646670996
1772094458819548000,1.6205478515625,4.972490890684724,-0.05097604440171271,1.0939394385501742
1772094458829496800,1.630496826171875,5.072817643308639,0.06192914436422288,1.1400503976661711
1772094458839446800,1.64044677734375,5.143889659875631,0.1578952175606042,1.0167224164221436
1772094458849397000,1.65039697265625,5.028574596956372,0.21837482070364056,0.7428804139100015
1772094458859346000,1.660345947265625,4.5607904964685435,0.14410068362709133,0.40309181155320256
1772094458869295900,1.6702958984375,4.029389371594786,0.012705934979207812,0.08938574495799839
1772094458879244800,1.680244873046875,3.55580213778615,-0.051051520790718494,-0.0394170875005424
1772094458889195000,1.690195068359375,2.987782470089197,-0.06541844778470694,0.047556335618719456
1772094458899144000,1.70014404296875,2.4090257198005913,-0.04551233563572168,0.384259283452481
1772094458909094000,1.710093994140625,1.829153117224574,0.14965579700358211,0.5908631484720855
1772094458919042800,1.720042724609375,1.223152970701456,0.5009203541532159,0.6825989636875689
1772094458928992800,1.72999267578125,0.2715443200290203,0.7852805358093231,0.6460284247245639
1772094458938942000,1.73994189453125,-1.0208680648595094,0.8474278529688716,0.362335182544589
1772094458948892000,1.749891845703125,-2.7111358584851026,0.6016108620556071,0.19042049972079694
1772094458958841900,1.759841796875,-4.821641573047637,0.3533354451395571,0.40783312432877716
1772094458968790800,1.769790771484375,-7.28463795248866,0.31226551239807154,0.8743259428970516
1772094458978741000,1.779740966796875,-9.907847105717659,0.3886659939788282,1.3621882241651415
1772094458988690000,1.78968994140625,-12.549299187123776,0.8189624406587332,1.405779090218991
1772094458998639900,1.799639892578125,-14.751071565020084,1.6769981238164007,0.8571510823428631
1772094459008588800,1.8095888671875,-16.29248384517431,2.708915844348073,0.23422588530816135
1772094459018539000,1.8195390625,-16.73212380119562,3.0292990140870213,-0.14027381881531328
1772094459028488000,1.829488037109375,-15.778076525199412,2.677446939373016,-0.3712443555893376
1772094459038438000,1.83943798828125,-13.926006058245896,2.0142396355062724,-0.7148740704789758
1772094459048386800,1.84938671875,-11.346355476236342,1.2867695566959678,-1.2471103310026228
1772094459058337000,1.8593369140625,-8.858827297607064,0.46485111577585336,-1.5116156923055648
1772094459068286000,1.869285888671875,-6.881710062792897,-0.42790662893392145,-1.4438928400360047
1772094459078236000,1.87923583984375,-5.6989154059648515,-1.1208235730182379,-1.240922728408873
1772094459088185900,1.889185791015625,-5.014399941131472,-1.4108013022951782,-0.7218276890091597
1772094459098134800,1.899134765625,-4.870417002132535,-1.3805784518584607,-0.06685010628933087
1772094459108085000,1.9090849609375,-4.764862870249152,-1.1964107289221138,0.3295568754713982
1772094459118034000,1.919033935546875,-4.372385062897205,-0.896562470754981,0.44668165469374504
1772094459127983600,1.928983642578125,-3.7748008625417944,-0.6570370907992125,0.2980841711040586
1772094459137932500,1.9389326171875,-3.000070873776078,-0.6733418905206024,0.14737981489561497
1772094459147882800,1.9488828125,-1.759706071510911,-0.9084026922829449,0.1408161455310881
1772094459157831700,1.958831787109375,-0.12527999209463594,-0.7463114112719893,0.14883059822581707
1772094459167781600,1.96878173828125,1.6689578790932893,-0.6033654506379738,0.5307753211256117
1772094459177730600,1.97873046875,3.3261364730656147,-0.639780104919523,0.7488528393831103
1772094459187680800,1.9886806640625,4.699436750614643,-0.4953342245839536,0.970299322617054
1772094459197629700,1.998629638671875,5.790588312011957,-0.3674475205896422,1.2712149908199906
1772094459207579600,2.00857958984375,6.831653946247696,-0.39966779192127283,1.5363970823407171
1772094459217529600,2.018529541015625,7.7269684627681965,-0.2972199189575389,1.7136764340028166
1772094459227478500,2.028478515625,8.375788929364084,-0.04416974365403875,1.7298498624294996
1772094459237428700,2.0384287109375,9.013333968707919,0.028670652558654544,1.6983014624774455
1772094459247377700,2.048377685546875,9.526926465168595,-0.016145298310741782,1.5881223011419177
1772094459257327600,2.05832763671875,9.985945075398684,0.08485095107257366,1.4397643619291483
1772094459267276500,2.068276611328125,10.397253255426882,0.2873259726591408,1.3057207792729137
1772094459277226800,2.078226806640625,10.75278401865363,0.41711007123999294,1.132373798623681
1772094459287175700,2.08817578125,10.916963357985018,0.36317594421766697,0.8245042196296155
1772094459297125600,2.098125732421875,10.815228492128849,0.23585538620613514,0.4308525096600875
1772094459307074600,2.108074462890625,10.2270603548944,0.2950738833721727,0.09560860152821987
1772094459317024800,2.118024658203125,9.622966918775438,0.2753906201936304,-0.14875225402629003
1772094459326973700,2.1279736328125,8.836962087279558,0.281559445021674,-0.26659637876544146
1772094459336923600,2.137923583984375,7.920168144878745,0.5853529336832464,-0.36425654252860695
1772094459346873600,2.14787353515625,7.393567113763093,0.9997776382967829,-0.3870117970310151
1772094459356822500,2.157822509765625,7.210071079543233,1.2370211909256874,-0.32231684121526777
1772094459366772700,2.167772705078125,6.533297022616863,1.4859588346101342,-0.07275593279963359
1772094459376721700,2.1777216796875,6.276276902502775,1.6829092475563288,0.08817279810481704
1772094459386671600,2.187671630859375,6.0529912942081685,1.826747517387569,-0.12777315148408525
1772094459396620500,2.19762060546875,5.224678183814883,1.789097731820494,-0.48224334540776903
1772094459406570800,2.20757080078125,4.48873356051743,1.7125804554596542,-0.831007464043796
1772094459416519700,2.217519775390625,3.2142326798945664,1.3191662440404295,-0.878964635548368
1772094459426469600,2.2274697265625,1.0536755249619483,1.1230262706942855,-1.036709704048559
1772094459436418600,2.23741845703125,-0.7815221331238746,0.8368398234590888,-1.553874286842346
1772094459446368800,2.24736865234375,-2.842933269649744,0.2859128909908235,-2.1442535242550074
1772094459456318700,2.257318603515625,-4.8938890631347896,0.058422232221812004,-2.667113176885247
1772094459466267600,2.267267578125,-6.307761005046963,-0.02704027487784624,-3.0587369977563617
1772094459476217600,2.277217529296875,-7.178623217356204,0.0078884151622653,-3.1709657850980757
1772094459486166800,2.287166748046875,-7.638928360265493,-0.1799542699597776,-2.700325126135349
1772094459496116700,2.29711669921875,-8.24058434010446,-0.4354134974326938,-2.035571761870384
1772094459506065700,2.307065673828125,-8.875891829654574,-0.9014786651734262,-1.5027365125402807
1772094459516015600,2.317015625,-9.533668925166129,-1.4391723873853683,-1.029526368415728
1772094459525964500,2.326964599609375,-9.841657015973329,-1.571588222709298,-0.8682649623576552
1772094459535914800,2.336914794921875,-9.489342292183638,-1.3738694557391107,-0.9358196915186942
1772094459545863700,2.34686376953125,-8.576831141668558,-1.1351122106116265,-0.9682383714992553
1772094459555813600,2.356813720703125,-7.250593059545755,-1.0098379906706512,-0.7997478179052472
1772094459565762600,2.366762451171875,-5.958771041765809,-0.9285905439827591,-0.5859950675116852
1772094459575712800,2.376712646484375,-4.807306173703074,-0.951050432267785,-0.3534693006522953
1772094459585662700,2.386662841796875,-3.772572665098309,-0.9565459609441459,-0.13943122137817554
1772094459595611600,2.396611572265625,-2.9553607944339513,-0.9654998864460735,-0.0008859433885198086
1772094459605561600,2.4065615234375,-2.419582185128331,-1.0862683194004,0.13204828065317123
1772094459615510800,2.4165107421875,-2.3268068707972764,-1.2691029671020806,0.3684345588656142
1772094459625460700,2.426460693359375,-2.797407782271504,-1.4650968099758028,1.163716008479148
1772094459635409700,2.43640966796875,-2.9742087027668953,-1.6328810419313609,1.95362150067538
1772094459645359600,2.446359619140625,-2.360642504903674,-1.493682414599508,1.999110017044097
1772094459655308800,2.456308837890625,-1.1498019032865763,-1.1561001266479491,1.6982180219776928
1772094459665258800,2.4662587890625,0.2882973019093275,-0.9534702798258513,1.38858537883386
1772094459675207700,2.476207763671875,1.6881676064759492,-0.9553857580583542,1.1863972113646566
1772094459685157600,2.48615771484375,3.0624750152409077,-0.9699390379372984,0.9976450101822614
1772094459695106600,2.4961064453125,4.152893001666665,-0.8624054957397281,0.7503487039640545
1772094459705056800,2.506056884765625,4.823434886205196,-0.7126910273514687,0.5121338586175814
1772094459715006500,2.51600634765625,5.203433735734224,-0.5746617360599339,0.3134168378576636
1772094459724955600,2.52595556640625,5.3513072524309155,-0.42652423466481265,0.19760975363776087
1772094459734905600,2.535905517578125,5.295969396090507,-0.3021549459406175,0.22571546579003332
1772094459744854800,2.545854736328125,5.111435835516453,-0.17504061455829067,0.23452863111440092
1772094459754804700,2.5558046875,4.923945763224363,0.06384327088985592,0.15272099326048044
1772094459764753700,2.565753662109375,4.531157574748993,0.36788339125625785,0.26141590738762166
1772094459774703600,2.57570361328125,3.969196476438641,0.6157553784705698,0.40423553822822866
1772094459784652800,2.58565283203125,3.2810265807509422,0.8799133876405656,0.4042237016599625
1772094459794602800,2.595602783203125,2.629796714925766,1.1598927969291806,0.4414708612428978
1772094459804551700,2.6055517578125,1.8575369156658648,1.3879955962471664,0.6039540276482701
1772094459814501600,2.615501708984375,0.8499000883013009,1.542459597250074,0.8732754109308123
1772094459824450600,2.625450439453125,-0.2891372598648071,1.6429460704803467,1.0227961103126406
1772094459834400800,2.63540087890625,-1.2177888133198023,1.6397519506141542,1.116538296914473
1772094459844350500,2.6453505859375,-1.8621464552879332,1.6015670352570712,1.075103585981205
1772094459854299600,2.655299560546875,-2.32569978633821,1.4465850017294286,0.9865186360120772
1772094459864249600,2.66524951171875,-2.5691829640090464,1.2448910475179553,0.9636461483381688
1772094459874198800,2.67519873046875,-2.66686533960402,1.0826406304225324,0.8574041072558611
1772094459884148500,2.6851484375,-2.6379858666002747,0.9022199850600212,0.7149171789683401
1772094459894097700,2.69509765625,-2.577171040153503,0.681461922481656,0.6276084594801068
1772094459904047600,2.705047607421875,-2.5559026266753673,0.4800948256043717,0.535642707966268
1772094459913996800,2.714996826171875,-2.4320319168567655,0.34793117494322356,0.5304616520665586
1772094459923946500,2.724946533203125,-2.3171809643179175,0.2588203014038503,0.6069686992943286
1772094459933895700,2.734895751953125,-2.268824637427926,0.08841256167744285,0.7212740006491541
1772094459943845600,2.744845703125,-2.196488300013542,-0.15742657713554797,0.7516586175188422
1772094459953794800,2.754794921875,-1.9597937595695256,-0.35114056544378397,0.695643957895413
1772094459963744800,2.764744873046875,-1.5719658238500356,-0.5278243258329108,0.6204195708893239
1772094459973694500,2.774694580078125,-1.0499696561813354,-0.7381373841013759,0.5303406560353935
1772094459983643600,2.7846435546875,-0.36698446965515613,-0.8855085042338818,0.5184422015141695
1772094459993593600,2.794593505859375,0.4039011186420917,-0.9589750147219747,0.4990084195846691
1772094460003542800,2.804542724609375,1.1280822389096021,-0.9929367594260722,0.5439101125087589
1772094460013492500,2.814492431640625,1.7131541636943817,-1.0303049515727907,0.5917921364178881
1772094460023441700,2.824441650390625,2.228283368203044,-1.0083187452141196,0.5696061697034165
1772094460033391600,2.8343916015625,2.7112521783411503,-0.9277696560539305,0.46645014847032723
1772094460043340800,2.8443408203125,3.297061769750714,-0.7697074113633483,0.32461613113358617
1772094460053290500,2.85429052734375,3.8560429754674432,-0.6551733427539468,0.2039258597156964
1772094460063239700,2.86423974609375,4.302293874061108,-0.5849317491291091,0.18635040073767303
1772094460073189400,2.874189453125,4.586822178825736,-0.5009052661819383,0.1456386155177839
1772094460083138800,2.884138916015625,4.696754964184761,-0.5035463187426328,0.18607235098127275
1772094460093088500,2.894088623046875,4.735415826490521,-0.5578569143945351,0.15683021867759525
1772094460103038500,2.90403857421875,4.67847988730371,-0.5907067158013581,0.019782778030261395
1772094460112987400,2.9139873046875,4.566169851419329,-0.46880452957674856,-0.13347155492193996
1772094460122937600,2.9239375,4.485369637042283,-0.28725941022895274,-0.2516251292027533
1772094460132886500,2.933886474609375,4.465297155350447,-0.2010448426529765,-0.25575996398516
1772094460142836500,2.94383642578125,4.246945496326685,-0.16999975258056074,-0.2508721554109827
1772094460152785700,2.95378564453125,3.764287067312002,-0.3211761832801625,-0.052333450360037385
1772094460162735600,2.963735595703125,3.1265216632157564,-0.530730751331523,0.217432644482702
1772094460172684500,2.9736845703125,2.49058464359045,-0.5971479643626139,0.41128461648952214
1772094460182634500,2.983634521484375,1.7051316007584332,-0.41551074628457424,0.4763818329632282
1772094460192583700,2.993583740234375,0.87069679261446,-0.11489208826683461,0.49303062381669877
1772094460202533600,3.00353369140625,-0.01027998647391796,0.1682713213527575,0.4975929267635569
1772094460212482800,3.01348291015625,-1.0125777908980846,0.3369426748737693,0.44221199846640225
1772094460222432500,3.0234326171875,-2.1440882506906984,0.3285263999124989,0.3429769866019487
1772094460232382500,3.033382568359375,-3.505291847732663,0.1348213620956987,0.46684499300681054
1772094460242331600,3.04333154296875,-5.13249615920186,0.008010726367682217,0.5696645122945309
1772094460252281600,3.053281494140625,-6.951336556726694,0.2095502937350422,0.5887297166399658
1772094460262230500,3.06323046875,-8.559752581095696,0.8399785598762333,0.7245656626056879
1772094460272180500,3.073180419921875,-9.727902041977643,1.553345002271235,1.079089513812214
1772094460282129700,3.083129638671875,-10.52611227505207,1.9913272542133926,1.5047352851420641
1772094460292079600,3.09307958984375,-11.016544845199585,2.130427974128723,1.714564468883723
1772094460302028500,3.103028564453125,-11.10805174703002,1.931860627505183,1.3997719587586819
1772094460311978500,3.112978515625,-10.966009420704841,1.6773165421158074,0.5232691467465832
1772094460321927400,3.122927490234375,-10.336465316987036,1.299141547013074,-0.4700541277790442
1772094460331877600,3.132877685546875,-8.992320406773686,0.7659406061757356,-1.3681747512288391
1772094460341826600,3.14282666015625,-7.376526547113061,0.5841617876699194,-2.173675287441909
1772094460351776500,3.152776611328125,-5.455808075869083,0.7442231337558478,-2.6179651150956746
1772094460361726700,3.162726806640625,-4.0338942817986005,0.8698125571258366,-2.334599424369633
1772094460371675600,3.172675537109375,-3.2467654147088525,0.7792089608106761,-1.8956128176905214
1772094460381625600,3.18262548828125,-2.64595816065371,0.4943627492032945,-1.5182725198462605
1772094460391574500,3.192574462890625,-2.2570015131652355,0.058027095424383876,-1.176086172165349
1772094460401524500,3.2025244140625,-2.06950384208858,-0.46576881514266133,-0.900924757617712
1772094460411473700,3.2124736328125,-1.8429285445988177,-0.8141257412172853,-0.7664782201837748
1772094460421423600,3.222423583984375,-1.5413298625677823,-0.8115997298710048,-0.6488843256123363
1772094460431372500,3.23237255859375,-1.1755144366919994,-0.6845821003288031,-0.48832507647424933
1772094460441322500,3.242322509765625,-0.9101742320001125,-0.691685794854164,-0.10019507080195471
1772094460451271400,3.252271484375,-0.5940110180437564,-0.7972332047358155,0.3331744449140504
1772094460461221600,3.2622216796875,-0.41788580485284327,-0.9112906688094139,0.8367832709662616
1772094460471170600,3.272170654296875,-0.1699123300254345,-1.0645775888569653,1.1900126253828405
1772094460481120500,3.28212060546875,0.5322562803983688,-1.161554738792032,1.0183886691339314
1772094460491069400,3.2920693359375,1.6452648688167333,-1.1281582267552615,0.47331521193422377
1772094460501019600,3.30201953125,3.1969238176971673,-0.7455792976051568,-0.060804633846320205
1772094460510969600,3.311969482421875,4.771701191836596,-0.2843886040329933,-0.3788654981175437
1772094460520918500,3.32191845703125,6.177989546751975,-0.2155997299671173,-0.41980745709780604
1772094460530868500,3.331868408203125,7.245496028667688,-0.1970475897103548,-0.4271025825420394
1772094460540817700,3.341817626953125,7.933681121924519,-0.17914112694598733,-0.39734146786555646
1772094460550767600,3.351767578125,8.287351351976394,-0.33779300809279084,-0.28061969821983945
1772094460560716500,3.361716552734375,8.38734083546996,-0.4719689849570393,-0.23129430710198357
1772094460570666500,3.37166650390625,8.495521808725595,-0.34587424241341647,-0.3416658309381455
1772094460580615700,3.38161572265625,8.658174961403011,-0.14544219789654014,-0.43235633835177867
1772094460590565600,3.391565673828125,8.912020543134211,-0.058899567409977316,-0.39577933311536906
1772094460600514600,3.4015146484375,9.19369404298961,0.04806585604343563,-0.4485930412730202
1772094460610464500,3.411464599609375,9.486338434192538,0.13853655582708305,-0.5486710433002561
1772094460620413400,3.421413330078125,9.533543837481737,0.21883968000272289,-0.5786940237833187
1772094460630363600,3.43136376953125,9.30520562197268,0.1525940972114913,-0.6382730613574386
1772094460640313600,3.441313720703125,8.707056188949942,-0.06670211265338584,-0.7205191636938602
1772094460650262500,3.451262451171875,7.82056561487615,-0.25790455653211103,-0.8346661326818168
1772094460660212700,3.461212646484375,6.947324398475885,-0.3817470449032262,-1.1122326356098056
1772094460670161700,3.47116162109375,6.125168057146668,-0.44916389996353534,-1.3465971256710587
1772094460680111600,3.481111572265625,5.068155496716499,-0.42187089243363585,-1.4778322267778217
1772094460690060500,3.491060546875,3.814839442941546,-0.33313999465517696,-1.544997152903676
1772094460700010500,3.501010498046875,2.3198721030980347,-0.28704532908685504,-1.5818965584948659
1772094460709959700,3.510959716796875,0.8627706757903099,-0.226466722548753,-1.4210824578128753
1772094460719909600,3.52090966796875,-0.4859931263953447,-0.18566724077910185,-1.0134230095505714
1772094460729858600,3.530858642578125,-1.8790590116441248,-0.15332593688368795,-0.46513826215416193
1772094460739808500,3.54080859375,-3.2125948495596646,-0.29646628757864235,0.07668782888846472
1772094460749758700,3.5507587890625,-4.7257881664454935,-0.5364541704796254,0.38381592359915373
1772094460759707600,3.560707763671875,-6.209259129762649,-0.7356467363294213,0.45832288305088875
1772094460769657600,3.57065771484375,-7.274547935628891,-0.6839937059815973,0.31691191343180836
1772094460779606500,3.5806064453125,-7.421547007578611,-0.6227480138368904,0.21449604304153472
1772094460789556700,3.590556640625,-6.921134310686588,-0.709185211187601,0.21758268394526092
1772094460799505700,3.600505615234375,-6.142803667080402,-0.8101751769606024,0.0893459609368816
1772094460809455600,3.61045556640625,-5.655208950707316,-0.792157508906722,-0.23994397069402038
1772094460819404500,3.620404541015625,-6.1029655776888125,-0.847578075094521,-0.5235893551442772
1772094460829354800,3.630354736328125,-7.192965046441555,-0.8648973856206983,-0.6242444629397242
1772094460839303700,3.6403037109375,-8.426516077038645,-0.6496373359367251,-0.5567735761372372
1772094460849253600,3.650253662109375,-9.819505974441766,-0.401606577964127,-0.2683663293137215
1772094460859202600,3.66020263671875,-10.742754792070388,-0.2770973510462791,0.015447817565873264
1772094460869152500,3.670152587890625,-10.61997830722928,-0.12144910869486629,0.11082841902449726
1772094460879101700,3.680101806640625,-9.511520806244015,-0.04582724680379033,0.10904401982575654
1772094460889051600,3.6900517578125,-7.631609561684727,-0.17408238225169478,0.10261113723404705
1772094460899001600,3.700001708984375,-5.349401126548647,-0.42469614245481785,0.07223704175837338
1772094460908950500,3.709950439453125,-3.1352438988536595,-0.6806139273501932,0.09185971558978781
1772094460918900700,3.719900634765625,-1.037915061250329,-0.8454211162563413,0.16541794121563433
1772094460928849700,3.729849609375,0.9835504338562489,-0.823957837793231,0.14462218675054608
1772094460938799600,3.739799560546875,2.8840923785120247,-0.656877516323328,0.12707984459083527
1772094460948748500,3.74974853515625,4.4644151118189095,-0.4081045616813004,0.2230693899943493
1772094460958698800,3.75969873046875,5.5322062558948994,-0.14842260194681584,0.4440970815606415
1772094460968647700,3.769647705078125,6.055219491651654,0.06659472502246498,0.6560252834081649
1772094460978597600,3.77959765625,6.414779364264011,0.28825119774527846,0.7430920108340681
1772094460988546600,3.789546630859375,6.632378743615746,0.4328123750235885,0.7776503331918269
1772094460998496500,3.79949658203125,6.8294508832454675,0.524985997134447,0.7585710272558033
1772094461008445700,3.80944580078125,6.932947498077154,0.5728051484078168,0.691288904491067
1772094461018395600,3.819395751953125,7.101563943073153,0.6643532590314746,0.640883243855834
1772094461028344600,3.829344482421875,7.099656063625216,0.7666667284931987,0.5062370556639507
1772094461038294500,3.83929443359375,6.8340732823491095,0.7464293385632336,0.33221900735273957
1772094461048244700,3.84924462890625,6.365317706480622,0.5693780965685844,0.2805405503027141
1772094461058193700,3.859193603515625,5.885313591367006,0.4154612080544233,0.34061190143842246
1772094461068143600,3.8691435546875,5.381126052111387,0.3910474092226475,0.39016872669197616
1772094461078092500,3.879092529296875,4.809926000812649,0.4553340764984488,0.3538523086205125
1772094461088042800,3.889042724609375,4.070185492363572,0.528579564647004,0.25496600059587504
1772094461097991700,3.89899169921875,3.2321330782443285,0.5629097042720764,0.21342622185293583
1772094461107941600,3.908941650390625,2.124263021758199,0.6058342884369194,0.18914463456608355
1772094461117890600,3.918890625,1.1008429343283175,0.643598274968192,0.10500654447060077
1772094461127840300,3.92884033203125,-0.04584872798323631,0.7447459885861725,0.1324403487106785
1772094461137789400,3.93878955078125,-1.1210428417921066,0.8600131937757134,0.14175017497818918
1772094461147739400,3.948739501953125,-1.9967396346509456,0.8452654873032123,0.19017971323486416
1772094461157688300,3.958688232421875,-2.8471564403027294,0.6909254780061542,0.2446494449712336
1772094461167638300,3.96863818359375,-3.753374628153443,0.48276225471533835,0.06809286375888624
1772094461177588500,3.97858837890625,-4.501589534959197,0.3105599871218204,-0.39195374694522467
1772094461187537400,3.988537353515625,-5.1343654602050774,0.18285985520817338,-0.9059031305521726
1772094461197487400,3.9984873046875,-5.621670253720879,0.03443893376179039,-1.189652340703085
1772094461207436300,4.008436279296875,-5.682911781147122,-0.10905037650130689,-1.2082592068217695
1772094461217386500,4.018386474609375,-5.560211868673563,-0.21019166037850082,-0.9513754995036869
1772094461227335400,4.02833544921875,-5.310121840083599,-0.3188999454438686,-0.6216260240696371
1772094461237285400,4.038285400390625,-4.807066519728303,-0.38300475334674117,-0.46950705182291563
1772094461247234300,4.048234375,-4.046640950646997,-0.3216590348936617,-0.4787009966257959
1772094461257184500,4.0581845703125,-3.1728520372360944,-0.3433455276533961,-0.4308990887481719
1772094461267133400,4.068133544921875,-2.293120289772749,-0.4427704360667616,-0.2211523225929588
1772094461277083400,4.07808349609375,-1.5470757127434014,-0.5030980635184794,0.028974220348801462
1772094461287032300,4.0880322265625,-0.9240835148870944,-0.5356112168494611,0.21073402362689375
1772094461296982300,4.097982177734375,-0.4350310009211302,-0.5609248871304094,0.3876008489653468
1772094461306932500,4.107932373046875,0.1561608680486679,-0.5339643264252693,0.517059514984116
1772094461316881400,4.11788134765625,0.9244868349909782,-0.4312125020788982,0.5478747052907943
1772094461326831400,4.127831298828125,1.7448223906338214,-0.35227475710548456,0.6005341362021863
1772094461336780300,4.1377802734375,2.5599030944883823,-0.3491309791870415,0.7261301354434341
1772094461346730500,4.14773046875,3.4170495006561277,-0.3507993507906794,0.8156459365218878
1772094461356679400,4.157679443359375,4.279622608047723,-0.3715342784466222,0.8096434812366962
1772094461366629400,4.16762939453125,5.04836475457549,-0.4047616444615647,0.8146689081832766
1772094461376578300,4.177578369140625,5.659197143560648,-0.44603283539619293,0.8187666258256882
1772094461386528500,4.187528564453125,5.995878829410672,-0.46568347494676704,0.7212544922310858
1772094461396477400,4.1974775390625,6.1353831616908305,-0.46876259013116356,0.5671153758009896
1772094461406427400,4.207427490234375,6.2623296256929635,-0.31723584815654904,0.38795704199187453
1772094461416376300,4.217376220703125,6.3372045416742555,-0.042210188817791636,0.3398178284512833
1772094461426326500,4.227326416015625,6.336310807704925,0.21680534289721398,0.34728553398344664
1772094461436276500,4.2372763671875,6.16498218114078,0.3865131267938763,0.2834359794832766
1772094461446225400,4.247225341796875,5.812693176314235,0.3886121448997408,0.29300330590950324
1772094461456175400,4.25717529296875,5.154639601948857,0.30970822913069274,0.2718497692489996
1772094461466124300,4.267124267578125,4.41418889940381,0.26929997516833243,0.05684182202941738
1772094461476074500,4.277074462890625,3.6537621612787246,0.2978796615079045,-0.13256430388391016
1772094461486023400,4.2870234375,3.1442531347393987,0.27499643324427303,-0.07797383184470236
1772094461495973400,4.296973388671875,2.8553064290106294,0.21779205237962304,0.08528693133704364
1772094461505922300,4.30692236328125,2.559630707287788,0.15727248255237936,0.12441835203031078
1772094461515872500,4.31687255859375,2.150729003879428,0.028788506784662604,-0.0364872080611065
1772094461525821400,4.326821533203125,1.2405997800648212,-0.01774571924470365,-0.41252928278837353
1772094461535771400,4.336771484375,-0.6552028611093759,-0.053146118449792265,-0.7199769465759396
1772094461545720300,4.34672021484375,-3.3975901824265717,-0.19673750084787606,-0.6829227888144552
1772094461555670500,4.35667041015625,-6.690050595861673,-0.39459300940763203,-0.40216691526062787
1772094461565620500,4.366620361328125,-9.65276818279922,-0.39376086943242694,-0.20245578716313464
1772094461575569400,4.3765693359375,-12.083685416412353,-0.19083978457879275,-0.04888432368631474
1772094461585519400,4.386519287109375,-14.000035755574702,0.2614648245632648,0.05305285980892367
1772094461595468300,4.39646826171875,-15.32660000091195,0.7732667112801224,-0.12853577902019023
1772094461605418500,4.40641845703125,-16.00553737335205,0.7612371046599,-0.3338055824244395
1772094461615367400,4.416367431640625,-16.062259377527237,0.35281178659163415,-0.47145614006407555
1772094461625317400,4.4263173828125,-15.204688608467578,-0.17923216623030602,-0.4925353876456618
1772094461635266300,4.436266357421875,-13.457403042590617,-0.5501780868623405,-0.594436805707775
1772094461645216500,4.446216552734375,-11.246161410081386,-1.0154745352528989,-0.8117015828102827
1772094461655165400,4.45616552734375,-8.944355709549784,-1.5817707401581107,-1.0237420859258621
1772094461665115400,4.466115478515625,-7.027561718273162,-2.106405001245439,-1.133784030747786
1772094461675064300,4.476064208984375,-5.521002140313387,-2.616924373871088,-1.0840100190795958
1772094461685014500,4.4860146484375,-4.324769325241446,-3.044225072801113,-1.0385225256241857
1772094461694963500,4.49596337890625,-3.340332171678543,-3.12936828481853,-1.0713336389884351
1772094461704913400,4.505913330078125,-2.353527704462409,-2.960931872564554,-0.9372527930617331
1772094461714863400,4.51586328125,-1.4202216031998396,-2.5803540541037915,-0.7935035166881979
1772094461724812500,4.5258125,-0.5466957246392965,-1.7773166931338606,-0.8555185857702046
1772094461734762500,4.535762451171875,0.4825006081044674,-0.777488201432675,-0.653549760140106
1772094461744711400,4.54571142578125,1.563889484900236,0.06603124592080711,0.01870630790516734
1772094461754661400,4.555661376953125,2.5526772348880766,0.7393700677014887,0.8416560646343976
1772094461764610300,4.5656103515625,3.5288796440690753,1.450051508796215,1.4714371189132331
1772094461774560500,4.575560546875,4.726877130725979,2.1207345553711057,1.9003689261764287
1772094461784509400,4.585509521484375,6.043572892999649,2.483120883581042,2.2062299418270586
1772094461794459400,4.59545947265625,7.450533448088168,2.6781957119137045,2.153662134721875
1772094461804408300,4.605408203125,8.837484649848937,2.833274045422673,1.7182094012573361
1772094461814358500,4.615358642578125,9.906310982191561,2.71690333597064,1.1268090041033922
1772094461824308500,4.62530859375,10.537201824343203,2.383307195045799,0.6708677554920315
1772094461834257400,4.63525732421875,10.605964979445934,2.20241754393205,0.19885699548618868
1772094461844207400,4.645207275390625,10.451777457296847,2.14889228997156,0.14859884442971086
1772094461854156500,4.655156494140625,10.080927544385194,1.6991637783952056,0.4798465499317273
1772094461864106500,4.6651064453125,9.487207618242502,1.3344066294007002,0.6524336886569857
1772094461874055400,4.675055419921875,9.052003014320135,1.3482630130566655,0.5628780304921791
1772094461884005400,4.68500537109375,8.731754576876758,1.3230040686376392,0.4999405128030106
1772094461893954600,4.69495458984375,8.433677054709195,1.3068050673782825,0.6374486662972718
1772094461903904500,4.704904541015625,8.034189660856127,1.4030575563006102,0.7820800592675805
1772094461913853400,4.714853515625,7.210303719255328,1.506901669395715,0.7520467400535941
1772094461923803400,4.724803466796875,6.4306421193063255,1.6089494005933402,0.5720967444101348
1772094461933752300,4.73475244140625,5.4748155586779115,1.672091500943899,0.14061788301263003
1772094461943702500,4.74470263671875,4.309228057238459,1.537519510499388,-0.32507951086163517
1772094461953651500,4.7546513671875,3.1606185786068437,1.3600319229140876,-0.5958697245877236
1772094461963601400,4.764601318359375,2.2411913650929924,1.258106064530462,-0.7454641467928886
1772094461973551600,4.774551513671875,1.5518465804070234,1.2256762055687607,-0.863632626381889
1772094461983500500,4.78450048828125,0.879249516904354,1.1888630169562995,-1.083178975082934
1772094461993450500,4.794450439453125,0.22392507524192332,1.1386571166768669,-1.2670175391301512
1772094462003399400,4.8043994140625,-0.5420025983870029,1.0108825312875211,-1.2086501058354973
1772094462013349400,4.814349365234375,-1.5430430962264536,0.6681357001796364,-1.1324955983724445
1772094462023298600,4.824298583984375,-2.824153750377893,0.3062712038867175,-0.9584049597490578
1772094462033248500,4.83424853515625,-4.0927684955716135,0.0523673160970211,-0.7759194908112287
1772094462043197400,4.844197509765625,-5.141986456602812,-0.05424567718952894,-0.8692674904637038
1772094462053147400,4.8541474609375,-5.644247411710023,-0.09922229851335286,-1.0244409549102187
1772094462063096300,4.864096435546875,-5.229817884790897,-0.2243529452651739,-1.1395967356145382
1772094462073046500,4.874046630859375,-4.332645757704973,-0.6572761602520942,-1.1290732957735656
1772094462082996500,4.88399658203125,-3.5768975327849386,-1.1302594368182122,-1.1048865836959332
1772094462092945400,4.8939453125,-3.722022043034434,-1.4999306613393126,-1.092075544374436
1772094462102895600,4.9038955078125,-4.588967958682775,-2.1410217027269303,-0.7033500752933323
1772094462112844500,4.913844482421875,-5.841537578004599,-2.488095164862275,-0.20778858129214495
1772094462122794500,4.92379443359375,-7.18225017568171,-1.9230400460593402,-0.2057853517109528
1772094462132744200,4.933744140625,-8.417856969764829,-1.3868908498756587,-0.1172492549853865
1772094462142694400,4.9436943359375,-8.908360851582884,-0.9825402339003979,0.14422991776363922
1772094462152643300,4.953643310546875,-8.219695281332731,-0.5202729971379041,0.3084824501954019
1772094462162593300,4.96359326171875,-6.916305575355887,-0.27037958709858356,0.4442918734803796
1772094462172542200,4.973542236328125,-4.954360775232315,-0.3225731540638953,0.6571025572508573
1772094462182492200,4.9834921875,-2.962553920808434,-0.927540085081756,1.006264077706635
1772094462192441300,4.99344140625,-1.3834978464365004,-1.781155394513905,1.1631371126126497
1772094462202391300,5.003391357421875,-0.18891805926859379,-2.3819103338599206,0.8695135741792619
1772094462212341200,5.01334130859375,0.6561562163114547,-2.714331731916964,0.3743782331682741
1772094462222290200,5.023290283203125,1.1942530394315718,-2.8401982917279005,0.02577296748892404
1772094462232240400,5.033240478515625,1.6293115128815172,-2.749595060738921,0.022455796631798145
1772094462242189300,5.043189208984375,2.0078250922888516,-2.3967118894115087,0.29069952247915787
1772094462252139300,5.05313916015625,2.3303707007586953,-1.8318613532699644,0.552084724201262
1772094462262088200,5.063088134765625,2.775832494801283,-1.2329593483142554,0.8470950408179313
1772094462272038400,5.073038330078125,3.175467772692442,-0.7006109326530248,1.2596855888068674
1772094462281987300,5.0829873046875,3.4470676223009824,-0.2985768865244463,1.5272151202365756
1772094462291937300,5.092937255859375,3.8669893168956038,0.03747983582764864,1.4712854354828595
1772094462301886200,5.10288623046875,4.333447721737623,0.3237727025793865,1.1979022826541215
1772094462311836200,5.112836181640625,4.645146942022443,0.5230203961499035,0.8490629068247973
1772094462321786400,5.122786376953125,4.696767823666334,0.5369463379107415,0.5538558985922485
1772094462331735300,5.1327353515625,4.643107545149326,0.5396360153861344,0.35445385471023616
1772094462341685200,5.142685302734375,4.593142614018917,0.7321509301029145,0.1213166505547706
1772094462351634200,5.15263427734375,4.681974159160256,0.9220919026784599,-0.02801473680003546
1772094462361584400,5.16258447265625,4.756017300492525,0.9912380657494068,-0.03432930850801058
1772094462371533300,5.172533203125,4.853032736611366,1.0586712874226272,-0.12132293416508473
1772094462381483300,5.182483154296875,4.799124036291241,1.1251046844035386,-0.293803114517685
1772094462391432200,5.19243212890625,4.334690415275096,1.1064404620744288,-0.4023812521310523
1772094462401382400,5.20238232421875,3.7557033633619543,0.9698177496451884,-0.5205556134715676
1772094462411331300,5.212331298828125,2.8205788145005704,0.8661358413744717,-0.7818045302618295
1772094462421281300,5.22228125,1.5141589470475911,0.8290293689038604,-0.9942108710151165
1772094462431230200,5.232230224609375,-0.09082534930706024,0.7899887135002761,-0.9748663382716476
1772094462441180400,5.242180419921875,-1.6809510992258787,0.7812514264237135,-0.8177741807222366
1772094462451130400,5.25213037109375,-3.1339398305177686,0.8759908804345875,-0.6398348307814449
1772094462461079300,5.262079345703125,-4.40486577526331,1.017633028461039,-0.5817329165551811
1772094462471029200,5.272029296875,-5.536743899324536,1.0422419845387338,-0.6742946612007915
1772094462480978200,5.281978271484375,-6.2748512536138294,0.9371639457345008,-0.8138429787531495
1772094462490928400,5.291928466796875,-6.441745112600922,0.7943439130350947,-0.9754138160865753
1772094462500877300,5.301877197265625,-6.233740660068392,0.5678212225154042,-1.0266467943914235
1772094462510827300,5.3118271484375,-5.672009863382578,0.1531815599769354,-1.0737961566444485
1772094462520776200,5.321776123046875,-5.076783039808273,-0.2797757034100592,-1.0454757057629525
1772094462530726400,5.331726318359375,-4.569057389554381,-0.5130671574123203,-0.8986941490214317
1772094462540675300,5.34167529296875,-4.051106113362312,-0.5541110423970967,-0.6543413489092141
1772094462550625300,5.351625244140625,-3.5950048518836497,-0.5508781248904764,-0.3435262910477817
1772094462560575200,5.3615751953125,-3.128264122968912,-0.5303857372861355,-0.05004318399839103
1772094462570524400,5.3715244140625,-2.5401860021054743,-0.38323892742879684,0.08944310116842388
1772094462580474400,5.381474365234375,-2.0139649102181196,-0.3297251447103917,0.1734533636331558
1772094462590423300,5.39142333984375,-2.0556541804343462,-0.502150042078644,0.3648686465449631
1772094462600373200,5.401373291015625,-1.326903268033266,-0.5570527218721807,0.3202334956025705
1772094462610322400,5.411322509765625,-0.5270113654822111,-0.429055360577628,0.12215378636550157
1772094462620272400,5.4212724609375,0.2346048746883869,-0.3456583346404135,0.09169968445617704
1772094462630221300,5.43122119140625,1.078042488977313,-0.39518794309347866,0.22266692840699104
1772094462640171300,5.441171142578125,1.9300638072162866,-0.45846660237051545,0.3797433403979987
1772094462650120200,5.4511201171875,2.7837071736991406,-0.5048289789643139,0.6049609396684914
1772094462660070400,5.4610703125,3.5135037957608697,-0.5743253437124193,0.8031773539625108
1772094462670020400,5.471020263671875,4.1135125929147005,-0.6671933047629892,0.8849195984300225
1772094462679969300,5.48096923828125,4.651098543903231,-0.7437876649480313,0.9080410193637013
1772094462689919500,5.49091943359375,5.093754048353433,-0.8216400623701512,0.9412017498832196
1772094462699868400,5.500868408203125,5.423441345271468,-0.8731399479828774,0.9195884684901684
1772094462709818400,5.510818359375,5.76346474276483,-0.8942121813017875,0.8383922405328601
1772094462719767300,5.520767333984375,6.046673197102546,-0.8965576484493911,0.7341781250815839
1772094462729717200,5.53071728515625,6.212922912967205,-0.9041125938735902,0.5849539244282991
1772094462739666400,5.54066650390625,6.189867616072297,-0.8897437306508421,0.4885417148996144
1772094462749616400,5.550616455078125,5.7682215819030995,-0.8647643338255584,0.5242956402501091
1772094462759565300,5.5605654296875,4.802790157583356,-0.7820082361403852,0.6397923068139701
1772094462769515300,5.570515380859375,4.033174735352397,-0.5889988524375483,0.7048657405532897
1772094462779465500,5.580465576171875,3.512649809280038,-0.3563543545693159,0.7327188661839813
1772094462789414400,5.590414306640625,2.9766952588856217,-0.011628259277716279,0.5844227401610463
1772094462799364400,5.6003642578125,2.5986516350775957,0.18677575001027433,0.4379085656514391
1772094462809313300,5.610313232421875,2.3568296686172485,0.14719200070593505,0.3871585120253265
1772094462819263500,5.620263427734375,2.160978010693192,-0.028387122909538445,0.42922523725181816
1772094462829212400,5.63021240234375,1.9878414579242467,-0.2472499828584492,0.3498781808251515
1772094462839162400,5.640162353515625,1.90668877684772,-0.4050675320729613,0.12426208375636487
1772094462849111300,5.650111328125,1.5840642579227684,-0.43984220059514045,0.025147428602259606
1772094462859061200,5.660061279296875,0.8763339217185974,-0.3996426574800163,-0.057310033196210856
1772094462869010400,5.670010498046875,-0.15663608434498308,-0.3310130656290799,-0.050889261167403305
1772094462878960400,5.67996044921875,-1.606059232109785,-0.29846783665940163,0.029716069958359
1772094462888910300,5.689910400390625,-3.3499849661648273,-0.386119670496881,0.04974540662821382
1772094462898859300,5.699859375,-5.4766772608965635,-0.610708689540252,0.02086218903111294
1772094462908809500,5.7098095703125,-7.624119498190283,-0.6592937106195836,-0.09306350188897922
1772094462918758400,5.71975830078125,-9.411395713672041,-0.4199082505911588,-0.08841301833516918
1772094462928708400,5.729708251953125,-10.496530791258811,-0.0761095723427832,0.030457636440126223
1772094462938657300,5.7396572265625,-10.719787757980823,0.2744434024713933,0.013295868262951262
1772094462948607500,5.749607421875,-10.201892011368274,0.4642065342620015,-0.22776240664878858
1772094462958556400,5.759556396484375,-9.31523835568726,0.4102193618781864,-0.41001189313996583
1772094462968506400,5.76950634765625,-8.484777127349377,0.09441343692690134,-0.4330080802587792
1772094462978455300,5.779455322265625,-7.793324556729197,-0.21217377410642801,-0.348313598389551
1772094462988405500,5.789405517578125,-7.051948556032777,-0.34353410902805626,-0.25552893170826135
1772094462998355500,5.79935546875,-6.470468518260121,-0.5073178731705993,-0.09015788010796531
1772094463008304400,5.809304443359375,-6.257197523501515,-0.7877288788095116,0.13785130437612533
1772094463018254300,5.81925439453125,-6.117624802160263,-0.9286951003357767,0.23634512421814724
1772094463028203300,5.829203369140625,-5.804613914754986,-0.7963437816154211,0.11340460792174561
1772094463038153500,5.839153564453125,-5.354725536441802,-0.48541985655203457,-0.06376768490299582
1772094463048102400,5.849102294921875,-4.901027244451642,0.0024839257702231406,-0.20887509788721798
1772094463058052400,5.85905224609375,-4.2807291079849,0.42405397209376094,-0.2942538722261786
1772094463068001300,5.869001220703125,-3.1709815671890973,0.6145991941727698,-0.4280339816406369
1772094463077951500,5.878951416015625,-1.7136334716439245,0.6995142965227366,-0.6130498458389192
1772094463087900400,5.888900390625,-0.07692541877031325,0.7721092848733067,-0.704715810688585
1772094463097850400,5.898850341796875,1.5263859759360552,0.7102819203831255,-0.6193539144191891
1772094463107800300,5.90880029296875,2.962286209782958,0.5811532535037025,-0.5008605137247591
1772094463117749500,5.91874951171875,4.2279865288347,0.42595922119319435,-0.2660154736049473
1772094463127699500,5.928699462890625,5.174053911992908,0.18033629154730588,0.05743351344540715
1772094463137648400,5.9386484375,5.739729646912217,-0.14482391986772417,0.4060282668638974
1772094463147598300,5.948598388671875,6.134561323913932,-0.43730325670205056,0.5396129267714918
1772094463157547300,5.95854736328125,6.448683387431502,-0.5465573390819132,0.5405477964688092
1772094463167497200,5.968497314453125,6.785854318103194,-0.4828538785215467,0.5006267780341208
1772094463177446400,5.9784462890625,7.1554463399082415,-0.4403715582314878,0.5270359154015779
1772094463187396400,5.988396240234375,7.506139599975943,-0.45424774256646633,0.5974046060048044
1772094463197345300,5.99834521484375,8.031483324506878,-0.521288384725526,0.6471282026600093
1772094463207295200,6.008295166015625,8.422071957111358,-0.6218142401181161,0.7376851833544671
1772094463217245400,6.018245361328125,8.525375095197559,-0.717605833530426,0.8907232432074844
1772094463227194400,6.0281943359375,8.485210258069634,-0.7693322213754057,1.0034861374258994
1772094463237144300,6.038144287109375,8.311074172869324,-0.6933237713195383,1.1054941211350262
1772094463247093200,6.04809326171875,8.013525058490037,-0.5844602226272225,1.2209746037490665
1772094463257043500,6.05804345703125,7.535123702397942,-0.5304008617900312,1.3484101664423942
1772094463266992400,6.067992431640625,6.816199187484383,-0.5407509543580934,1.440590437489748
1772094463276942300,6.0779423828125,6.0252867102026935,-0.5350537290971726,1.3452196998380124
1772094463286891300,6.087891357421875,5.1614919520616525,-0.37749797262400386,1.210453209734708
1772094463296841500,6.097841552734375,3.967244757848978,-0.016266924529569224,1.0966479668565094
1772094463306791400,6.10779150390625,2.505233931189775,0.4395198367729783,0.8435403440110385
1772094463316740400,6.117740234375,1.2916431540817022,0.8274997481837868,0.5144077583663166
1772094463326690300,6.127690185546875,0.5190501773446798,1.060901384562254,0.15524157951297238
1772094463336639200,6.13763916015625,-0.26093290964365,1.0646211357377469,-0.1614913423564285
1772094463346589400,6.14758935546875,-1.2316998497724532,0.8689424232278019,-0.2226212991669774
1772094463356538400,6.157538330078125,-2.376739653223753,0.6308370661377907,-0.23406850278936325
1772094463366488300,6.16748828125,-3.0743384715139865,0.6099312023617327,-0.25202165423966943
1772094463376437200,6.177437255859375,-3.2757781587034462,0.9624618339244275,-0.1270729216597043
1772094463386387500,6.187387451171875,-3.160757694816589,1.3665082793213426,0.05094931165841408
1772094463396336400,6.19733642578125,-2.741954190596938,1.4124338719330727,0.13525863926811144
1772094463406286300,6.207286376953125,-2.2081232082277533,1.1150107950862496,0.13106898729223757
1772094463416236300,6.217236328125,-1.7750152843236922,0.6750973558858037,0.05992438041307032
1772094463426185500,6.227185546875,-1.6658540678590534,0.2849049925899133,-0.08646637777942233
1772094463436135200,6.23713525390625,-2.0863760664343833,-0.010839373922348022,-0.33251864788644014
1772094463446084400,6.24708447265625,-3.056867696753144,-0.0718733960777521,-0.6649100891966372
1772094463456034300,6.257034423828125,-4.351524061176181,0.08841748444773256,-0.8186673301696776
1772094463465983500,6.2669833984375,-5.5404351550579065,0.32641857744567093,-0.8008081406131387
1772094463475933400,6.276933349609375,-6.4638797875195735,0.5520200614672154,-0.8800400096949189
1772094463485882400,6.28688232421875,-6.725419430884719,0.8420062663115561,-1.216693273168057
1772094463495832300,6.296832275390625,-6.436217873612046,1.2538505990430713,-1.4779085068844258
1772094463505781200,6.30678125,-6.00272767239213,1.463053905971348,-1.362748488396406
1772094463515731500,6.3167314453125,-5.1927743945539,1.460917916855961,-0.8761072002906352
1772094463525680400,6.326680419921875,-4.027376278206706,1.0221569356262683,-0.1788243891470134
1772094463535630300,6.33663037109375,-2.9330753128677607,0.32776206447649747,0.3410656730879098
1772094463545580300,6.346580322265625,-1.9968045165807007,-0.3251660566339269,0.5187523634418845
1772094463555529500,6.356529541015625,-1.3823568597078322,-0.7962291422598063,0.5511901134490966
1772094463565479200,6.366479248046875,-1.4335019405335188,-1.0396380856506526,0.8693591142699122
1772094463575428400,6.376428466796875,-1.5594219840973615,-1.0169375935427845,1.3073890047460794
1772094463585378000,6.3863779296875,-1.3496569516330956,-0.7656621545605361,1.4978858576387166
1772094463595327500,6.396327392578125,-1.0228887570321559,-0.4956624701576307,1.4009814806789158
1772094463605277200,6.406277099609375,-0.4663654658615589,-0.26877817978393287,1.1681640739291905
1772094463615226400,6.416226318359375,0.39858313848972315,-0.18317009020112454,0.8676683847039938
1772094463625176000,6.426176025390625,1.2698065853267908,-0.29521332837548103,0.5426278906784952
1772094463635126300,6.436126220703125,2.0917150893747807,-0.5288084780320524,0.2356883956087753
1772094463645075200,6.4460751953125,2.8595483043640852,-0.7062449930172413,-0.008716573082096874
1772094463655025200,6.456025146484375,3.541635080745816,-0.7661410241186618,-0.13250375106940046
1772094463664974300,6.465974365234375,3.9585231067329643,-0.7745769170958549,-0.14061996537186205
1772094463674924300,6.47592431640625,3.9460786357015367,-0.7194131752133369,-0.11216388714564964
1772094463684873200,6.485873291015625,3.7523441160619257,-0.6019695758327841,-0.1810021715775132
1772094463694823200,6.4958232421875,3.519771039462089,-0.41356450758762653,-0.3390702614869922
1772094463704772400,6.5057724609375,3.2353023559302088,-0.192237595612742,-0.399579127257131
1772094463714722000,6.51572216796875,3.1710411884218455,0.0330810711457394,-0.37010369765423234
1772094463724671500,6.52567138671875,3.3526065468400716,0.23155198992379009,-0.4145233792150393
1772094463734621200,6.53562109375,3.5317063919275995,0.3447184965070337,-0.4778528553638607
1772094463744571100,6.545571044921875,3.6282810985416174,0.2938984829172492,-0.46912521289847786
1772094463754520000,6.55552001953125,3.596764262771606,0.1348139825068414,-0.30382516244146973
1772094463764470300,6.56547021484375,3.510621518322825,0.0024765461813658473,-0.10247655106894671
1772094463774419200,6.575419189453125,3.4035639961391686,-0.0632882308229804,0.06188375258622691
1772094463784369200,6.585369140625,3.200941821166873,-0.12331548708863556,0.12104489354183896
1772094463794318000,6.595318115234375,2.9406419487297533,-0.17228724246323107,0.06319689927771688
1772094463804268300,6.605268310546875,2.6648241891652344,-0.22119477349519728,-0.049994047627039254
1772094463814217200,6.61521728515625,2.257730996483564,-0.30825602102838456,-0.16064300016509367
1772094463824167200,6.625167236328125,1.8344781116396187,-0.38638635860905046,-0.22502017700225113
1772094463834116000,6.6351162109375,1.56813428286314,-0.38836730329319835,-0.2485644264578819
1772094463844066300,6.64506640625,1.4381921441763639,-0.25741971389092505,-0.29310112199448046
1772094463854016300,6.655016357421875,1.2473112604022025,-0.01788432399779558,-0.4207037118177861
1772094463863965200,6.664965087890625,0.5759434464335441,0.2092693579018116,-0.46937359816897656
1772094463873915100,6.6749150390625,-0.3636906888067722,0.32578312908634544,-0.47995607472080737
1772094463883864000,6.684864013671875,-1.1398849049061537,0.40272601044811307,-0.5831135572586208
1772094463893814300,6.694814208984375,-1.7697896586298942,0.520544653686136,-0.7181202127933501
1772094463903763200,6.70476318359375,-2.1636913613051174,0.6767733993392437,-0.8178686540726572
1772094463913713200,6.714713134765625,-2.1153297737181185,0.7161210018001496,-0.8028359931789338
1772094463923662000,6.724662109375,-1.7972639410108326,0.650619478841871,-0.6961650591600685
1772094463933612300,6.7346123046875,-1.3057926754653453,0.557012974383682,-0.614588526648283
1772094463943561200,6.744561279296875,-0.767645583462715,0.4479293531998992,-0.569244862110354
1772094463953511200,6.75451123046875,-0.522421699604392,0.24769853034354744,-0.5350279370687901
1772094463963460000,6.764460205078125,-0.6290735635966063,0.10322188954353331,-0.4911732689796015
1772094463973410300,6.774410400390625,-1.209196926063299,0.01707812218144536,-0.3423990771161392
1772094463983360300,6.7843603515625,-2.0298036998629567,-0.2237562214810401,-0.04865600395631045
1772094463993309200,6.79430908203125,-2.868008089673519,-0.5206455567773431,0.11771551165711135
1772094464003259100,6.804259033203125,-3.5133103190153836,-0.6355882061876357,-0.055806789026409384
1772094464013208300,6.814208251953125,-4.100443852505087,-0.6294860899202526,-0.5007515003923326
1772094464023158300,6.824158203125,-4.678923539417982,-0.6751021051261573,-1.0894136316888035
1772094464033107200,6.834107177734375,-5.099435016599298,-0.6588103110168129,-1.5263944515034555
1772094464043057200,6.84405712890625,-5.2811581959277385,-0.5905558360885829,-1.623764838539809
1772094464053006000,6.854006103515625,-4.973824769636988,-0.622665742380917,-1.4108052478179334
1772094464062956300,6.863956298828125,-4.371315972360969,-0.7028605382107198,-0.9429878295823931
1772094464072905200,6.8739052734375,-4.000075014305114,-0.8639032600168138,-0.341438671118766
1772094464082855200,6.883855224609375,-3.979592198246717,-1.2161209531728177,0.3169520993117243
1772094464092805400,6.893805419921875,-4.345473675096034,-1.4769118970625101,0.62666759843342
1772094464102754300,6.90375439453125,-4.546470294693112,-1.3852283234909175,0.44514940362516786
1772094464112704300,6.913704345703125,-4.538835269770026,-1.0100776446454227,-0.14188446888234466
1772094464122653200,6.923653076171875,-4.601068146321177,-0.653508186020702,-0.8050698897108435
1772094464132603400,6.933603271484375,-4.826734512272477,-0.5048311709214002,-1.2548713203929365
1772094464142552300,6.94355224609375,-5.130265623670816,-0.5288645190682262,-1.3781468407973647
1772094464152502300,6.953502197265625,-5.226556837168336,-0.4919164520297199,-1.1950642827492206
1772094464162451500,6.963451416015625,-4.87749439317286,-0.11369520663246512,-0.8439565966617315
1772094464172401400,6.9734013671875,-4.062867862826586,0.5750479588985443,-0.49919287277348334
1772094464182350300,6.983350341796875,-2.7646079209536314,1.1378972382202743,-0.14064144655130803
1772094464192300300,6.99330029296875,-1.4155354912102223,1.0663584078591317,0.5152640464020892
1772094464202250500,7.00325048828125,-0.37253392047584055,0.666657444320619,1.0838590663015841
1772094464212199400,7.013199462890625,0.5875339309841394,0.25946566836899143,1.3681136686913669
1772094464222149400,7.0231494140625,1.234141397705674,-0.09310155061073601,1.3135375905036926
1772094464232098300,7.033098388671875,1.784846357986331,-0.26647881680037827,0.8540126381866633
1772094464242048500,7.043048583984375,2.297170441946387,-0.2517936359037645,0.20799462525825946
1772094464251997400,7.05299755859375,3.0642858640551567,-0.19884523198315873,-0.27190476910555733
1772094464261947400,7.062947509765625,4.075377800309658,-0.07304587392322719,-0.11065740070599131
1772094464271896300,7.072896240234375,4.289410427090526,-0.13699524466921575,0.5993184768021106
1772094464281846300,7.08284619140625,4.323164228132367,-0.13320816387855447,1.048116429530084
1772094464291795500,7.09279541015625,4.629195339652895,-0.1375685236456804,1.108752830670029
1772094464301745400,7.102745361328125,5.0803772649079555,0.3620644758444279,0.7430993173576891
1772094464311695400,7.1126953125,5.47692568269968,0.90308734247908,0.137203106133081
1772094464321644300,7.122644287109375,5.8471700309336185,0.9602490532457828,-0.07991926682405173
1772094464331594500,7.132594482421875,6.145324125468731,0.6547537291023879,-0.07207268150951712
1772094464341543400,7.14254345703125,6.432302745994925,0.5455772420033812,-0.2080630508519709
