time,seconds_elapsed,z,y,x
1772094457277369300,0.078369384765625,-0.16421161592006683,0.06532195210456848,0.10532362759113312
1772094457287319300,0.0883193359375,-0.16451935470104218,0.16485640406608582,0.05355409160256386
1772094457297269000,0.09826904296875,-0.14966344833374023,0.2585242986679077,-0.009613694623112679
1772094457307218200,0.10821826171875,-0.12384577095508575,0.3049190640449524,-0.07857184112071991
1772094457317168000,0.118168212890625,-0.09258612245321274,0.30365484952926636,-0.1269681304693222
1772094457327117300,0.128117431640625,-0.04593680799007416,0.26091134548187256,-0.13675877451896667
1772094457337067000,0.13806689453125,0.003008099738508463,0.2054547369480133,-0.114972785115242
1772094457347016200,0.14801611328125,0.034261513501405716,0.1225355863571167,-0.06265049427747726
1772094457356966100,0.157966064453125,0.05193451792001724,0.06814958155155182,0.016887476667761803
1772094457366915300,0.167915283203125,0.07398226112127304,0.06031898409128189,0.11054681241512299
1772094457376865000,0.177864990234375,0.10245491564273834,0.08591967821121216,0.20491273701190948
1772094457386814200,0.187814208984375,0.12978647649288177,0.1110723614692688,0.28021639585494995
1772094457396764200,0.19776416015625,0.139725923538208,0.13306474685668945,0.3363747298717499
1772094457406713300,0.20771337890625,0.13114939630031586,0.1434989720582962,0.36772680282592773
1772094457416663300,0.217663330078125,0.11332724988460541,0.1729269027709961,0.38347327709198
1772094457426613000,0.227613037109375,0.10658743232488632,0.21738681197166443,0.39316853880882263
1772094457436562200,0.237562255859375,0.11222214996814728,0.27360987663269043,0.3948809504508972
1772094457446512000,0.24751220703125,0.11654847115278244,0.33501794934272766,0.3799486458301544
1772094457456461300,0.25746142578125,0.140704944729805,0.38840392231941223,0.34286969900131226
1772094457466411000,0.267410888671875,0.17981642484664917,0.4557279348373413,0.2648167312145233
1772094457476360200,0.277360107421875,0.21313123404979706,0.5540039539337158,0.15473951399326324
1772094457486310100,0.28731005859375,0.26063278317451477,0.6377785205841064,0.046008866280317307
1772094457496259300,0.29725927734375,0.3080950975418091,0.686372697353363,-0.036629822105169296
1772094457506209000,0.307208984375,0.3189670741558075,0.7465398907661438,-0.09772901982069016
1772094457516158200,0.317158203125,0.290726900100708,0.8161095976829529,-0.16465425491333008
1772094457526108200,0.327108154296875,0.22963696718215942,0.837480366230011,-0.2709924876689911
1772094457536058000,0.33705810546875,0.16552774608135223,0.7393420934677124,-0.4458513855934143
1772094457546007000,0.347007080078125,0.13558240234851837,0.5018244385719299,-0.6705470085144043
1772094457555957000,0.35695703125,0.11993101239204407,0.01567079685628414,-0.9602006673812866
1772094457565906000,0.366906005859375,0.03198711946606636,-0.8008371591567993,-1.2970771789550781
1772094457575856000,0.376856201171875,-0.15318939089775085,-1.817164421081543,-1.6458240747451782
1772094457585805000,0.38680517578125,-0.29370373487472534,-2.7074568271636963,-1.883297324180603
1772094457595755000,0.396755126953125,-0.2652478516101837,-3.3964223861694336,-1.8775521516799927
1772094457605704200,0.4067041015625,-0.05152233690023422,-3.5983943939208984,-1.467640995979309
1772094457615654100,0.416654052734375,0.26122596859931946,-3.137463331222534,-0.6472209095954895
1772094457625603000,0.42660302734375,0.6050155758857727,-2.091827154159546,0.42465054988861084
1772094457635553000,0.436552978515625,0.8532000780105591,-0.7947041392326355,1.4728705883026123
1772094457645502200,0.446502197265625,0.9390940070152283,0.33495667576789856,2.1088058948516846
1772094457655452200,0.4564521484375,0.9251960515975952,1.0469824075698853,2.0936977863311768
1772094457665402000,0.466402099609375,0.8604594469070435,1.4011613130569458,1.560507893562317
1772094457675351000,0.47635107421875,0.7327041625976562,1.4916526079177856,0.8689432740211487
1772094457685301000,0.486301025390625,0.5039633512496948,1.163530945777893,0.24835030734539032
1772094457695250000,0.49625,0.23139838874340057,0.4304596185684204,-0.17172713577747345
1772094457705200000,0.5062001953125,-0.0680176392197609,-0.39554837346076965,-0.3355605900287628
1772094457715149000,0.516149169921875,-0.3748883605003357,-0.9714428782463074,-0.3071872591972351
1772094457725099000,0.52609912109375,-0.6171067953109741,-1.2077529430389404,-0.19509468972682953
1772094457735048000,0.5360478515625,-0.735553503036499,-1.1658382415771484,-0.12892471253871918
1772094457744998100,0.545998046875,-0.7261295914649963,-0.9165118336677551,-0.15130992233753204
1772094457754947000,0.555947021484375,-0.629690408706665,-0.5046207308769226,-0.23572388291358948
1772094457764897000,0.56589697265625,-0.4466550052165985,-0.04735974594950676,-0.3448769450187683
1772094457774846000,0.575845947265625,-0.21629956364631653,0.3322941064834595,-0.48364946246147156
1772094457784796200,0.585796142578125,-0.044445961713790894,0.588269054889679,-0.6326013803482056
1772094457794745000,0.5957451171875,0.07828715443611145,0.744794487953186,-0.7602179646492004
1772094457804695000,0.605695068359375,0.16591504216194153,0.7747162580490112,-0.8335824012756348
1772094457814645000,0.61564501953125,0.1977936029434204,0.6714532375335693,-0.8001501560211182
1772094457824594200,0.62559423828125,0.1895281970500946,0.5076690316200256,-0.6016390919685364
1772094457834544000,0.635544189453125,0.16736669838428497,0.4262511432170868,-0.26320403814315796
1772094457844493000,0.6454931640625,0.1506030112504959,0.5544080138206482,0.122107595205307
1772094457854443000,0.655443115234375,0.1617739051580429,0.787684977054596,0.4558059275150299
1772094457864392000,0.665391845703125,0.19552940130233765,1.0159738063812256,0.698805034160614
1772094457874342100,0.675342041015625,0.2573823928833008,1.2099616527557373,0.846744179725647
1772094457884291000,0.685291015625,0.3251649737358093,1.3795760869979858,0.8954885601997375
1772094457894241000,0.695240966796875,0.3680402636528015,1.290474772453308,0.8188254833221436
1772094457904190000,0.70518994140625,0.3992646634578705,0.945216953754425,0.6679470539093018
1772094457914140200,0.71514013671875,0.4346436858177185,0.6518691778182983,0.5294539332389832
1772094457924089000,0.725089111328125,0.4090467095375061,0.5872305631637573,0.43838727474212646
1772094457934039000,0.7350390625,0.36269891262054443,0.7122681140899658,0.34886300563812256
1772094457943989000,0.744989013671875,0.3454824984073639,0.7754971385002136,0.24054573476314545
1772094457953938200,0.754938232421875,0.3092145025730133,0.7245082855224609,0.15762127935886383
1772094457963888000,0.76488818359375,0.24274848401546478,0.7034071683883667,0.13717086613178253
1772094457973837000,0.774837158203125,0.1692819893360138,0.7088301777839661,0.1419413834810257
1772094457983787000,0.784787109375,0.11671464890241623,0.6663827300071716,0.13993054628372192
1772094457993736200,0.794736083984375,0.07832704484462738,0.49026012420654297,0.15241597592830658
1772094458003686100,0.80468603515625,0.08588489145040512,0.23563244938850403,0.21501101553440094
1772094458013635000,0.814635009765625,0.1572839617729187,0.03381757438182831,0.31560206413269043
1772094458023585000,0.8245849609375,0.28383103013038635,-0.12441977113485336,0.4337015748023987
1772094458033534000,0.834533935546875,0.4068131446838379,-0.2419772893190384,0.5422890782356262
1772094458043484200,0.844484130859375,0.497097373008728,-0.25745251774787903,0.6484866738319397
1772094458053433000,0.85443310546875,0.5436153411865234,-0.17648817598819733,0.7321581840515137
1772094458063383000,0.864383056640625,0.5494906902313232,-0.08428498357534409,0.759940505027771
1772094458073333200,0.874333251953125,0.5115219950675964,-0.06458025425672531,0.7409971952438354
1772094458083282200,0.8842822265625,0.4495169222354889,-0.16870734095573425,0.7022008299827576
1772094458093232000,0.894232177734375,0.369707316160202,-0.34724515676498413,0.706783652305603
1772094458103181000,0.90418115234375,0.30064746737480164,-0.47365784645080566,0.7849549651145935
1772094458113131000,0.914131103515625,0.2514530420303345,-0.49695226550102234,0.899164080619812
1772094458123080200,0.924080078125,0.17010553181171417,-0.44210025668144226,0.9614812731742859
1772094458133030000,0.93402978515625,0.07295902073383331,-0.39376068115234375,0.8622189164161682
1772094458142978800,0.943978759765625,-0.04160410910844803,-0.4577929973602295,0.5772722959518433
1772094458152928800,0.9539287109375,-0.21728752553462982,-0.7748607397079468,0.11993826180696487
1772094458162877700,0.963877685546875,-0.4996941089630127,-1.33854341506958,-0.4659467041492462
1772094458172828000,0.973827880859375,-0.8425129652023315,-1.9755393266677856,-1.098772644996643
1772094458182776800,0.98377685546875,-1.1310151815414429,-2.435249090194702,-1.618558645248413
1772094458192726800,0.993726806640625,-1.3371683359146118,-2.5131020545959473,-1.9090394973754883
1772094458202676700,1.0036767578125,-1.4011331796646118,-2.120891571044922,-1.9392808675765991
1772094458212625700,1.013625732421875,-1.284928560256958,-1.3768335580825806,-1.768188238143921
1772094458222575900,1.023575927734375,-1.0240274667739868,-0.4636230170726776,-1.4475059509277344
1772094458232524800,1.03352490234375,-0.6921151280403137,0.4338532090187073,-1.0320898294448853
1772094458242474800,1.043474853515625,-0.40327388048171997,0.9901602864265442,-0.666907548904419
1772094458252423700,1.053423583984375,-0.21289169788360596,1.049607753753662,-0.423579603433609
1772094458262374000,1.063373779296875,-0.12146839499473572,0.7625656127929688,-0.28787970542907715
1772094458272322800,1.07332275390625,-0.10045924782752991,0.36438092589378357,-0.21165895462036133
1772094458282272800,1.083272705078125,-0.13532176613807678,0.0015004929155111313,-0.1683037281036377
1772094458292221700,1.0932216796875,-0.1622210294008255,-0.2553587257862091,-0.14519627392292023
1772094458302172000,1.103171875,-0.13641560077667236,-0.36851996183395386,-0.12797343730926514
1772094458312120800,1.113120849609375,-0.07356659322977066,-0.3534014821052551,-0.08781136572360992
1772094458322070800,1.12307080078125,-0.01260601356625557,-0.2767545282840729,-0.018336519598960876
1772094458332020700,1.133020751953125,0.03618362918496132,-0.1858709454536438,0.06034683808684349
1772094458341970000,1.142969970703125,0.08212229609489441,-0.10225164145231247,0.12499445676803589
1772094458351919900,1.152919921875,0.10849664360284805,-0.03997095674276352,0.14664223790168762
1772094458361868800,1.162868896484375,0.10655904561281204,0.006181911565363407,0.10464714467525482
1772094458371818800,1.17281884765625,0.08299726247787476,0.009312191046774387,-0.004650316201150417
1772094458381767700,1.182767578125,0.044808853417634964,-0.01806815154850483,-0.15512892603874207
1772094458391718000,1.1927177734375,0.021535489708185196,-0.05026151239871979,-0.30813470482826233
1772094458401666800,1.202666748046875,0.012732025235891342,-0.07995577156543732,-0.42050379514694214
1772094458411616800,1.21261669921875,-0.003959869500249624,-0.1113499104976654,-0.49458518624305725
1772094458421565700,1.222565673828125,-0.02834811434149742,-0.1448310911655426,-0.5315704941749573
1772094458431516000,1.232515869140625,-0.043042901903390884,-0.12672719359397888,-0.5054323673248291
1772094458441464800,1.24246484375,-0.029866186901926994,-0.036510005593299866,-0.4066145420074463
1772094458451414800,1.252414794921875,-0.005647133570164442,0.05287313461303711,-0.2779409885406494
1772094458461364700,1.26236474609375,-0.0005426988936960697,0.0917619913816452,-0.16521690785884857
1772094458471314000,1.27231396484375,0.005583103746175766,0.04257021099328995,-0.10168960690498352
1772094458481263900,1.282263916015625,0.014617308974266052,-0.10883152484893799,-0.08265205472707748
1772094458491212800,1.292212890625,0.02272343821823597,-0.3586224615573883,-0.08932141214609146
1772094458501162800,1.302162841796875,0.028316117823123932,-0.6279128193855286,-0.09964203089475632
1772094458511112000,1.31211181640625,0.044529445469379425,-0.8254043459892273,-0.1197744682431221
1772094458521062000,1.322061767578125,0.07542409747838974,-0.9143913388252258,-0.18588218092918396
1772094458531010800,1.3320107421875,0.12037160247564316,-0.8401402831077576,-0.28932735323905945
1772094458540960800,1.341960693359375,0.18253406882286072,-0.5811583995819092,-0.36191123723983765
1772094458550909700,1.35190966796875,0.22567594051361084,-0.23767505586147308,-0.3476675748825073
1772094458560860000,1.36185986328125,0.2408076673746109,0.09784764796495438,-0.22596698999404907
1772094458570808800,1.371808837890625,0.23133213818073273,0.41108518838882446,-0.030598029494285583
1772094458580758800,1.3817587890625,0.192556232213974,0.6662955284118652,0.16219748556613922
1772094458590709000,1.391708984375,0.14685985445976257,0.8345950841903687,0.2768157124519348
1772094458600658000,1.401657958984375,0.08890590816736221,0.8664976954460144,0.28319090604782104
1772094458610607900,1.41160791015625,0.028338704258203506,0.7746753692626953,0.21037554740905762
1772094458620556800,1.421556884765625,-0.04224575310945511,0.6164162755012512,0.11477132886648178
1772094458630506800,1.4315068359375,-0.1162978783249855,0.42935797572135925,0.036322060972452164
1772094458640456000,1.4414560546875,-0.17471835017204285,0.2578701376914978,-0.022966504096984863
1772094458650406000,1.451406005859375,-0.21708498895168304,0.10775840282440186,-0.06786287575960159
1772094458660354800,1.461354736328125,-0.25625088810920715,-0.00746845593675971,-0.10996724665164948
1772094458670304800,1.4713046875,-0.28497734665870667,-0.06085205078125,-0.1524105668067932
1772094458680253700,1.481253662109375,-0.3185095191001892,-0.03536783903837204,-0.18301260471343994
1772094458690204000,1.491203857421875,-0.3455275595188141,0.04412352293729782,-0.22536830604076385
1772094458700152800,1.50115283203125,-0.3606816530227661,0.14186851680278778,-0.27310827374458313
1772094458710102800,1.511102783203125,-0.3658178150653839,0.2183142900466919,-0.3053351938724518
1772094458720053000,1.521052978515625,-0.3465528190135956,0.27664875984191895,-0.3139069378376007
1772094458730002000,1.531001953125,-0.3255058825016022,0.3066362142562866,-0.30175837874412537
1772094458739951900,1.540951904296875,-0.29891595244407654,0.29659995436668396,-0.2765491008758545
1772094458749900800,1.55090087890625,-0.27647003531455994,0.2511184811592102,-0.2612479031085968
1772094458759850800,1.560850830078125,-0.25536856055259705,0.17610520124435425,-0.2631150782108307
1772094458769800000,1.570800048828125,-0.23514853417873383,0.0741594061255455,-0.25065043568611145
1772094458779750000,1.58075,-0.20875868201255798,-0.018731698393821716,-0.1930118203163147
1772094458789698800,1.59069873046875,-0.1584414541721344,-0.05544097721576691,-0.09198641777038574
1772094458799648800,1.600648681640625,-0.08177156001329422,-0.04792609065771103,0.02973758988082409
1772094458809598000,1.610597900390625,0.016107071191072464,-0.023213818669319153,0.13493990898132324
1772094458819548000,1.6205478515625,0.13175298273563385,0.011168114840984344,0.20988553762435913
1772094458829496800,1.630496826171875,0.24906255304813385,0.08021722733974457,0.2572205662727356
1772094458839446800,1.64044677734375,0.33508265018463135,0.17807763814926147,0.2846948802471161
1772094458849397000,1.65039697265625,0.3695586025714874,0.23459629714488983,0.3164445459842682
1772094458859346000,1.660345947265625,0.3450755774974823,0.2267291247844696,0.34279659390449524
1772094458869295900,1.6702958984375,0.280097097158432,0.19917550683021545,0.35392460227012634
1772094458879244800,1.680244873046875,0.19255492091178894,0.21160590648651123,0.32971832156181335
1772094458889195000,1.690195068359375,0.10059596598148346,0.2531871795654297,0.27042144536972046
1772094458899144000,1.70014404296875,0.050859443843364716,0.3212803304195404,0.19732150435447693
1772094458909094000,1.710093994140625,0.033953163772821426,0.4657863676548004,0.07700040936470032
1772094458919042800,1.720042724609375,0.0599246472120285,0.6364572644233704,-0.10636211186647415
1772094458928992800,1.72999267578125,0.11767103523015976,0.7652109861373901,-0.33957168459892273
1772094458938942000,1.73994189453125,0.15661577880382538,0.7690860033035278,-0.5709543824195862
1772094458948892000,1.749891845703125,0.15185457468032837,0.5800020694732666,-0.7631339430809021
1772094458958841900,1.759841796875,0.06484421342611313,0.18813228607177734,-0.909381628036499
1772094458968790800,1.769790771484375,0.0023475452326238155,-0.33894428610801697,-0.978867769241333
1772094458978741000,1.779740966796875,0.024761732667684555,-0.8252710103988647,-0.9023656845092773
1772094458988690000,1.78968994140625,0.1158897802233696,-1.0253242254257202,-0.6515489220619202
1772094458998639900,1.799639892578125,0.2753978371620178,-0.9226840734481812,-0.2860444486141205
1772094459008588800,1.8095888671875,0.4795762598514557,-0.5729877948760986,0.10793319344520569
1772094459018539000,1.8195390625,0.7323523759841919,-0.04294515773653984,0.4706582725048065
1772094459028488000,1.829488037109375,0.9256656169891357,0.3606364130973816,0.7106932997703552
1772094459038438000,1.83943798828125,0.9860755801200867,0.5312091708183289,0.7902670502662659
1772094459048386800,1.84938671875,0.9304839968681335,0.3907812535762787,0.6784231066703796
1772094459058337000,1.8593369140625,0.8138865828514099,-0.062364764511585236,0.43473806977272034
1772094459068286000,1.869285888671875,0.6660904884338379,-0.7307787537574768,0.2069198191165924
1772094459078236000,1.87923583984375,0.5011605024337769,-1.4708117246627808,0.058675430715084076
1772094459088185900,1.889185791015625,0.34464043378829956,-2.2226450443267822,-0.025410417467355728
1772094459098134800,1.899134765625,0.22988669574260712,-2.7785348892211914,-0.03686586767435074
1772094459108085000,1.9090849609375,0.16560465097427368,-2.987267017364502,-0.050851985812187195
1772094459118034000,1.919033935546875,0.07165435701608658,-2.7648227214813232,-0.11474908143281937
1772094459127983600,1.928983642578125,-0.14587849378585815,-2.1733362674713135,-0.21080131828784943
1772094459137932500,1.9389326171875,-0.41173049807548523,-1.3326867818832397,-0.31392475962638855
1772094459147882800,1.9488828125,-0.6326966881752014,-0.46298831701278687,-0.42853525280952454
1772094459157831700,1.958831787109375,-0.7643515467643738,0.19616630673408508,-0.5614435076713562
1772094459167781600,1.96878173828125,-0.7926926016807556,0.6141698956489563,-0.6473549604415894
1772094459177730600,1.97873046875,-0.7338520288467407,0.7612195611000061,-0.6068807244300842
1772094459187680800,1.9886806640625,-0.6054900884628296,0.7156683802604675,-0.42799514532089233
1772094459197629700,1.998629638671875,-0.4112730622291565,0.586313784122467,-0.15880003571510315
1772094459207579600,2.00857958984375,-0.1757870316505432,0.45617520809173584,0.17518486082553864
1772094459217529600,2.018529541015625,0.03755846619606018,0.31765931844711304,0.5203509330749512
1772094459227478500,2.028478515625,0.2033146768808365,0.24648207426071167,0.8400538563728333
1772094459237428700,2.0384287109375,0.33258509635925293,0.2849748432636261,1.0855509042739868
1772094459247377700,2.048377685546875,0.42347103357315063,0.39786702394485474,1.2286241054534912
1772094459257327600,2.05832763671875,0.48336532711982727,0.5430261492729187,1.2570570707321167
1772094459267276500,2.068276611328125,0.5184016227722168,0.701029896736145,1.1635161638259888
1772094459277226800,2.078226806640625,0.5415417551994324,0.803840696811676,0.9486318230628967
1772094459287175700,2.08817578125,0.5557073354721069,0.8413617014884949,0.6907936334609985
1772094459297125600,2.098125732421875,0.5101251006126404,0.7481179237365723,0.48537278175354004
1772094459307074600,2.108074462890625,0.39927002787590027,0.6139721274375916,0.4084542989730835
1772094459317024800,2.118024658203125,0.2672426998615265,0.4874328374862671,0.41669318079948425
1772094459326973700,2.1279736328125,0.14559485018253326,0.2941403388977051,0.5178077816963196
1772094459336923600,2.137923583984375,0.04297605901956558,0.11658047884702682,0.686633825302124
1772094459346873600,2.14787353515625,0.0033386382274329662,0.08519379049539566,0.8295491337776184
1772094459356822500,2.157822509765625,0.013183041475713253,0.016771430149674416,0.9078256487846375
1772094459366772700,2.167772705078125,0.08605697751045227,0.022012265399098396,0.874372124671936
1772094459376721700,2.1777216796875,0.22035476565361023,0.07112877815961838,0.7730664610862732
1772094459386671600,2.187671630859375,0.35873129963874817,0.0924612283706665,0.6155381202697754
1772094459396620500,2.19762060546875,0.47476744651794434,0.11485884338617325,0.3862804174423218
1772094459406570800,2.20757080078125,0.6253753304481506,0.1245916336774826,0.08951134979724884
1772094459416519700,2.217519775390625,0.6992184519767761,-0.07389970123767853,-0.2327595055103302
1772094459426469600,2.2274697265625,0.6620098352432251,-0.2701016962528229,-0.5219351053237915
1772094459436418600,2.23741845703125,0.5455021858215332,-0.36422279477119446,-0.7014058232307434
1772094459446368800,2.24736865234375,0.3698113262653351,-0.3850519061088562,-0.7007818818092346
1772094459456318700,2.257318603515625,0.16801711916923523,-0.32581454515457153,-0.5600082874298096
1772094459466267600,2.267267578125,-0.015027541667222977,-0.1598953753709793,-0.44495707750320435
1772094459476217600,2.277217529296875,-0.10243454575538635,0.02748071402311325,-0.5019178986549377
1772094459486166800,2.287166748046875,-0.1345064789056778,0.048568688333034515,-0.6580653786659241
1772094459496116700,2.29711669921875,-0.20261934399604797,-0.1130613461136818,-0.8771873116493225
1772094459506065700,2.307065673828125,-0.3438539505004883,-0.35709452629089355,-1.0818592309951782
1772094459516015600,2.317015625,-0.5385155081748962,-0.505066454410553,-1.1981819868087769
1772094459525964500,2.326964599609375,-0.7468181252479553,-0.4375515878200531,-1.2431541681289673
1772094459535914800,2.336914794921875,-0.9221127033233643,-0.16299556195735931,-1.3012876510620117
1772094459545863700,2.34686376953125,-1.0425262451171875,0.21741755306720734,-1.4640973806381226
1772094459555813600,2.356813720703125,-1.1409121751785278,0.6326736807823181,-1.685810923576355
1772094459565762600,2.366762451171875,-1.2173449993133545,1.035495400428772,-1.9192664623260498
1772094459575712800,2.376712646484375,-1.2600007057189941,1.4266964197158813,-2.0927257537841797
1772094459585662700,2.386662841796875,-1.2636263370513916,1.731566071510315,-2.1753978729248047
1772094459595611600,2.396611572265625,-1.2296644449234009,1.843255877494812,-2.1626827716827393
1772094459605561600,2.4065615234375,-1.1905019283294678,1.7000044584274292,-2.03875732421875
1772094459615510800,2.4165107421875,-1.144652247428894,1.2498939037322998,-1.7414807081222534
1772094459625460700,2.426460693359375,-1.0377559661865234,0.6954200267791748,-1.2246003150939941
1772094459635409700,2.43640966796875,-0.8470569849014282,0.2780817449092865,-0.5792611837387085
1772094459645359600,2.446359619140625,-0.616794228553772,0.08967773616313934,0.08971207588911057
1772094459655308800,2.456308837890625,-0.39335402846336365,0.04163210839033127,0.6460564732551575
1772094459665258800,2.4662587890625,-0.1907963901758194,-0.01130380854010582,0.9882375001907349
1772094459675207700,2.476207763671875,-0.030268704518675804,-0.08851064741611481,1.1039644479751587
1772094459685157600,2.48615771484375,0.08043596893548965,-0.1591893434524536,1.0688410997390747
1772094459695106600,2.4961064453125,0.1389661729335785,-0.21809957921504974,0.9687312841415405
1772094459705056800,2.506056884765625,0.158728688955307,-0.252437561750412,0.8629904985427856
1772094459715006500,2.51600634765625,0.14229783415794373,-0.2819826304912567,0.7670713663101196
1772094459724955600,2.52595556640625,0.09839002788066864,-0.2876999080181122,0.6736043095588684
1772094459734905600,2.535905517578125,0.023677466437220573,-0.17868658900260925,0.5891488194465637
1772094459744854800,2.545854736328125,-0.03930256515741348,0.038112301379442215,0.4883852005004883
1772094459754804700,2.5558046875,-0.061618175357580185,0.24395832419395447,0.3751204013824463
1772094459764753700,2.565753662109375,-0.026698807254433632,0.3631526231765747,0.27534720301628113
1772094459774703600,2.57570361328125,0.03127145394682884,0.3307245969772339,0.23153913021087646
1772094459784652800,2.58565283203125,0.0615963339805603,0.1566534787416458,0.23306353390216827
1772094459794602800,2.595602783203125,0.050560858100652695,-0.1234041303396225,0.23454150557518005
1772094459804551700,2.6055517578125,0.05366929993033409,-0.3445484936237335,0.23159179091453552
1772094459814501600,2.615501708984375,0.12533201277256012,-0.41839542984962463,0.2226099818944931
1772094459824450600,2.625450439453125,0.2476576715707779,-0.36003729701042175,0.21482370793819427
1772094459834400800,2.63540087890625,0.35389333963394165,-0.2433469295501709,0.22513456642627716
1772094459844350500,2.6453505859375,0.4214223027229309,-0.20100826025009155,0.2345469743013382
1772094459854299600,2.655299560546875,0.4285754859447479,-0.2323627918958664,0.23383089900016785
1772094459864249600,2.66524951171875,0.38479578495025635,-0.31250903010368347,0.1951572746038437
1772094459874198800,2.67519873046875,0.2868550419807434,-0.3949181139469147,0.12088511139154434
1772094459884148500,2.6851484375,0.1732906699180603,-0.4479576349258423,0.018472721800208092
1772094459894097700,2.69509765625,0.07440808415412903,-0.5200592875480652,-0.0808587297797203
1772094459904047600,2.705047607421875,-0.011310817673802376,-0.579844057559967,-0.15562698245048523
1772094459913996800,2.714996826171875,-0.09504668414592743,-0.6405593752861023,-0.21496108174324036
1772094459923946500,2.724946533203125,-0.1387544870376587,-0.7086079120635986,-0.2559362053871155
1772094459933895700,2.734895751953125,-0.14100484549999237,-0.7396332621574402,-0.2548622786998749
1772094459943845600,2.744845703125,-0.1545046865940094,-0.6726318597793579,-0.23530136048793793
1772094459953794800,2.754794921875,-0.17959092557430267,-0.5512940287590027,-0.22358715534210205
1772094459963744800,2.764744873046875,-0.20690776407718658,-0.4092346131801605,-0.21853965520858765
1772094459973694500,2.774694580078125,-0.2427847534418106,-0.24313224852085114,-0.21778324246406555
1772094459983643600,2.7846435546875,-0.2729021906852722,-0.061208780854940414,-0.22789554297924042
1772094459993593600,2.794593505859375,-0.285110205411911,0.11821874231100082,-0.25361478328704834
1772094460003542800,2.804542724609375,-0.26546594500541687,0.27320778369903564,-0.2696198523044586
1772094460013492500,2.814492431640625,-0.21870246529579163,0.4391188621520996,-0.2612422704696655
1772094460023441700,2.824441650390625,-0.17786820232868195,0.5886026620864868,-0.22548344731330872
1772094460033391600,2.8343916015625,-0.1495467722415924,0.701727032661438,-0.2017120122909546
1772094460043340800,2.8443408203125,-0.11010216921567917,0.7935664653778076,-0.195438414812088
1772094460053290500,2.85429052734375,-0.05559487268328667,0.8699266910552979,-0.20003631711006165
1772094460063239700,2.86423974609375,0.010745801031589508,0.8929721117019653,-0.194875106215477
1772094460073189400,2.874189453125,0.07843909412622452,0.8486048579216003,-0.16382451355457306
1772094460083138800,2.884138916015625,0.1451060026884079,0.7558605670928955,-0.11400449275970459
1772094460093088500,2.894088623046875,0.1975754201412201,0.6338398456573486,-0.05805748328566551
1772094460103038500,2.90403857421875,0.21731770038604736,0.4894663691520691,-0.006442227866500616
1772094460112987400,2.9139873046875,0.2268655002117157,0.3825925588607788,0.0108058862388134
1772094460122937600,2.9239375,0.24868692457675934,0.3232133686542511,-0.01504275482147932
1772094460132886500,2.933886474609375,0.269260048866272,0.23270921409130096,-0.08881288766860962
1772094460142836500,2.94383642578125,0.2805638313293457,0.11247681081295013,-0.15403424203395844
1772094460152785700,2.95378564453125,0.2693036198616028,0.04519589990377426,-0.16087396442890167
1772094460162735600,2.963735595703125,0.2528953552246094,0.05258111283183098,-0.12887448072433472
1772094460172684500,2.9736845703125,0.24977445602416992,0.04706631600856781,-0.10630050301551819
1772094460182634500,2.983634521484375,0.2539428174495697,0.015050058253109455,-0.1240728422999382
1772094460192583700,2.993583740234375,0.2619054615497589,-0.045022908598184586,-0.19095300137996674
1772094460202533600,3.00353369140625,0.24692489206790924,-0.0393996462225914,-0.29904380440711975
1772094460212482800,3.01348291015625,0.2014985978603363,0.061331070959568024,-0.4723011553287506
1772094460222432500,3.0234326171875,0.16363324224948883,0.16563937067985535,-0.6550110578536987
1772094460232382500,3.033382568359375,0.14612001180648804,0.2012113630771637,-0.733734667301178
1772094460242331600,3.04333154296875,0.13404789566993713,0.14718541502952576,-0.6371841430664062
1772094460252281600,3.053281494140625,0.14469704031944275,0.06118091940879822,-0.4222399592399597
1772094460262230500,3.06323046875,0.2194407880306244,-0.05905894190073013,-0.20920491218566895
1772094460272180500,3.073180419921875,0.4269420802593231,-0.22154495120048523,-0.07120104134082794
1772094460282129700,3.083129638671875,0.7191928029060364,-0.40834012627601624,-0.00797812920063734
1772094460292079600,3.09307958984375,1.012542724609375,-0.5753579139709473,0.05005893111228943
1772094460302028500,3.103028564453125,1.211384654045105,-0.7444809079170227,0.1836729198694229
1772094460311978500,3.112978515625,1.253804326057434,-0.8501927256584167,0.3952423334121704
1772094460321927400,3.122927490234375,1.1473639011383057,-0.8260205388069153,0.5568258762359619
1772094460331877600,3.132877685546875,0.9207111597061157,-0.7178003787994385,0.5293274521827698
1772094460341826600,3.14282666015625,0.6651912331581116,-0.5092601776123047,0.24826890230178833
1772094460351776500,3.152776611328125,0.466528981924057,-0.32283660769462585,-0.2501639127731323
1772094460361726700,3.162726806640625,0.32578569650650024,-0.184165820479393,-0.8150184750556946
1772094460371675600,3.172675537109375,0.19731508195400238,-0.03298216313123703,-1.2769272327423096
1772094460381625600,3.18262548828125,0.03207871690392494,0.07176768779754639,-1.5968668460845947
1772094460391574500,3.192574462890625,-0.20495250821113586,0.11275457590818405,-1.7961585521697998
1772094460401524500,3.2025244140625,-0.47405004501342773,0.13031812012195587,-1.9134877920150757
1772094460411473700,3.2124736328125,-0.7302179932594299,0.1840168982744217,-1.9591991901397705
1772094460421423600,3.222423583984375,-0.9268224239349365,0.3198740780353546,-1.9456146955490112
1772094460431372500,3.23237255859375,-0.9922383427619934,0.4516582787036896,-1.8585959672927856
1772094460441322500,3.242322509765625,-0.9132080078125,0.5289029479026794,-1.6425433158874512
1772094460451271400,3.252271484375,-0.7413596510887146,0.4553656578063965,-1.276343822479248
1772094460461221600,3.2622216796875,-0.4947379231452942,0.2509906589984894,-0.7633801102638245
1772094460471170600,3.272170654296875,-0.22528047859668732,0.07117949426174164,-0.1110672727227211
1772094460481120500,3.28212060546875,0.00928808469325304,-0.016908027231693268,0.5988734364509583
1772094460491069400,3.2920693359375,0.223256453871727,-0.006197087466716766,1.24812912940979
1772094460501019600,3.30201953125,0.4109576642513275,-0.036329690366983414,1.7134616374969482
1772094460510969600,3.311969482421875,0.5708451867103577,-0.14367838203907013,1.9553622007369995
1772094460520918500,3.32191845703125,0.6656824946403503,-0.30385446548461914,2.012450933456421
1772094460530868500,3.331868408203125,0.6587932109832764,-0.4236880838871002,1.9617817401885986
1772094460540817700,3.341817626953125,0.5995416045188904,-0.4422508478164673,1.842437505722046
1772094460550767600,3.351767578125,0.5373798608779907,-0.3654213845729828,1.7168360948562622
1772094460560716500,3.361716552734375,0.4679129123687744,-0.19560518860816956,1.6609989404678345
1772094460570666500,3.37166650390625,0.4112379848957062,-0.014497535303235054,1.667824387550354
1772094460580615700,3.38161572265625,0.36414211988449097,0.1355750560760498,1.6724228858947754
1772094460590565600,3.391565673828125,0.33992597460746765,0.20848098397254944,1.6088964939117432
1772094460600514600,3.4015146484375,0.32162392139434814,0.23937073349952698,1.4663212299346924
1772094460610464500,3.411464599609375,0.2880796790122986,0.24040481448173523,1.263708472251892
1772094460620413400,3.421413330078125,0.2381933480501175,0.2054431140422821,1.0383265018463135
1772094460630363600,3.43136376953125,0.17659159004688263,0.1108628585934639,0.8470978140830994
1772094460640313600,3.441313720703125,0.08666622638702393,-0.06910610944032669,0.7204285860061646
1772094460650262500,3.451262451171875,-0.05641236528754234,-0.25675445795059204,0.6474311351776123
1772094460660212700,3.461212646484375,-0.21398814022541046,-0.315044641494751,0.6109002828598022
1772094460670161700,3.47116162109375,-0.3697528839111328,-0.22638624906539917,0.5833929777145386
1772094460680111600,3.481111572265625,-0.49588656425476074,-0.1260543167591095,0.559898316860199
1772094460690060500,3.491060546875,-0.6079721450805664,-0.07606316357851028,0.5520732998847961
1772094460700010500,3.501010498046875,-0.7138327956199646,-0.09462379664182663,0.5444409251213074
1772094460709959700,3.510959716796875,-0.7927238941192627,-0.11553915590047836,0.51004958152771
1772094460719909600,3.52090966796875,-0.8306939601898193,-0.18743811547756195,0.401111364364624
1772094460729858600,3.530858642578125,-0.8266828060150146,-0.21533408761024475,0.23063242435455322
1772094460739808500,3.54080859375,-0.751858651638031,-0.10925319790840149,0.08006129413843155
1772094460749758700,3.5507587890625,-0.5995723605155945,0.14232097566127777,0.08342435210943222
1772094460759707600,3.560707763671875,-0.49159422516822815,0.38820528984069824,0.27328988909721375
1772094460769657600,3.57065771484375,-0.45368343591690063,0.5232205986976624,0.5529619455337524
1772094460779606500,3.5806064453125,-0.4583871066570282,0.4893510341644287,0.7479154467582703
1772094460789556700,3.590556640625,-0.48698288202285767,0.2647096514701843,0.7489510774612427
1772094460799505700,3.600505615234375,-0.576151430606842,-0.1535523235797882,0.5161804556846619
1772094460809455600,3.61045556640625,-0.7427797913551331,-0.7452917695045471,0.117249496281147
1772094460819404500,3.620404541015625,-0.9593374133110046,-1.3696861267089844,-0.32463228702545166
1772094460829354800,3.630354736328125,-1.1723421812057495,-1.7802493572235107,-0.6727957725524902
1772094460839303700,3.6403037109375,-1.2896376848220825,-1.8721718788146973,-0.8282412886619568
1772094460849253600,3.650253662109375,-1.2588900327682495,-1.6244341135025024,-0.778935968875885
1772094460859202600,3.66020263671875,-1.1059670448303223,-1.1088604927062988,-0.5705963373184204
1772094460869152500,3.670152587890625,-0.8820138573646545,-0.5170211791992188,-0.3206234276294708
1772094460879101700,3.680101806640625,-0.6362184882164001,0.04836951196193695,-0.1082746833562851
1772094460889051600,3.6900517578125,-0.4176115393638611,0.5469480752944946,0.03518735244870186
1772094460899001600,3.700001708984375,-0.26393330097198486,0.8735888004302979,0.11297935247421265
1772094460908950500,3.709950439453125,-0.1873568594455719,0.9849981069564819,0.17308008670806885
1772094460918900700,3.719900634765625,-0.17261679470539093,0.8864068388938904,0.23653548955917358
1772094460928849700,3.729849609375,-0.20714668929576874,0.5976816415786743,0.2931368947029114
1772094460938799600,3.739799560546875,-0.23766332864761353,0.18396085500717163,0.33041366934776306
1772094460948748500,3.74974853515625,-0.22280637919902802,-0.23775668442249298,0.3654614984989166
1772094460958698800,3.75969873046875,-0.1650003343820572,-0.5911552309989929,0.40144479274749756
1772094460968647700,3.769647705078125,-0.08610034734010696,-0.7499179840087891,0.448845237493515
1772094460978597600,3.77959765625,-0.001982274930924177,-0.7250381708145142,0.5031524300575256
1772094460988546600,3.789546630859375,0.07553216814994812,-0.546149730682373,0.5302278995513916
1772094460998496500,3.79949658203125,0.13249024748802185,-0.30505505204200745,0.5130875110626221
1772094461008445700,3.80944580078125,0.1658107340335846,-0.02833126112818718,0.423702210187912
1772094461018395600,3.819395751953125,0.16693325340747833,0.236845001578331,0.24764515459537506
1772094461028344600,3.829344482421875,0.1436706781387329,0.4551337957382202,0.026457175612449646
1772094461038294500,3.83929443359375,0.12346047163009644,0.6032106280326843,-0.1725083887577057
1772094461048244700,3.84924462890625,0.10258445888757706,0.6758918762207031,-0.2946555018424988
1772094461058193700,3.859193603515625,0.09416460990905762,0.642948567867279,-0.3390064537525177
1772094461068143600,3.8691435546875,0.07325641810894012,0.5331002473831177,-0.3294527530670166
1772094461078092500,3.879092529296875,0.04189743474125862,0.41575416922569275,-0.2842026948928833
1772094461088042800,3.889042724609375,0.0378691591322422,0.37861090898513794,-0.22667372226715088
1772094461097991700,3.89899169921875,0.08498954027891159,0.39589136838912964,-0.16612249612808228
1772094461107941600,3.908941650390625,0.1455777883529663,0.42342936992645264,-0.10563156753778458
1772094461117890600,3.918890625,0.18643413484096527,0.34099307656288147,-0.04341959208250046
1772094461127840300,3.92884033203125,0.22086898982524872,0.156357541680336,0.035133011639118195
1772094461137789400,3.93878955078125,0.25523388385772705,-0.0882846936583519,0.0891009047627449
1772094461147739400,3.948739501953125,0.32493528723716736,-0.3398999869823456,0.10434485226869583
1772094461157688300,3.958688232421875,0.3995448350906372,-0.5254198312759399,0.09549570083618164
1772094461167638300,3.96863818359375,0.42621681094169617,-0.5782310366630554,0.061381105333566666
1772094461177588500,3.97858837890625,0.37066566944122314,-0.5690021514892578,0.0007795407436788082
1772094461187537400,3.988537353515625,0.23150408267974854,-0.5196917653083801,-0.040944162756204605
1772094461197487400,3.9984873046875,0.05507844686508179,-0.4120294749736786,-0.05174887552857399
1772094461207436300,4.008436279296875,-0.10444866120815277,-0.2999352812767029,-0.05641477182507515
1772094461217386500,4.018386474609375,-0.21367688477039337,-0.20795448124408722,-0.07471628487110138
1772094461227335400,4.02833544921875,-0.2983258068561554,-0.07935769110918045,-0.09931027889251709
1772094461237285400,4.038285400390625,-0.37104687094688416,0.0765320360660553,-0.16129881143569946
1772094461247234300,4.048234375,-0.4318219721317291,0.16792763769626617,-0.27727043628692627
1772094461257184500,4.0581845703125,-0.47584083676338196,0.15745769441127777,-0.41884273290634155
1772094461267133400,4.068133544921875,-0.49352505803108215,0.04037212207913399,-0.5405489802360535
1772094461277083400,4.07808349609375,-0.5051990151405334,-0.11100461333990097,-0.5916106104850769
1772094461287032300,4.0880322265625,-0.506598949432373,-0.2356591820716858,-0.5524077415466309
1772094461296982300,4.097982177734375,-0.4979705512523651,-0.248474583029747,-0.4629553556442261
1772094461306932500,4.107932373046875,-0.45647498965263367,-0.1320970356464386,-0.35059797763824463
1772094461316881400,4.11788134765625,-0.3857797682285309,0.06037415564060211,-0.2503179609775543
1772094461326831400,4.127831298828125,-0.2825723886489868,0.24788929522037506,-0.17252632975578308
1772094461336780300,4.1377802734375,-0.16883277893066406,0.4014737904071808,-0.11094098538160324
1772094461346730500,4.14773046875,-0.0665779560804367,0.5096639394760132,-0.0619015172123909
1772094461356679400,4.157679443359375,0.01962803676724434,0.5477750897407532,-0.024803683161735535
1772094461366629400,4.16762939453125,0.08933854848146439,0.49731314182281494,0.002238258020952344
1772094461376578300,4.177578369140625,0.13571590185165405,0.3861754238605499,0.019928837195038795
1772094461386528500,4.187528564453125,0.15169017016887665,0.244615375995636,0.032127875834703445
1772094461396477400,4.1974775390625,0.15685723721981049,0.14815382659435272,0.06117231026291847
1772094461406427400,4.207427490234375,0.16695940494537354,0.10650518536567688,0.09260693192481995
1772094461416376300,4.217376220703125,0.19922439754009247,0.12395182251930237,0.10775126516819
1772094461426326500,4.227326416015625,0.2582872807979584,0.15429246425628662,0.09163817763328552
1772094461436276500,4.2372763671875,0.3441113531589508,0.14348801970481873,0.04643848165869713
1772094461446225400,4.247225341796875,0.4233255088329315,0.06776473671197891,0.029031313955783844
1772094461456175400,4.25717529296875,0.47372958064079285,0.03325975686311722,0.094744011759758
1772094461466124300,4.267124267578125,0.4957056939601898,0.10471811145544052,0.2455529421567917
1772094461476074500,4.277074462890625,0.5093495845794678,0.276351660490036,0.4102494716644287
1772094461486023400,4.2870234375,0.5370987057685852,0.48111987113952637,0.4897192418575287
1772094461495973400,4.296973388671875,0.5706142783164978,0.6087995171546936,0.4107288122177124
1772094461505922300,4.30692236328125,0.5782679319381714,0.607628345489502,0.20682409405708313
1772094461515872500,4.31687255859375,0.5296367406845093,0.47345292568206787,-0.06573978811502457
1772094461525821400,4.326821533203125,0.429872065782547,0.1848147064447403,-0.3523540496826172
1772094461535771400,4.336771484375,0.3096385896205902,-0.19034479558467865,-0.5531761050224304
1772094461545720300,4.34672021484375,0.21260590851306915,-0.580748438835144,-0.5998836755752563
1772094461555670500,4.35667041015625,0.1133970320224762,-0.8507077693939209,-0.5084485411643982
1772094461565620500,4.366620361328125,0.04527865722775459,-0.9683392643928528,-0.3166172504425049
1772094461575569400,4.3765693359375,0.06669952720403671,-0.9390061497688293,-0.0229044072329998
1772094461585519400,4.386519287109375,0.17883096635341644,-0.8543940782546997,0.3364338278770447
1772094461595468300,4.39646826171875,0.32390132546424866,-0.7585484981536865,0.7071503400802612
1772094461605418500,4.40641845703125,0.4682622253894806,-0.6762449145317078,1.0326446294784546
1772094461615367400,4.416367431640625,0.5903937220573425,-0.6434316039085388,1.3185006380081177
1772094461625317400,4.4263173828125,0.6449379324913025,-0.6484322547912598,1.5135911703109741
1772094461635266300,4.436266357421875,0.6589863896369934,-0.7402961254119873,1.5375313758850098
1772094461645216500,4.446216552734375,0.6477999091148376,-0.8783859610557556,1.3865439891815186
1772094461655165400,4.45616552734375,0.6087648868560791,-1.0084158182144165,1.1185508966445923
1772094461665115400,4.466115478515625,0.5638166069984436,-1.0372867584228516,0.8015819787979126
1772094461675064300,4.476064208984375,0.4766393303871155,-0.9550350904464722,0.47266775369644165
1772094461685014500,4.4860146484375,0.3325817883014679,-0.8855246901512146,0.1703122854232788
1772094461694963500,4.49596337890625,0.1420176923274994,-0.8351326584815979,-0.09917297959327698
1772094461704913400,4.505913330078125,-0.07092959433794022,-0.7665526270866394,-0.33460113406181335
1772094461714863400,4.51586328125,-0.30945003032684326,-0.6198518872261047,-0.5157120823860168
1772094461724812500,4.5258125,-0.5403072834014893,-0.34756603837013245,-0.6398448348045349
1772094461734762500,4.535762451171875,-0.6907745599746704,0.01950649730861187,-0.701185405254364
1772094461744711400,4.54571142578125,-0.7194324135780334,0.3827289640903473,-0.6402562260627747
1772094461754661400,4.555661376953125,-0.6431557536125183,0.6833529472351074,-0.42777273058891296
1772094461764610300,4.5656103515625,-0.5059745907783508,0.9015306234359741,-0.10273576527833939
1772094461774560500,4.575560546875,-0.30143770575523376,1.0053246021270752,0.25939473509788513
1772094461784509400,4.585509521484375,-0.07489892840385437,1.0287185907363892,0.5811606645584106
1772094461794459400,4.59545947265625,0.07756757736206055,1.0515179634094238,0.7780857086181641
1772094461804408300,4.605408203125,0.13944990932941437,1.0776395797729492,0.7811487913131714
1772094461814358500,4.615358642578125,0.12283390015363693,1.1437839269638062,0.6313343048095703
1772094461824308500,4.62530859375,0.0562465526163578,1.1692180633544922,0.4311171770095825
1772094461834257400,4.63525732421875,-0.059158600866794586,1.1383624076843262,0.21751223504543304
1772094461844207400,4.645207275390625,-0.15560831129550934,1.0703281164169312,0.07901778817176819
1772094461854156500,4.655156494140625,-0.1986556500196457,0.8988056778907776,0.04089464247226715
1772094461864106500,4.6651064453125,-0.23096710443496704,0.6906601190567017,0.08140714466571808
1772094461874055400,4.675055419921875,-0.24509942531585693,0.4647423326969147,0.12434102594852448
1772094461884005400,4.68500537109375,-0.21727800369262695,0.2944455146789551,0.09532362222671509
1772094461893954600,4.69495458984375,-0.16020700335502625,0.2550451159477234,0.013972042128443718
1772094461903904500,4.704904541015625,-0.05550452321767807,0.21221201121807098,-0.020791757851839066
1772094461913853400,4.714853515625,0.08657165616750717,0.25403961539268494,-0.0517459437251091
1772094461923803400,4.724803466796875,0.2452501505613327,0.33327582478523254,-0.044846922159194946
1772094461933752300,4.73475244140625,0.39938804507255554,0.3860524892807007,-0.0019644368439912796
1772094461943702500,4.74470263671875,0.5145594477653503,0.49355441331863403,0.07465916126966476
1772094461953651500,4.7546513671875,0.5657978653907776,0.6073488593101501,0.15386530756950378
1772094461963601400,4.764601318359375,0.5846619009971619,0.7194823622703552,0.19024558365345
1772094461973551600,4.774551513671875,0.5846315622329712,0.7897264361381531,0.14718839526176453
1772094461983500500,4.78450048828125,0.5800487399101257,0.8021039962768555,0.04079922288656235
1772094461993450500,4.794450439453125,0.572333574295044,0.7613642811775208,-0.08433419466018677
1772094462003399400,4.8043994140625,0.5544390082359314,0.6565658450126648,-0.21111872792243958
1772094462013349400,4.814349365234375,0.5642828941345215,0.5112837553024292,-0.25959572196006775
1772094462023298600,4.824298583984375,0.6263301372528076,0.40463027358055115,-0.1494332253932953
1772094462033248500,4.83424853515625,0.7001335024833679,0.3973816931247711,0.11230809986591339
1772094462043197400,4.844197509765625,0.7494606375694275,0.48084336519241333,0.44778352975845337
1772094462053147400,4.8541474609375,0.774750828742981,0.6333825588226318,0.7135151028633118
1772094462063096300,4.864096435546875,0.7598963975906372,0.685032844543457,0.7824983596801758
1772094462073046500,4.874046630859375,0.6654226183891296,0.43311217427253723,0.5801684260368347
1772094462082996500,4.88399658203125,0.4388379454612732,-0.27608630061149597,0.12637701630592346
1772094462092945400,4.8939453125,0.10703473538160324,-1.2016421556472778,-0.47418203949928284
1772094462102895600,4.9038955078125,-0.2745753228664398,-1.9513869285583496,-1.0047929286956787
1772094462112844500,4.913844482421875,-0.6579332947731018,-2.347778558731079,-1.3477827310562134
1772094462122794500,4.92379443359375,-0.938635528087616,-2.3573532104492188,-1.4481316804885864
1772094462132744200,4.933744140625,-0.99235600233078,-1.9980900287628174,-1.3396755456924438
1772094462142694400,4.9436943359375,-0.845658004283905,-1.4020048379898071,-1.1118948459625244
1772094462152643300,4.953643310546875,-0.639082670211792,-0.8039125204086304,-0.8584599494934082
1772094462162593300,4.96359326171875,-0.4098089337348938,-0.24914348125457764,-0.6747158169746399
1772094462172542200,4.973542236328125,-0.098957858979702,0.1757500171661377,-0.6208837628364563
1772094462182492200,4.9834921875,0.22986865043640137,0.34740376472473145,-0.715116024017334
1772094462192441300,4.99344140625,0.4321399927139282,0.2684362530708313,-0.8658000826835632
1772094462202391300,5.003391357421875,0.4440809488296509,0.09531930088996887,-0.9525653719902039
1772094462212341200,5.01334130859375,0.3168945014476776,-0.07614859193563461,-0.9586426615715027
1772094462222290200,5.023290283203125,0.11741317063570023,-0.1667865365743637,-0.897042453289032
1772094462232240400,5.033240478515625,-0.06165404990315437,-0.1261672079563141,-0.781906008720398
1772094462242189300,5.043189208984375,-0.16806189715862274,-0.006133568938821554,-0.6182081699371338
1772094462252139300,5.05313916015625,-0.18643026053905487,0.13026182353496552,-0.40297365188598633
1772094462262088200,5.063088134765625,-0.12383981794118881,0.2214544266462326,-0.16536079347133636
1772094462272038400,5.073038330078125,-0.010810998268425465,0.2185012549161911,0.04848092421889305
1772094462281987300,5.0829873046875,0.12121612578630447,0.1874333620071411,0.2275989055633545
1772094462291937300,5.092937255859375,0.23766735196113586,0.18761685490608215,0.3688652217388153
1772094462301886200,5.10288623046875,0.33178436756134033,0.1978273242712021,0.45816943049430847
1772094462311836200,5.112836181640625,0.39252999424934387,0.18104489147663116,0.5181597471237183
1772094462321786400,5.122786376953125,0.419448584318161,0.17156124114990234,0.566652774810791
1772094462331735300,5.1327353515625,0.4127483367919922,0.1752832680940628,0.6248888969421387
1772094462341685200,5.142685302734375,0.389819473028183,0.21526260673999786,0.6753870248794556
1772094462351634200,5.15263427734375,0.3926919400691986,0.2784397304058075,0.713094174861908
1772094462361584400,5.16258447265625,0.4361082911491394,0.3589872717857361,0.7131056785583496
1772094462371533300,5.172533203125,0.47992581129074097,0.4350951015949249,0.6538399457931519
1772094462381483300,5.182483154296875,0.4932839572429657,0.4435732662677765,0.5508819222450256
1772094462391432200,5.19243212890625,0.4908519387245178,0.45669785141944885,0.4284451901912689
1772094462401382400,5.20238232421875,0.48322829604148865,0.37135374546051025,0.29181626439094543
1772094462411331300,5.212331298828125,0.4223646819591522,0.14858190715312958,0.1861095279455185
1772094462421281300,5.22228125,0.3145948350429535,-0.19942359626293182,0.15860429406166077
1772094462431230200,5.232230224609375,0.19963815808296204,-0.531024158000946,0.19020484387874603
1772094462441180400,5.242180419921875,0.14031170308589935,-0.7533619999885559,0.22576692700386047
1772094462451130400,5.25213037109375,0.12706726789474487,-0.8759710192680359,0.22908176481723785
1772094462461079300,5.262079345703125,0.13023890554904938,-0.892896294593811,0.21109265089035034
1772094462471029200,5.272029296875,0.14546872675418854,-0.7612211108207703,0.20220594108104706
1772094462480978200,5.281978271484375,0.15969932079315186,-0.49357154965400696,0.199762225151062
1772094462490928400,5.291928466796875,0.1322951316833496,-0.20527130365371704,0.16922295093536377
1772094462500877300,5.301877197265625,0.02991538681089878,-0.0022239377722144127,0.05833687633275986
1772094462510827300,5.3118271484375,-0.11830097436904907,0.06972721964120865,-0.11264178901910782
1772094462520776200,5.321776123046875,-0.2727539539337158,0.03961101174354553,-0.2690862715244293
1772094462530726400,5.331726318359375,-0.406189501285553,-0.08284007012844086,-0.3716411590576172
1772094462540675300,5.34167529296875,-0.4995458126068115,-0.26681283116340637,-0.4334864020347595
1772094462550625300,5.351625244140625,-0.5485924482345581,-0.4428325891494751,-0.478914350271225
1772094462560575200,5.3615751953125,-0.5731447339057922,-0.5351697206497192,-0.517629086971283
1772094462570524400,5.3715244140625,-0.5904326438903809,-0.4952036142349243,-0.5678823590278625
1772094462580474400,5.381474365234375,-0.6024230718612671,-0.5818846821784973,-0.6182559132575989
1772094462590423300,5.39142333984375,-0.6230530738830566,-0.539849579334259,-0.6150878071784973
1772094462600373200,5.401373291015625,-0.6565313935279846,-0.3868371844291687,-0.5661571621894836
1772094462610322400,5.411322509765625,-0.6912406086921692,-0.21774429082870483,-0.5126904249191284
1772094462620272400,5.4212724609375,-0.6857314109802246,-0.034408893436193466,-0.4547385573387146
1772094462630221300,5.43122119140625,-0.6452692151069641,0.14125987887382507,-0.398669958114624
1772094462640171300,5.441171142578125,-0.588604748249054,0.3040064573287964,-0.37001168727874756
1772094462650120200,5.4511201171875,-0.530317485332489,0.4539586901664734,-0.36301422119140625
1772094462660070400,5.4610703125,-0.44923338294029236,0.6037630438804626,-0.37111398577690125
1772094462670020400,5.471020263671875,-0.3694000542163849,0.7139105796813965,-0.3846881091594696
1772094462679969300,5.48096923828125,-0.2993466556072235,0.761350691318512,-0.3850316107273102
1772094462689919500,5.49091943359375,-0.25570809841156006,0.7500391602516174,-0.3828430473804474
1772094462699868400,5.500868408203125,-0.22438567876815796,0.6915876269340515,-0.39292284846305847
1772094462709818400,5.510818359375,-0.2030649483203888,0.601662814617157,-0.42140746116638184
1772094462719767300,5.520767333984375,-0.1964225023984909,0.47370806336402893,-0.4616469144821167
1772094462729717200,5.53071728515625,-0.19529518485069275,0.3330247104167938,-0.5012417435646057
1772094462739666400,5.54066650390625,-0.20283375680446625,0.19272789359092712,-0.5192867517471313
1772094462749616400,5.550616455078125,-0.20092374086380005,0.015606382861733437,-0.4449421763420105
1772094462759565300,5.5605654296875,-0.1647270917892456,-0.12060502171516418,-0.250385582447052
1772094462769515300,5.570515380859375,-0.08148838579654694,-0.15529562532901764,0.02477462962269783
1772094462779465500,5.580465576171875,0.026505770161747932,-0.12779401242733002,0.32003098726272583
1772094462789414400,5.590414306640625,0.13220131397247314,-0.08641355484724045,0.5713953375816345
1772094462799364400,5.6003642578125,0.22022892534732819,-0.022361747920513153,0.7322675585746765
1772094462809313300,5.610313232421875,0.2841525077819824,0.08629655092954636,0.809861958026886
1772094462819263500,5.620263427734375,0.32974937558174133,0.22205854952335358,0.8187755346298218
1772094462829212400,5.63021240234375,0.34527772665023804,0.3721873164176941,0.7661280632019043
1772094462839162400,5.640162353515625,0.33285969495773315,0.4703437089920044,0.6783486604690552
1772094462849111300,5.650111328125,0.322231262922287,0.4621446430683136,0.5551646947860718
1772094462859061200,5.660061279296875,0.3106738328933716,0.35811862349510193,0.39518749713897705
1772094462869010400,5.670010498046875,0.30437201261520386,0.22725597023963928,0.19483257830142975
1772094462878960400,5.67996044921875,0.30766430497169495,0.07763347029685974,-0.019110698252916336
1772094462888910300,5.689910400390625,0.30972427129745483,-0.12652285397052765,-0.1583530157804489
1772094462898859300,5.699859375,0.2805263102054596,-0.3122861981391907,-0.12473585456609726
1772094462908809500,5.7098095703125,0.23381125926971436,-0.4275265038013458,0.09654592722654343
1772094462918758400,5.71975830078125,0.20171692967414856,-0.4683516323566437,0.39596158266067505
1772094462928708400,5.729708251953125,0.188680499792099,-0.39839839935302734,0.6270939111709595
1772094462938657300,5.7396572265625,0.21677473187446594,-0.19442199170589447,0.6982028484344482
1772094462948607500,5.749607421875,0.27099722623825073,0.07498417794704437,0.5984581112861633
1772094462958556400,5.759556396484375,0.3175995349884033,0.26125386357307434,0.3767516016960144
1772094462968506400,5.76950634765625,0.3398798108100891,0.28255754709243774,0.15450416505336761
1772094462978455300,5.779455322265625,0.3419274389743805,0.10966213792562485,-0.011095017194747925
1772094462988405500,5.789405517578125,0.31317198276519775,-0.23511256277561188,-0.1583976447582245
1772094462998355500,5.79935546875,0.24087582528591156,-0.6726840734481812,-0.2866368591785431
1772094463008304400,5.809304443359375,0.12709760665893555,-1.051303505897522,-0.4146057665348053
1772094463018254300,5.81925439453125,0.026890195906162262,-1.27922785282135,-0.5714476108551025
1772094463028203300,5.829203369140625,-0.0417352057993412,-1.3169949054718018,-0.773309588432312
1772094463038153500,5.839153564453125,-0.06921685487031937,-1.199798822402954,-0.9631511569023132
1772094463048102400,5.849102294921875,-0.04658877104520798,-1.0026687383651733,-1.0411555767059326
1772094463058052400,5.85905224609375,-0.007016880437731743,-0.7803484201431274,-0.9746426939964294
1772094463068001300,5.869001220703125,0.028878003358840942,-0.6157602667808533,-0.8096489310264587
1772094463077951500,5.878951416015625,0.020165756344795227,-0.4868277311325073,-0.6151373982429504
1772094463087900400,5.888900390625,-0.006520981900393963,-0.41686782240867615,-0.44254669547080994
1772094463097850400,5.898850341796875,-0.03210647776722908,-0.37375056743621826,-0.321360319852829
1772094463107800300,5.90880029296875,-0.059884048998355865,-0.2979266345500946,-0.2691144347190857
1772094463117749500,5.91874951171875,-0.09390437602996826,-0.18973276019096375,-0.2611413598060608
1772094463127699500,5.928699462890625,-0.12357811629772186,-0.05969860404729843,-0.25682759284973145
1772094463137648400,5.9386484375,-0.1503107100725174,0.06581170111894608,-0.2354665845632553
1772094463147598300,5.948598388671875,-0.17993465065956116,0.1595539003610611,-0.19279102981090546
1772094463157547300,5.95854736328125,-0.22628562152385712,0.237270787358284,-0.13320916891098022
1772094463167497200,5.968497314453125,-0.2697353661060333,0.32246318459510803,-0.07146085053682327
1772094463177446400,5.9784462890625,-0.28994184732437134,0.40509387850761414,-0.010405889712274075
1772094463187396400,5.988396240234375,-0.29566869139671326,0.5110935568809509,0.04273535683751106
1772094463197345300,5.99834521484375,-0.3056327700614929,0.628908097743988,0.07261119037866592
1772094463207295200,6.008295166015625,-0.3310614228248596,0.6928130388259888,0.062223270535469055
1772094463217245400,6.018245361328125,-0.3360857367515564,0.6978631615638733,-0.005881087388843298
1772094463227194400,6.0281943359375,-0.3315027058124542,0.6243990659713745,-0.11142110079526901
1772094463237144300,6.038144287109375,-0.32065027952194214,0.5159770250320435,-0.2545596659183502
1772094463247093200,6.04809326171875,-0.30933502316474915,0.40468114614486694,-0.4010063409805298
1772094463257043500,6.05804345703125,-0.26746007800102234,0.3162677586078644,-0.5256909132003784
1772094463266992400,6.067992431640625,-0.1942836195230484,0.301950067281723,-0.615018367767334
1772094463276942300,6.0779423828125,-0.07714428007602692,0.3342605233192444,-0.6550099849700928
1772094463286891300,6.087891357421875,0.06403441727161407,0.32979413866996765,-0.6022782921791077
1772094463296841500,6.097841552734375,0.20243436098098755,0.2787938117980957,-0.44761988520622253
1772094463306791400,6.10779150390625,0.3094431161880493,0.1644621640443802,-0.22791200876235962
1772094463316740400,6.117740234375,0.38450124859809875,0.07319284975528717,-0.01318779680877924
1772094463326690300,6.127690185546875,0.41836628317832947,-0.001555157359689474,0.15726836025714874
1772094463336639200,6.13763916015625,0.4159846901893616,-0.09037768095731735,0.2738412022590637
1772094463346589400,6.14758935546875,0.4183967113494873,-0.1429724544286728,0.3905201554298401
1772094463356538400,6.157538330078125,0.4550674259662628,-0.04525095224380493,0.5433239340782166
1772094463366488300,6.16748828125,0.5204253792762756,0.1784851998090744,0.7173077464103699
1772094463376437200,6.177437255859375,0.6101166009902954,0.39384087920188904,0.8383400440216064
1772094463386387500,6.187387451171875,0.7497860789299011,0.4946250021457672,0.8752983212471008
1772094463396336400,6.19733642578125,0.878503680229187,0.4385051131248474,0.8321766257286072
1772094463406286300,6.207286376953125,0.9124605655670166,0.24184373021125793,0.7052341103553772
1772094463416236300,6.217236328125,0.8736441135406494,-0.08693923056125641,0.5023945569992065
1772094463426185500,6.227185546875,0.7943546175956726,-0.5762825608253479,0.2760525047779083
1772094463436135200,6.23713525390625,0.6666975617408752,-1.2143151760101318,0.07638495415449142
1772094463446084400,6.24708447265625,0.42571666836738586,-1.9313318729400635,-0.11972250789403915
1772094463456034300,6.257034423828125,0.11547088623046875,-2.5109355449676514,-0.3344287574291229
1772094463465983500,6.2669833984375,-0.1488739550113678,-2.7084219455718994,-0.5793042778968811
1772094463475933400,6.276933349609375,-0.2672206163406372,-2.2875211238861084,-0.817832350730896
1772094463485882400,6.28688232421875,-0.2719442546367645,-1.323596477508545,-1.0011224746704102
1772094463495832300,6.296832275390625,-0.20266419649124146,-0.18585142493247986,-1.0864214897155762
1772094463505781200,6.30678125,-0.12249771505594254,0.797558605670929,-1.0774296522140503
1772094463515731500,6.3167314453125,-0.08915005624294281,1.4015355110168457,-1.024570107460022
1772094463525680400,6.326680419921875,-0.08304103463888168,1.593703269958496,-0.9707841277122498
1772094463535630300,6.33663037109375,-0.09977129846811295,1.4409780502319336,-0.9432629346847534
1772094463545580300,6.346580322265625,-0.15919679403305054,1.084471583366394,-0.9273590445518494
1772094463555529500,6.356529541015625,-0.2624495029449463,0.6202631592750549,-0.8476974964141846
1772094463565479200,6.366479248046875,-0.32243478298187256,0.21783503890037537,-0.6419757604598999
1772094463575428400,6.376428466796875,-0.29520243406295776,0.034271132200956345,-0.35199618339538574
1772094463585378000,6.3863779296875,-0.19946125149726868,0.06338507682085037,-0.0433691069483757
1772094463595327500,6.396327392578125,-0.04049920663237572,0.21374332904815674,0.23871691524982452
1772094463605277200,6.406277099609375,0.13659274578094482,0.44567668437957764,0.45359379053115845
1772094463615226400,6.416226318359375,0.28778553009033203,0.6497673392295837,0.5740222930908203
1772094463625176000,6.426176025390625,0.370572566986084,0.752416729927063,0.6162909269332886
1772094463635126300,6.436126220703125,0.3906329274177551,0.7104568481445312,0.6045203804969788
1772094463645075200,6.4460751953125,0.3894648849964142,0.560886561870575,0.5722793340682983
1772094463655025200,6.456025146484375,0.3918462097644806,0.37958118319511414,0.5533589124679565
1772094463664974300,6.465974365234375,0.38919129967689514,0.1795005351305008,0.5620733499526978
1772094463674924300,6.47592431640625,0.38201576471328735,-0.008911004289984703,0.583408534526825
1772094463684873200,6.485873291015625,0.37821197509765625,-0.16464707255363464,0.6261738538742065
1772094463694823200,6.4958232421875,0.3685937225818634,-0.26414117217063904,0.7039951682090759
1772094463704772400,6.5057724609375,0.3696137070655823,-0.2870672345161438,0.7932975888252258
1772094463714722000,6.51572216796875,0.3968932330608368,-0.19150516390800476,0.873425304889679
1772094463724671500,6.52567138671875,0.43126586079597473,-0.034112874418497086,0.9174668192863464
1772094463734621200,6.53562109375,0.45631909370422363,0.11432433128356934,0.9183012843132019
1772094463744571100,6.545571044921875,0.46896299719810486,0.20432505011558533,0.8834607601165771
1772094463754520000,6.55552001953125,0.46573469042778015,0.23049487173557281,0.786862850189209
1772094463764470300,6.56547021484375,0.468244731426239,0.1867481917142868,0.6404779553413391
1772094463774419200,6.575419189453125,0.4787205755710602,0.11091570556163788,0.4812850058078766
1772094463784369200,6.585369140625,0.49115273356437683,0.028032008558511734,0.35070568323135376
1772094463794318000,6.595318115234375,0.48300623893737793,-0.043984901160001755,0.2736896574497223
1772094463804268300,6.605268310546875,0.440073162317276,-0.10600779205560684,0.23058797419071198
1772094463814217200,6.61521728515625,0.3835363984107971,-0.18170149624347687,0.21886807680130005
1772094463824167200,6.625167236328125,0.3285423815250397,-0.2749491333961487,0.2199096381664276
1772094463834116000,6.6351162109375,0.2531541585922241,-0.37155455350875854,0.20593462884426117
1772094463844066300,6.64506640625,0.18361477553844452,-0.48096227645874023,0.13608071208000183
1772094463854016300,6.655016357421875,0.13708171248435974,-0.612462043762207,0.01421857625246048
1772094463863965200,6.664965087890625,0.1281910240650177,-0.7315005660057068,-0.09028919041156769
1772094463873915100,6.6749150390625,0.13028667867183685,-0.7709603309631348,-0.14377516508102417
1772094463883864000,6.684864013671875,0.12852126359939575,-0.6808480024337769,-0.12778662145137787
1772094463893814300,6.694814208984375,0.13424214720726013,-0.48710525035858154,-0.04624385014176369
1772094463903763200,6.70476318359375,0.14217251539230347,-0.2192295789718628,0.10053360462188721
1772094463913713200,6.714713134765625,0.13366521894931793,0.10197755694389343,0.27479782700538635
1772094463923662000,6.724662109375,0.12713302671909332,0.38458317518234253,0.4005962312221527
1772094463933612300,6.7346123046875,0.1444869339466095,0.5926056504249573,0.46241357922554016
1772094463943561200,6.744561279296875,0.15828397870063782,0.7135165929794312,0.5115997791290283
1772094463953511200,6.75451123046875,0.15456882119178772,0.6507419943809509,0.5407407879829407
1772094463963460000,6.764460205078125,0.10923542082309723,0.32250043749809265,0.5162304043769836
1772094463973410300,6.774410400390625,0.046754203736782074,-0.18420350551605225,0.43591439723968506
1772094463983360300,6.7843603515625,0.02760155126452446,-0.6417452692985535,0.3291003406047821
1772094463993309200,6.79430908203125,0.06529901176691055,-0.8217661380767822,0.21770785748958588
1772094464003259100,6.804259033203125,0.09776800870895386,-0.6960535049438477,0.10975822806358337
1772094464013208300,6.814208251953125,0.09925782680511475,-0.34436553716659546,0.050416406244039536
1772094464023158300,6.824158203125,0.0476316474378109,0.110928475856781,0.06529761850833893
1772094464033107200,6.834107177734375,-0.030040329322218895,0.49558115005493164,0.12362897396087646
1772094464043057200,6.84405712890625,-0.09834987670183182,0.7453947067260742,0.14980997145175934
1772094464053006000,6.854006103515625,-0.15239742398262024,0.8122761845588684,0.052536651492118835
1772094464062956300,6.863956298828125,-0.16960836946964264,0.6912232637405396,-0.1093348041176796
1772094464072905200,6.8739052734375,-0.15354891121387482,0.3965386748313904,-0.2567523717880249
1772094464082855200,6.883855224609375,-0.1558525562286377,-0.01682465337216854,-0.3430180251598358
1772094464092805400,6.893805419921875,-0.18275780975818634,-0.37263548374176025,-0.36938461661338806
1772094464102754300,6.90375439453125,-0.2201952040195465,-0.5152381062507629,-0.3760044574737549
1772094464112704300,6.913704345703125,-0.24550218880176544,-0.5506353974342346,-0.44443973898887634
1772094464122653200,6.923653076171875,-0.30653464794158936,-0.579459011554718,-0.6210448741912842
1772094464132603400,6.933603271484375,-0.4427464008331299,-0.5792799592018127,-0.8641189336776733
1772094464142552300,6.94355224609375,-0.5773921012878418,-0.4591445028781891,-1.0979021787643433
1772094464152502300,6.953502197265625,-0.6369971632957458,-0.16568967700004578,-1.2168596982955933
1772094464162451500,6.963451416015625,-0.5959791541099548,0.24203522503376007,-1.2096997499465942
1772094464172401400,6.9734013671875,-0.4943270683288574,0.6730534434318542,-1.1224734783172607
1772094464182350300,6.983350341796875,-0.34640154242515564,1.016984224319458,-1.0091221332550049
1772094464192300300,6.99330029296875,-0.18091890215873718,1.1691347360610962,-0.8747094869613647
1772094464202250500,7.00325048828125,-0.02164403349161148,1.124021291732788,-0.733250081539154
1772094464212199400,7.013199462890625,0.0877564549446106,0.9492754340171814,-0.5790993571281433
1772094464222149400,7.0231494140625,0.15581060945987701,0.7674169540405273,-0.41008710861206055
1772094464232098300,7.033098388671875,0.16604511439800262,0.6747188568115234,-0.24400976300239563
1772094464242048500,7.043048583984375,0.11504051834344864,0.7537702918052673,-0.12871113419532776
1772094464251997400,7.05299755859375,-0.00020818272605538368,0.8541976809501648,0.11899766325950623
1772094464261947400,7.062947509765625,-0.19086602330207825,0.7683184742927551,0.3052564859390259
1772094464271896300,7.072896240234375,-0.15093663334846497,0.4548221230506897,0.3262726664543152
1772094464281846300,7.08284619140625,0.08455098420381546,0.27355220913887024,0.30912908911705017
1772094464291795500,7.09279541015625,0.29196012020111084,0.38934534788131714,0.43163028359413147
1772094464301745400,7.102745361328125,0.44047555327415466,0.6775280833244324,0.5971487164497375
1772094464311695400,7.1126953125,0.5352625250816345,0.9271144866943359,0.703475296497345
1772094464321644300,7.122644287109375,0.5954635739326477,1.0707271099090576,0.7264999151229858
1772094464331594500,7.132594482421875,0.6503841876983643,1.14393949508667,0.6865833401679993
1772094464341543400,7.14254345703125,0.6669549345970154,1.089927315711975,0.678082287311554
