time,seconds_elapsed,z,y,x
1772094001779845400,0.080845458984375,-0.017305939587950705,0.04075535036697984,0.03003246069746092
1772094001789794600,0.090794677734375,-0.05125321737527847,0.05381532294824719,-0.029369174483139065
1772094001799743700,0.10074365234375,-0.06525251663327217,0.07615136565789579,-0.05247647555992007
1772094001809692700,0.110692626953125,-0.09058101915717125,0.0625922113828361,-0.06015946781057864
1772094001819641600,0.1206416015625,-0.04763268879055976,0.10094313095659017,-0.08777251934139058
1772094001829591600,0.130591552734375,0.00563888266980648,0.1022739411689341,-0.06044241293780505
1772094001839540500,0.14054052734375,0.03761573716700077,0.07981500273197889,-0.028870686909090726
1772094001849489400,0.150489501953125,0.09807400526106357,0.09078969347178935,0.004626728218887001
1772094001859438600,0.1604384765625,0.15976678358614443,0.10139788898676633,0.0174328173706308
1772094001869387500,0.170387451171875,0.20610475639104842,0.10398469060957431,0.04712512286091223
1772094001879336700,0.180336669921875,0.22478666050732135,0.10600815926119685,0.07366276371255516
1772094001889285600,0.19028564453125,0.21425825223028658,0.09241612562984228,0.07270970077142119
1772094001899235600,0.200235595703125,0.17462065384685993,0.07880056499242782,0.055848911135084923
1772094001909184500,0.2101845703125,0.14481296008229255,0.07067702590003609,0.0538505038594827
1772094001919133400,0.220133544921875,0.09381985494792461,0.07175503039509058,0.06665767072346061
1772094001929082600,0.23008251953125,0.07485679580271244,0.09831731249764561,0.06486576407169922
1772094001939031600,0.240031494140625,0.04861819269657135,0.12788359872177243,0.09251036151824518
1772094001948980500,0.24998046875,0.02497369773685932,0.15115604549869893,0.15318957888660953
1772094001958929700,0.2599296875,-0.004703063124418258,0.17915946632027624,0.19805388067606836
1772094001968878600,0.269878662109375,-0.0040296939074993135,0.18950915702953933,0.20115542688798158
1772094001978828500,0.27982861328125,0.006253799697756767,0.1889068072222173,0.15764577284418047
1772094001988777700,0.28977783203125,0.0024316110610961912,0.1734485413275659,0.1085522907860577
1772094001998726700,0.2997265625,0.03625847733914852,0.13194091128855942,0.07341733758412301
1772094002008675600,0.309675537109375,0.07916063047647476,0.11173705830201507,0.0273778910680674
1772094002018624500,0.31962451171875,0.08238836035132407,0.08203662430420518,-0.026032687004189935
1772094002028573400,0.329573486328125,0.05921499003469944,0.0799535344198346,-0.039127694366220385
1772094002038522400,0.3395224609375,0.03650105392336845,0.064200961753726,-0.07405225622048602
1772094002048472600,0.34947265625,-0.029406711748242376,0.04849398179501295,-0.09625654404293746
1772094002058421500,0.35942138671875,-0.037730887979269025,0.05635258634090423,-0.09119844780261628
1772094002068370700,0.36937060546875,0.03331891675591469,0.0733902303814888,-0.14580862918929197
1772094002078319600,0.379319580078125,0.05380582446753979,0.08040273949205876,-0.14784533178182319
1772094002088268500,0.3892685546875,0.06871463978588581,0.06481470973789692,-0.11204047996168956
1772094002098217500,0.399217529296875,0.0855418559461832,0.06138429689779877,-0.07424463698742911
1772094002108166400,0.40916650390625,0.07803776392638682,0.08114888168424367,-0.02594476212556474
1772094002118116600,0.41911669921875,0.07741057193875313,0.09182473560795187,0.008344123040512203
1772094002128065500,0.4290654296875,0.07315408353805541,0.12324074135199188,0.010081723955459893
1772094002138014500,0.439014404296875,0.07228314592242241,0.15127280374616384,0.052336025909613816
1772094002147963600,0.448963623046875,0.07439794611930847,0.15597937400192022,0.07480856361365877
1772094002157912600,0.45891259765625,0.08664660231769085,0.17870514668151735,0.09025655470946803
1772094002167861500,0.468861572265625,0.09392682245373725,0.14950491729080675,0.10657436004290356
1772094002177810400,0.478810546875,0.0950882674485445,0.10655030331388116,0.08889596128021367
1772094002187760600,0.4887607421875,0.1620645391345024,0.08828750139251351,0.035219571878621354
1772094002197709600,0.49870947265625,0.18387421988248823,0.05786065281629562,0.04101478675445541
1772094002207658500,0.508658447265625,0.21576748774945734,0.04539849999770522,0.03492413259600289
1772094002217607400,0.518607421875,0.2505740127146244,0.052068625411391255,0.008879764287173747
1772094002227556400,0.528556396484375,0.22636311604380607,0.0432522817492485,0.03685604137349874
1772094002237505500,0.538505615234375,0.17777707205116747,0.05231836238875985,0.06256463838932104
1772094002247454700,0.548454833984375,0.17752631216049194,0.08845029073879122,0.06369910404565744
1772094002257404700,0.55840478515625,0.1525268954604864,0.09978300113603472,0.07238648756588809
1772094002267353600,0.568353515625,0.08380407236814498,0.09372910792455076,0.0682754994499497
1772094002277302500,0.578302490234375,0.023037176716327667,0.08037731278985738,0.03133463847036473
1772094002287251500,0.58825146484375,0.03522913429141045,0.07073328613191843,0.0036059064043220132
1772094002297200400,0.598200439453125,0.05225158076286315,0.05884235733002424,-0.0015635321228299288
1772094002307149600,0.608149658203125,0.05916296758651733,0.052814329212158916,0.012553045972436666
1772094002317098500,0.618098388671875,0.025393968975543975,0.07760521772801876,0.0531259615777526
1772094002327048400,0.62804833984375,0.046667058628797525,0.10095599043816328,0.022494594272226096
1772094002336997600,0.63799755859375,0.08617606219649314,0.15363748705089092,-0.040852965522557495
1772094002346946600,0.647946533203125,-0.0025169512569904328,0.17469459586590527,-0.10779929872797801
1772094002356895500,0.6578955078125,0.001508066475391388,0.13194295711517334,-0.09130253836475312
1772094002366844700,0.6678447265625,-0.023109657430648804,0.14794672806337475,-0.0439175589912571
1772094002376793600,0.677793701171875,-0.02866144633889198,0.12080182376727461,0.15067383320601657
1772094002386742500,0.687742431640625,-0.10040683212280273,0.08568141054734588,0.22591170074818653
1772094002396691500,0.69769140625,-0.07788052753806114,0.02888327239602804,0.15191716606430708
1772094002406641400,0.707641357421875,-0.027615152156352994,0.02842778371348977,0.030697153417579826
1772094002416590300,0.71759033203125,0.026153262910246847,0.083625939322263,-0.0228963069409132
1772094002426539500,0.72753955078125,0.017694062122702598,0.023321108224242923,0.03257591636888683
1772094002436488700,0.73748876953125,0.03289163125455379,-0.03156009038984775,0.06536719252150505
1772094002446437600,0.747437744140625,0.050177697098255154,0.0000694119744002819,0.044039194343239066
1772094002456386600,0.757386474609375,0.01828968992829323,0.04782222001329064,0.011775065603572875
1772094002466335500,0.76733544921875,-0.01865852324068546,0.12553425911664962,0.018698727386910467
1772094002476285400,0.777285400390625,-0.000353051221370697,0.154241590423882,0.0170483663639985
1772094002486234400,0.787234375,0.020066051951050757,0.1634491253606975,-0.09477262562811374
1772094002496183600,0.79718359375,-0.0013707038313150405,0.21535773790478704,-0.21565010844748467
1772094002506132500,0.807132568359375,-0.10565233156085013,0.19853724374622106,-0.11720273982938378
1772094002516081700,0.81708154296875,-0.04390986887514591,0.1002345442958176,0.1227892347248271
1772094002526030600,0.827030517578125,0.15929624346494672,0.0072141691625118255,0.15801953806001692
1772094002535979500,0.8369794921875,0.1890869860947132,0.07733662991970777,0.10288041916210204
1772094002545929500,0.846929443359375,0.12087971130907535,0.10650208025798201,0.042169601079076524
1772094002555878700,0.856878662109375,-0.015291677156090736,0.018015549162030218,0.005229900010116398
1772094002565827600,0.86682763671875,-0.1320493400990963,0.06329656025990843,-0.05494304833654314
1772094002575776500,0.876776611328125,-0.17066227160990238,0.19613821978047488,-0.07290566173493862
1772094002585725400,0.886725341796875,-0.2299433126181364,0.21201324978247282,-0.044227008532918985
1772094002595674600,0.896674560546875,-0.08864216004908085,0.26956103725731373,-0.035993067868612706
1772094002605623600,0.90662353515625,0.02328618304133415,0.27954116400182244,-0.0020673808585852382
1772094002615572500,0.916572509765625,0.10410101046562194,0.2033130798459053,0.019486498497426508
1772094002625522700,0.926522705078125,0.27407413076758386,0.12226283623054623,0.03466273258030415
1772094002635471600,0.9364716796875,0.42779929610192774,0.008191928153485059,-0.05375299830175936
1772094002645420300,0.946420166015625,0.4761152909815311,-0.09917042219564318,-0.15168080002516507
1772094002655369200,0.956369140625,0.46776071961224075,-0.09195245364084839,-0.2144797860264778
1772094002665318100,0.966318115234375,0.42183892639279363,-0.06316241248622537,-0.11897585044912994
1772094002675267300,0.976267333984375,0.21952420993447302,-0.03559212238490581,-0.012874167685583233
1772094002685216300,0.98621630859375,0.19862229168117046,0.11321721385717391,0.0383605641849339
1772094002695166500,0.99616650390625,0.19718378331065176,0.20428177874758838,-0.06491678187288344
1772094002705115400,1.006115478515625,0.2070727246403694,0.23375775633975862,-0.1710796933043748
1772094002715064300,1.016064208984375,0.180922384339571,0.24310090035498141,-0.15886786198504269
1772094002725013200,1.02601318359375,-0.05038227975964546,0.14083455797061323,-0.047738414187356824
1772094002734962200,1.035962158203125,0.007164484801888466,0.07449614579677581,0.0381452409338206
1772094002744911000,1.0459111328125,0.1482487797498703,-0.06018982641622424,0.16242752722799778
1772094002754860300,1.0558603515625,0.1954746413052082,-0.10499372152164578,0.25309337512440977
1772094002764810200,1.065810302734375,0.20453063894212245,-0.05035846049264073,0.08098185455426574
1772094002774759200,1.07575927734375,0.2316384260982275,0.09127499277070164,0.003619359540939331
1772094002784708400,1.085708251953125,0.12031214055418968,0.06884075038358568,0.12054010409116744
1772094002794657300,1.0956572265625,0.008462123396992684,0.035777561954408885,0.10160663636662065
1772094002804606200,1.105606201171875,-0.05452186378240585,0.048518970105797046,0.08011245130859315
1772094002814555400,1.115555419921875,-0.0685363606095314,-0.019951339530199765,0.11998466216549276
1772094002824504300,1.12550439453125,0.05097556947767734,-0.06568856996297837,0.07042977314069866
1772094002834454300,1.135454345703125,0.24415070166885852,-0.029450989281386137,-0.004260506988689303
1772094002844403200,1.1454033203125,0.2863631189763546,0.007964987529814243,0.11694953225329517
1772094002854352100,1.15535205078125,0.3005032880097627,-0.04820362054631114,0.17125614584982393
1772094002864301300,1.16530126953125,0.2710509835541248,-0.03963613707870245,0.14840265513733028
1772094002874250200,1.175250244140625,0.0682926149815321,-0.06681538203582167,0.18413535503670572
1772094002884199400,1.185199462890625,-0.12121931852698326,-0.05754647230058908,0.18411387385725975
1772094002894148400,1.1951484375,-0.2698462839394808,0.007787439005821943,0.11183766913227736
1772094002904097300,1.20509716796875,-0.3947697176814079,0.08182721933722495,0.06254449978359043
1772094002914047200,1.215047119140625,-0.4805342764675617,0.12849866188019513,-0.00812098180912435
1772094002923996200,1.22499609375,-0.46074236528277396,0.17890885256007313,0.001197027764841914
1772094002933945000,1.234945068359375,-0.4087953204244375,0.18193726047053932,0.12129209150224923
1772094002943894300,1.244894287109375,-0.2839443673968315,0.15006430473923682,0.24413075485937297
1772094002953843500,1.254843505859375,-0.13453355813026427,0.10790917057693004,0.2584942843198776
1772094002963792400,1.26479248046875,0.006383563557267189,0.06471110323294997,0.19715791821703313
1772094002973741300,1.2747412109375,0.09779752640724182,0.008723112420737743,0.13327026019617913
1772094002983691300,1.284691162109375,0.17162614820599556,-0.005660802240669727,0.08904124236926436
1772094002993640200,1.29464013671875,0.1921545569717884,-0.011578355721384286,0.08090104440301656
1772094003003589400,1.30458935546875,0.2235994965493679,-0.01608048944622278,0.02003178435526788
1772094003013538300,1.314538330078125,0.2544160750955343,-0.02969911882355809,-0.0557427838794887
1772094003023487200,1.3244873046875,0.298572612208128,-0.02981120089590549,-0.08783157431855797
1772094003033436400,1.3344365234375,0.27293489760458467,-0.03216156341433525,-0.07842544806972146
1772094003043385300,1.34438525390625,0.2538596102565527,-0.008669774798303841,-0.07026479183733463
1772094003053335300,1.354335205078125,0.21835925780832766,0.018276099794358014,-0.09876249898187815
1772094003063284500,1.364284423828125,0.17708441361188887,0.04626330013349652,-0.1066093400247395
1772094003073233400,1.3742333984375,0.10452888048887252,0.050851650837063785,-0.10065006629414856
1772094003083182300,1.384182373046875,0.10015899484157562,0.0636028497301042,-0.09298479236327112
1772094003093131300,1.39413134765625,0.1146294187426567,0.04614785706028342,-0.1347762077797204
1772094003103080200,1.404080078125,0.15037234777510164,0.028411270970106123,-0.12811324275918304
1772094003113029000,1.414029052734375,0.14965806202590465,0.021334318321198222,-0.06444551109932363
1772094003122978300,1.423978271484375,0.1096235732793808,0.025911416978389022,-0.03725296826921403
1772094003132928300,1.43392822265625,0.07164250993132591,0.05024389420226216,-0.08746573668085038
1772094003142877400,1.44387744140625,-0.039138416689634324,0.017425766575336454,-0.09309753202274441
1772094003152826400,1.453826416015625,-0.1191822597414255,0.009655278704315423,-0.063565001937747
1772094003162775300,1.463775390625,-0.1613105058968067,0.04062587876841426,-0.062498030293360346
1772094003172724200,1.47372412109375,-0.17393091801702976,0.0841059779241681,-0.015071458534151315
1772094003182673200,1.483673095703125,-0.1266372519224882,0.10525500280633568,0.047892947161942714
1772094003192622000,1.4936220703125,-0.06575111380517483,0.09579086275994778,0.09118819127008318
1772094003202572300,1.503572265625,-0.023355741146206855,0.0831669435083866,0.11734181950651108
1772094003212521200,1.513521240234375,-0.009926935252547264,0.076783233820647,0.11177066831067203
1772094003222470400,1.523470458984375,0.012561959931254385,0.040069121668487785,0.09887355814091861
1772094003232419300,1.53341943359375,0.05203413861989974,0.006024813247472048,0.08278883091099559
1772094003242368300,1.5433681640625,0.13370645965635775,-0.006000701719522476,0.07435220728144049
1772094003252317200,1.553317138671875,0.15916414151787758,-0.003949468278139829,0.08479352179691195
1772094003262266400,1.563266357421875,0.1108738656014204,-0.01450739491060376,0.07558598686009645
1772094003272216300,1.57321630859375,0.11326222204267979,0.011174451095610856,0.025377821558341382
1772094003282165200,1.583165283203125,0.12151041042804717,0.04878244334757328,0.03557319848872721
1772094003292114200,1.5931142578125,0.08934884701371193,0.026163930434733626,0.06141681092791259
1772094003302063000,1.60306298828125,0.013648586124181747,0.03226327022314072,0.04061206943877041
1772094003312012300,1.61301220703125,0.07489888137876988,0.0584890138477087,-0.02083265240937471
1772094003321961500,1.62296142578125,0.13086159161925315,0.07720935027822852,-0.07150375904776156
1772094003331910400,1.632910400390625,0.15102292063832282,0.06708046271279454,-0.04826382630094886
1772094003341859300,1.642859375,0.13901333389282225,0.05184095413535833,0.02598462834507227
1772094003351809300,1.652809326171875,0.12935937036275863,0.0827645001873374,0.04574541373923421
1772094003361758200,1.66275830078125,0.13865736006200313,0.1291897128842771,0.024037732060998677
1772094003371707100,1.67270703125,0.1108650977730751,0.14164485144019126,0.03439904014281928
1772094003381656300,1.68265625,0.058818099671602245,0.11782646121829747,0.06777297502160072
1772094003391605500,1.69260546875,0.006259060394763946,0.0996532372765243,0.06072619831524789
1772094003401554400,1.702554443359375,-0.0421761769503355,0.12249985985681414,0.03807736332938075
1772094003411503400,1.71250341796875,-0.06297755743861198,0.13700798541978002,0.02260433825701475
1772094003421453300,1.722453369140625,0.024035540103912352,0.13563625867515802,-0.0114198041588068
1772094003431402200,1.73240234375,0.04159925384521484,0.10852774086669087,0.009798194306343794
1772094003441351200,1.74235107421875,0.010680968490242958,0.07318564772009849,0.023409444094821808
1772094003451300400,1.75230029296875,0.020815993535518645,0.06606587884277106,0.010923910400643944
1772094003461249300,1.762249267578125,0.04403378751575947,0.08201338955909013,-0.012554653407633305
1772094003471198200,1.7721982421875,0.04263561115562915,0.07610372712388634,-0.010131810174882412
1772094003481147400,1.7821474609375,0.06277355929911137,0.049343876622617244,0.012671338589861988
1772094003491097000,1.79209716796875,0.0924041429311037,0.052436143549531695,0.03728540923409164
1772094003501046300,1.80204638671875,0.07899930243492126,0.05779445571228861,0.06937726841308176
1772094003510995500,1.811995361328125,0.06855857244133949,0.06410378498956561,0.09090082569606601
1772094003520944400,1.8219443359375,0.06628361324667931,0.07385214880481362,0.07431735516376793
1772094003530893300,1.831893310546875,0.05241466237008571,0.09555398526415228,0.04656031031869352
1772094003540842200,1.84184228515625,0.05557283414006233,0.09734817520454525,0.041577407339587806
1772094003550791200,1.851791259765625,0.03385550785064697,0.10075812977850436,0.040317616536840795
1772094003560741000,1.8617412109375,0.03579728956818581,0.11226780417785048,0.016336436968669293
1772094003570690300,1.871690185546875,0.06032207449376583,0.13400295838490128,0.006497545325756073
1772094003580639500,1.881639404296875,0.05762976666986942,0.10784399638622999,-0.002275982107967138
1772094003590588400,1.89158837890625,0.09139876528084277,0.08500497259050607,0.0036356530886143446
1772094003600537300,1.901537353515625,0.10863047058880329,0.09536080077961087,-0.019121610707789657
1772094003610486300,1.911486328125,0.13792846126556396,0.07713423921540379,-0.04015117392875254
1772094003620435200,1.921435302734375,0.14381167408525944,0.060828708841651674,-0.06058299045227468
1772094003630385400,1.931385498046875,0.11499591396749019,0.04280483024269342,-0.057509793552011246
1772094003640334300,1.941334228515625,0.08028641963601112,0.04063596177101135,-0.06685958650372922
1772094003650282500,1.951282470703125,0.07084697563946246,0.050733139023929834,-0.04804579963609576
1772094003660231700,1.961231689453125,0.04152385052144527,0.07819134705290198,-0.0008212532550096512
1772094003670180600,1.9711806640625,0.0011637830823659895,0.11428542761057614,0.06556450519189239
1772094003680129500,1.981129638671875,-0.011244447591900825,0.1497834419712424,0.11935140576325357
1772094003690078500,1.991078369140625,-0.03693652273118496,0.14624883810430764,0.1368082250639796
1772094003700028700,2.001028564453125,-0.007747837647795677,0.13115940552204847,0.13343239195533096
1772094003709977600,2.0109775390625,0.026631401816010473,0.10671323879063128,0.11011347568817437
1772094003719926500,2.020926513671875,0.07719020718634129,0.0891400265686214,0.10766966273263096
1772094003729875500,2.03087548828125,0.07733458409309386,0.06313596287071704,0.07412197872214019
1772094003739824600,2.04082470703125,0.07469839037060737,0.07358706812784076,0.05005304780527949
1772094003749773600,2.050773681640625,0.05249883352220058,0.08464315354079008,0.06313486689217389
1772094003759722500,2.060722412109375,0.052801031339168546,0.06802636526077985,0.08228482691161335
1772094003769671400,2.07067138671875,0.07143442013859748,0.06090206633880734,0.0877878813073039
1772094003779621600,2.08062158203125,0.09171323805749416,0.04076543336957693,0.09565284252874552
1772094003789570600,2.090570556640625,0.12005962709784507,0.021862726109474897,0.07551262936294079
1772094003799519500,2.10051953125,0.06968845325410365,0.05142886620312929,0.03193856831341982
1772094003809468400,2.110468505859375,0.05581482620239257,0.07348769940659404,0.006259498786181211
1772094003819417600,2.12041748046875,0.03282733384668827,0.08805983011648058,0.010811755263060331
1772094003829366500,2.130366455078125,0.015781506499648094,0.11751242683306336,0.04408025700598955
1772094003839316500,2.14031640625,0.04843173021376133,0.11887582414075731,0.058037470687925814
1772094003849265700,2.150265625,0.0853589005947113,0.10105682046413421,0.039264600352570414
1772094003859214600,2.160214599609375,0.12337912690937518,0.0965931190535426,0.004938187054544687
1772094003869163500,2.17016357421875,0.15224106425642966,0.0846973679460585,-0.035618937326595185
1772094003879112400,2.180112548828125,0.1280447806328535,0.07038081943243742,-0.04780936053171753
1772094003889061400,2.190061279296875,0.06886486191153526,0.08844634521603584,-0.033074732736498115
1772094003899010600,2.200010498046875,0.04003039709329605,0.11250248971655964,-0.036299978393316265
1772094003908960500,2.20996044921875,0.027490064471960066,0.14923282235115765,-0.03404350470341742
1772094003918909400,2.219909423828125,0.009849778363108635,0.1429831143066287,-0.04373334326446056
1772094003928858600,2.229858642578125,0.013773089286684989,0.1425084825322032,-0.03321823286041617
1772094003938807600,2.2398076171875,0.019742811346054077,0.15567790683731436,-0.014915245059132574
1772094003948756500,2.249756591796875,0.0333446357190609,0.14435849431306122,-0.0030534692864865065
1772094003958705400,2.259705322265625,0.06718728408813476,0.1416604874007404,0.005286050644144415
1772094003968654600,2.269654541015625,0.11275427252054214,0.12823635768219827,0.010313304221630095
1772094003978604500,2.2796044921875,0.1632803446650505,0.11343626343533396,0.010818404199555516
1772094003988553500,2.289553466796875,0.1967734489440918,0.10106339633539319,0.03827222831435501
1772094003998502400,2.29950244140625,0.18674363783895967,0.08157558266371488,0.03378368472345173
1772094004008451600,2.30945166015625,0.16536825685501097,0.06372779128402471,0.01779006984308362
1772094004018400500,2.319400390625,0.13552782986462114,0.06311345877796411,0.02056698721051216
1772094004028349700,2.329349609375,0.08665478562414645,0.0576600156776607,0.04313654641509056
1772094004038298600,2.339298583984375,0.013921557846665381,0.060314037317782634,0.07811806262098252
1772094004048248600,2.34924853515625,-0.0459884287148714,0.0676115008495748,0.0721069856379181
1772094004058197500,2.359197509765625,-0.03807107971906662,0.07342720139101147,0.05710888460092246
1772094004068146400,2.369146484375,-0.05805237599611282,0.11030059575811028,0.019562851669266818
1772094004078095400,2.379095458984375,-0.04789981529414653,0.07905775462388992,-0.008825038425251841
1772094004088044500,2.38904443359375,0.05251403109133243,0.021118483613431452,0.008193024132028222
1772094004097993700,2.39899365234375,0.03944061450660229,0.025688860268890855,-0.0022514321886003014
1772094004107942700,2.408942626953125,0.03626666064560413,0.06481017969325184,0.007884688835218548
1772094004117892600,2.418892578125,0.04606500108242035,0.07388517429158091,0.052020767681673165
1772094004127841500,2.428841552734375,0.04527998818457126,0.07782938187271356,0.07442739140950143
1772094004137790500,2.43879052734375,0.0511690462231636,0.07516089331582188,0.09473565461859107
1772094004147739600,2.44873974609375,0.08316402089893818,0.08228826097771524,0.07046725560687482
1772094004157688600,2.4586884765625,0.08115735725164414,0.0773968356743455,0.023099428297579286
1772094004167637500,2.468637451171875,0.08852291758358478,0.055901919963955875,0.005106383228302001
1772094004177586400,2.47858642578125,0.10635258878469467,0.05521598352640867,0.028807211485132572
1772094004187536400,2.488536376953125,0.10833820964395999,0.06734393595457076,0.0539794274687767
1772094004197485600,2.498485595703125,0.0873714094609022,0.09023089054524898,0.0948014133311808
1772094004207434800,2.508434814453125,0.07036766768991946,0.10231325026601552,0.09768259479068218
1772094004217383700,2.5183837890625,0.06307341902852058,0.1016946799762547,0.07520378260947763
1772094004227332600,2.52833251953125,0.06525076306760311,0.0721878688544035,0.04898139998577535
1772094004237281500,2.538281494140625,0.07994798146188259,0.0488872188962996,0.029324805618450044
1772094004247230500,2.54823046875,0.13913491444587706,0.029992694942653178,0.012754998285323381
1772094004257180400,2.558180419921875,0.2211287225216627,0.031657705545425414,-0.020513357327133417
1772094004267129300,2.56812939453125,0.20695348217487333,0.035465865656733514,0.00690744130089879
1772094004277078500,2.57807861328125,0.18295359790623186,0.03788783210664987,0.047549321356043214
1772094004287027700,2.58802783203125,0.11486848819553852,0.05151975935697555,0.05509389151670038
1772094004296976600,2.5979765625,0.07082417928576469,0.08357040974274277,0.05131736865267157
1772094004306925600,2.607925537109375,0.030502690291404722,0.06417232018113136,0.046647550210729236
1772094004316875500,2.61787548828125,0.01791793400645256,0.06431538191363215,0.050887891194224356
1772094004326824400,2.627824462890625,0.04020107748508453,0.06910451588630676,0.058546516188606616
1772094004336773600,2.637773681640625,0.02946633298099041,0.07579378439188003,0.06185944012887776
1772094004346722600,2.64772265625,0.026046295404434202,0.059278118398785586,0.04280636461265385
1772094004356671500,2.65767138671875,0.047938978260755535,0.0578517388574779,0.0520676024980843
1772094004366620400,2.667620361328125,0.07232873862981797,0.027333558735996483,0.06690547147206961
1772094004376569600,2.677569580078125,0.0895978533387184,0.008087737126648425,0.0870418852455914
1772094004386519600,2.68751953125,0.07838672349452971,0.004945931969583034,0.09642105042226612
1772094004396468700,2.69746875,0.0630897856414318,0.04863967387601733,0.05217771180905401
1772094004406417700,2.707417724609375,0.004349427381157875,0.056402709092944855,0.021594649757817386
1772094004416366600,2.71736669921875,-0.01721300060749054,0.07403700385242701,0.0034638036530464885
1772094004426315500,2.7273154296875,-0.02842880662679672,0.06724164462387561,0.04553505892418325
1772094004436264400,2.737264404296875,0.010289923346042633,0.07413856453076005,0.06268208162337541
1772094004446213400,2.74721337890625,0.04676759639382362,0.08846154278516768,0.07027838197126984
1772094004456163600,2.75716357421875,0.07006079369783401,0.08980857347995043,0.07523417774774134
1772094004466112500,2.767112548828125,0.08204173887073993,0.0822143189586699,0.06149177586026489
1772094004476061700,2.777061767578125,0.11673895824253558,0.07915610043182969,0.046699864919856185
1772094004486010600,2.7870107421875,0.15686463240385054,0.0863296453230083,0.018895181540772316
1772094004495959600,2.79695947265625,0.18109481829702853,0.06810176858454943,0.001924246060848236
1772094004505908500,2.806908447265625,0.18886545229852197,0.05352320813387632,-0.005833017002418637
1772094004515858700,2.816858642578125,0.16755261515676975,0.019811054276674983,-0.006261398482322693
1772094004525807600,2.8268076171875,0.14884206946790218,-0.01401186647862196,0.027180414000898597
1772094004535756500,2.836756591796875,0.011342647269368171,0.054648558901995416,0.0017700784124433993
1772094004545705500,2.84670556640625,-0.05008651168346405,0.08357567043974995,-0.027475159163773057
1772094004555654400,2.856654296875,-0.0793161132991314,0.07535846171453595,-0.021901669880375264
1772094004565603600,2.866603515625,-0.11314882479608059,0.08508037591427564,-0.028227584966272114
1772094004575552500,2.876552490234375,-0.11878069320321083,0.06588847644925117,-0.015392799443006514
1772094004585502700,2.886502685546875,-0.1204325520634651,0.023381606239825485,-0.009329992272704838
1772094004595451600,2.89645166015625,-0.048284430697560304,0.018227584477514026,0.00024549919366836546
1772094004605400600,2.906400634765625,0.008564414727687835,0.04039543101340532,-0.005300809821859002
1772094004615349500,2.916349609375,0.04414367763102054,0.04608414417430758,0.0032077830653637644
1772094004625298400,2.92629833984375,0.09169628692269324,0.03747837452292442,0.01321750123053789
1772094004635247400,2.936247314453125,0.13122165710330008,0.04614245023280382,0.011403656741604208
1772094004645197600,2.946197509765625,0.14920155043005942,0.023655162484198806,0.005202464013919234
1772094004655147300,2.956147216796875,0.1398614751547575,0.009405980118364096,-0.004164499268308281
1772094004665096200,2.96609619140625,0.17237024457156658,0.027665567169338462,-0.031661285741999744
1772094004675045400,2.97604541015625,0.19010054705142973,0.0333932971663773,-0.06627250733077526
1772094004684994300,2.985994384765625,0.15797463947236537,0.008919804036617279,-0.06294438582137227
1772094004694943200,2.995943115234375,0.1001245080500841,0.009468085569143294,-0.03362199135571718
1772094004704892400,3.005892333984375,0.06580079816579819,0.04457330121994018,-0.02433810324706137
1772094004714842400,3.01584228515625,0.07842179480791091,0.048768999344110484,0.00033076632432639595
1772094004724791300,3.025791259765625,0.0546545502513647,0.05436360448077321,0.03974902286864817
1772094004734740200,3.035740234375,0.01092705220580101,0.07750716418102384,0.03173310886919498
1772094004744689200,3.045689208984375,0.00981470704972744,0.05006181563362479,0.03674297292046249
1772094004754638000,3.05563818359375,-0.03237491390407085,0.028499387644976375,-0.004466989346221089
1772094004764587500,3.06558740234375,-0.02674479906260967,0.015639321549981832,-0.032099165702611204
1772094004774536400,3.075536376953125,0.00012859481573104857,0.00476443792283535,-0.0347454424276948
1772094004784486400,3.085486328125,0.04061491898298263,0.004357756818085909,-0.020390023208409547
1772094004794435300,3.095435302734375,0.08778232834935187,0.00404006917104125,-0.0035169951450079676
1772094004804384300,3.10538427734375,0.16005027670264244,-0.005517594377696514,-0.012452362076938152
1772094004814333200,3.115333251953125,0.17022329567074776,-0.01413446994498372,-0.01031191598214209
1772094004824282400,3.125282470703125,0.13678221383988856,-0.030380817477405068,-0.00021342355497181416
1772094004834231300,3.135231201171875,0.07997311590313912,-0.02517681909352541,0.006773512722924351
1772094004844181200,3.14518115234375,0.02532265730500221,0.01801291881352663,-0.0047686757065355774
1772094004854130200,3.155130126953125,0.01097498300075531,0.03798749308884144,0.024513240618258714
1772094004864079400,3.165079345703125,0.03054068421423435,0.05067337166070938,0.053677960304170845
1772094004874028300,3.1750283203125,0.05232581504285335,0.04875146368741989,0.03395385365858674
1772094004883977200,3.184977294921875,0.04756780686080456,0.022569120813161134,0.001826411709561944
1772094004893926400,3.194926513671875,0.025450083076953886,0.004248305094242096,-0.01803425386250019
1772094004903875300,3.204875244140625,0.0029109190106391906,0.017482465198636055,-0.020602058523893355
1772094004913825300,3.2148251953125,-0.021211130332946776,0.018198066122084855,-0.03500431255958974
1772094004923774200,3.224774169921875,-0.01883154172003269,0.025579554675519464,-0.02505786888897419
1772094004933723100,3.23472314453125,0.009129647395014762,0.041200171525031325,0.00458513583317399
1772094004943672000,3.244672119140625,0.06307049641907214,0.04306757283210754,0.021126593854650853
1772094004953621500,3.25462158203125,0.08986907149553298,0.051721419408917425,0.04019720502756536
1772094004963570400,3.2645703125,0.12450140893757343,0.07511997678354382,0.062331733815744514
1772094004973520400,3.274520263671875,0.10217501083910464,0.066895899926126,0.07742306609414518
1772094004983469300,3.28446923828125,0.06564297725558281,0.051825464305281635,0.03426971467472613
1772094004993418200,3.294418212890625,0.06746902363896369,0.043235915136337275,0.004271466774120927
1772094005003367200,3.3043671875,0.06548515634536743,0.024685528445243833,-0.025585838285833596
1772094005013316400,3.31431640625,0.039300329253077505,0.011676555398851632,-0.028032975709624586
1772094005023265300,3.324265380859375,0.0333487273722887,-0.007083820781111717,-0.008148162076994776
1772094005033214200,3.334214111328125,0.02477028411924839,0.007185819850862026,0.02528700146973133
1772094005043164200,3.3441640625,0.02550385909080505,0.07663827239200473,0.021628661625273524
1772094005053113300,3.35411328125,0.043783612146973606,0.05953413898646831,0.026039208076521752
1772094005063062300,3.364062255859375,0.10192074381709099,0.08018076730445027,-0.0028803777419030663
1772094005073011500,3.374011474609375,0.09226561124324797,0.033553894555568696,0.029976364862360057
1772094005082960400,3.38396044921875,0.12530629557967185,0.05939911442995071,0.09947557915467768
1772094005092909300,3.393909423828125,0.10586275944113731,0.07908274293467402,0.17992683396358042
1772094005102859300,3.403859375,0.06582008738815784,0.1573902637131512,0.14605247528199106
1772094005112808200,3.41380810546875,0.018708207601308823,0.17723814286887646,0.10925463036913424
1772094005122757000,3.423757080078125,-0.0011707973450422286,0.10751695638895034,0.15965798944942652
1772094005132706300,3.433706298828125,-0.05480477237701416,0.1255887657828629,0.1502105813421309
1772094005142655500,3.443655517578125,-0.11100187589526175,0.12641454908251762,0.14664901640303432
1772094005152604400,3.4536044921875,-0.03634732466638088,0.1395011174097657,0.12245211172495037
1772094005162553300,3.46355322265625,0.01753916382193565,0.1587302801452577,0.06707640759218483
1772094005172503300,3.47350341796875,0.028836802905797956,0.1387180042080581,-0.008927987343072891
1772094005182452200,3.4834521484375,0.016315759506821632,0.09170154761970042,-0.07216657033804803
1772094005192401200,3.493401123046875,-0.026855273699760436,0.052746086281538006,-0.06842394974362105
1772094005202350300,3.503350341796875,-0.04546528162360191,0.03714885030761361,-0.0906941606754437
1772094005212299300,3.51329931640625,-0.02455108841061592,0.02140051542520523,-0.1535914559520781
1772094005222248200,3.523248291015625,-0.012259762114286423,0.012679741092026233,-0.1917799880383536
1772094005232198100,3.5331982421875,-0.005281155273318291,0.04360810944959521,-0.10772270809412002
1772094005242147300,3.543147216796875,0.036031098324060436,0.0851442349307239,-0.04675371399894356
1772094005252096300,3.55309619140625,0.014117957201600074,0.11256707938537001,0.02686415112596005
1772094005262045400,3.56304541015625,-0.026501053434610365,0.14956278495788575,0.019241255032084882
1772094005271994400,3.572994384765625,-0.013918635237216948,0.17214505751356482,-0.0438551064806059
1772094005281943300,3.582943359375,0.032598201265931125,0.22507760627791285,-0.10192786767762153
1772094005291893200,3.592893310546875,0.07239303603768349,0.24001783964782952,-0.09729892923533916
1772094005301842200,3.60284228515625,0.10805179391801356,0.17927227904498577,-0.05551650084294379
1772094005311791000,3.612791015625,0.12419044329226016,0.2194686803549528,-0.07179762742780149
1772094005321740300,3.622740234375,0.1789443622648716,0.25969313871562477,-0.0940884427562356
1772094005331689500,3.632689453125,0.33558629182875155,0.156227795805037,-0.0020600012697279454
1772094005341638400,3.642638427734375,0.43160219551622864,0.05929565405547618,0.014826836123317479
1772094005351587300,3.65258740234375,0.43022681550979613,0.04810352117270231,0.015101561411470173
1772094005361537300,3.662537353515625,0.21914485522806643,0.1498285962872207,-0.0486806269409135
1772094005371486200,3.672486328125,0.0016506898164749145,0.092955639334023,-0.12760335700828582
1772094005381435400,3.682435302734375,0.06326923386156559,-0.9958211557559669,0.21444387446288019
1772094005391384300,3.69238427734375,-0.06343056190311909,-0.8415067923568189,0.3317672084646299
1772094005401333200,3.702333251953125,-0.05257774397730827,0.314117387342453,0.042756314925849435
1772094005411282200,3.7122822265625,0.0993541081994772,0.8340934473603964,-0.0051676849614828825
1772094005421232000,3.722232177734375,-0.14296645543277262,0.9114194097556173,-0.07021839541234076
1772094005431181300,3.732181396484375,-0.23674773193597792,0.5381552753090858,-0.01400971105415374
1772094005441130500,3.742130615234375,-0.2740133404910564,0.08581380475535988,0.101730481941998
1772094005451079400,3.752079345703125,-0.21468144607841969,-0.03929214594662189,0.060011291511543094
1772094005461028400,3.7620283203125,-0.08125964858233928,0.0021055939771234987,-0.06534516335278749
1772094005470977300,3.771977294921875,0.09449380868673324,-0.06481938591301441,-0.17673994755577294
1772094005480927200,3.78192724609375,0.3881733881562948,-0.07690028432905674,-0.37077677461020647
1772094005490876200,3.791876220703125,0.38330548985898494,0.23518019035831092,-0.13357348092645405
1772094005500825300,3.801825439453125,0.12098609429299831,0.4478925283208489,0.3782150348521769
1772094005510774300,3.811774169921875,0.29168402173817154,0.12918795931860805,0.3848176479876041
1772094005520723500,3.821723388671875,0.4857242463260889,-0.29433146750703454,0.2327551551684737
1772094005530672400,3.83167236328125,0.43127135612666606,0.12889482159093021,0.02038585848994553
1772094005540622300,3.841622314453125,0.6758890907853842,0.2703719152487814,-0.15685169985704123
1772094005550571300,3.8515712890625,0.5397130261451005,0.048892479593306774,-0.15101502959281204
1772094005560520200,3.861520263671875,0.4567629402577877,-0.06640051762461661,-0.07117105649467557
1772094005570469400,3.871469482421875,0.3452922778069973,-0.07244009004980326,-0.02851042049564421
1772094005580418300,3.881418212890625,0.26650983299314973,-0.0069517188340425485,0.05875497130751609
1772094005590367200,3.8913671875,0.050420858204364774,0.10130305031016468,0.09912395270541309
1772094005600316200,3.901316162109375,-0.08020341752767562,0.17430910367965696,0.03907506912983954
1772094005610266000,3.91126611328125,-0.05333586886823177,0.18247472834810613,-0.007542232073098421
1772094005620215300,3.92121533203125,-0.12255612008869647,0.16993322668299077,-0.002314597085304558
1772094005630164500,3.93116455078125,-0.1622913336277008,0.08585837454944849,0.019410656782239674
1772094005640113400,3.941113525390625,-0.07417056710422039,0.016981676069647074,0.034783838209323584
1772094005650062600,3.9510625,-0.049424832904338835,0.013033815226703882,0.04661470738705247
1772094005660011500,3.961011474609375,-0.06085106680393219,0.04122062979117035,0.0540691881114617
1772094005669961700,3.970961669921875,-0.036895606198906895,0.018055735041946172,0.046660482757538556
1772094005679910700,3.98091064453125,-0.06001636954545975,0.04474909617826342,-0.00718085141479969
1772094005689859600,3.990859619140625,-0.05925707561075687,-0.014895517445355652,-0.010717464575730263
1772094005699808500,4.00080859375,-0.1320879185438156,-0.08933613366261124,-0.0292030058696866
1772094005709757400,4.01075732421875,-0.260794962477684,-0.11942819732651114,-0.016805004328489304
1772094005719706600,4.02070654296875,-0.3381178561329841,-0.053057782579213376,-0.01748184414412826
1772094005729656600,4.030656494140625,-0.2912064673542976,0.13440700914114712,0.031498204134777184
1772094005739605800,4.040605712890625,-0.1607844361960888,0.29090090853646394,0.12238237095698713
1772094005749554700,4.0505546875,-0.07040916874408722,0.31494331677258014,0.19074995087087154
1772094005759503600,4.060503662109375,0.05080488908588886,0.2340269286699593,0.19853925304021686
1772094005769452500,4.07045263671875,0.1632768375337124,0.158283997682482,0.14479940648097545
1772094005779401500,4.0804013671875,0.25213819329142567,0.11778437564224004,0.061103543727658687
1772094005789350400,4.090350341796875,0.2862316015511751,0.10972498782724141,0.01437635240945965
1772094005799300600,4.100300537109375,0.3066360916763544,0.07870105014070868,-0.015447379174455999
1772094005809249500,4.11024951171875,0.3176046449363231,0.0172539171397686,-0.05272785650510341
1772094005819198700,4.12019873046875,0.23970950435101984,0.020267419742047786,-0.12308737742118536
1772094005829147600,4.130147705078125,0.2515840665400028,-0.03452975385040045,-0.17078282924965024
1772094005839096600,4.1400966796875,0.216989723020792,-0.0514870261311531,-0.2050481965428218
1772094005849045500,4.15004541015625,0.15230828427374363,-0.05056523511111736,-0.07441602976527065
1772094005858995700,4.15999560546875,0.07439853064119815,0.05385331687107682,-0.11001604319568722
1772094005868944600,4.169944580078125,0.13157061667144299,0.12449424854442477,-0.04025660706460476
1772094005878893600,4.1798935546875,0.07570259897708892,0.10065379262119531,0.044549408887699246
1772094005888842500,4.189842529296875,0.014400865796208381,0.0752386347271502,0.09904412893485277
1772094005898791400,4.19979150390625,-0.010226210460066795,0.06167962658256292,0.11179149190299212
1772094005908740600,4.20974072265625,-0.049531800410151476,0.06786839822009205,0.0604994038220495
1772094005918690600,4.219690673828125,-0.059064767909049985,0.0670113429993391,0.01921809335220605
1772094005928639700,4.2296396484375,-0.060250762823224065,0.06276888312399387,0.01379712774939835
1772094005938588700,4.239588623046875,-0.07537526671886444,0.030354367861896752,0.04326232821922749
1772094005948537600,4.24953759765625,-0.011092471900582313,-0.04075008966997266,0.13142890664581208
1772094005958486500,4.259486572265625,-0.11638999867439269,0.030205022519081828,0.09889668328817933
1772094005968435500,4.269435546875,-0.08302548921108245,0.09785933959707617,0.011445340458862483
1772094005978385700,4.2793857421875,0.019973697492480277,0.02168999989107251,-0.025003362222760915
1772094005988334600,4.28933447265625,-0.027678865042328832,-0.004165595246851444,-0.03292889452502131
1772094005998283500,4.299283447265625,-0.03207096252143383,-0.013462415902316569,-0.009893252178654074
1772094006008232700,4.309232666015625,-0.0006651859104633331,0.019744272650778293,0.011783011448010802
1772094006018181600,4.319181640625,0.012456161469221114,0.07584843718856572,0.04159344515893608
1772094006028130600,4.329130615234375,0.06347089391350746,0.09146920016855001,0.023785182072035966
1772094006038079500,4.33907958984375,0.1157756661683321,0.03420022963508963,0.10582180637624114
1772094006048029700,4.34902978515625,0.14037176276445387,0.013929887283593415,0.07157521684877574
1772094006057978600,4.358978515625,0.16670973459184169,0.05579071467444301,0.0521046831054613
1772094006067927600,4.368927490234375,0.10336100575327872,0.07914791712537407,0.055866592922247944
1772094006077876500,4.37887646484375,0.01896656627655029,0.11291311634406447,0.05610263016782701
1772094006087825700,4.38882568359375,-0.018206687819957733,0.17368980273753404,0.025844452689401803
1772094006097774600,4.398774658203125,-0.018376783689856527,0.17902648759037254,0.0019181816462427376
1772094006107724500,4.408724609375,0.021941782695055007,0.13692732139900327,-0.014041202170960604
1772094006117673700,4.418673828125,0.08593816178739071,0.07692600329220295,-0.059734922255575654
1772094006127622700,4.42862255859375,0.17112755103409288,0.017212562216073275,-0.08741744055971502
1772094006137571600,4.438571533203125,0.23697686451673505,-0.0344794849678874,-0.11770130046866834
1772094006147520500,4.4485205078125,0.2092079831033945,-0.03476341647580266,-0.12608615737836806
1772094006157469400,4.458469482421875,0.13825930065512657,-0.021356384022533894,-0.14058175225332378
1772094006167419600,4.468419677734375,0.04584872798323631,-0.0017559037566184997,-0.11269578379895537
1772094006177368600,4.47836865234375,0.008732757031917572,0.027487141862511635,-0.08347213700003922
1772094006187317500,4.4883173828125,-0.008259294301271439,0.06314341552481055,-0.03189644620474428
1772094006197266700,4.4982666015625,-0.04085691104531288,0.061990153836458915,0.06525912903714924
1772094006207215600,4.508215576171875,-0.05046294378042221,0.07589110728651284,0.17672372707333414
1772094006217164500,4.51816455078125,-0.05528934102356434,0.10236585723608732,0.21351872244197875
1772094006227113500,4.528113525390625,-0.08464052319228649,0.12795681008845566,0.14906214195936918
1772094006237063700,4.538063720703125,-0.10184007979631424,0.11851342056915164,0.06225096019711345
1772094006247012600,4.5480126953125,-0.07656769137382508,0.08802855819538236,0.011486256991140543
1772094006256961500,4.55796142578125,-0.03380290088057518,0.03558277003467083,0.01381543059106916
1772094006266910500,4.567910400390625,0.01647124232947826,0.007609305959939956,0.03463547924719751
1772094006276859600,4.577859619140625,0.0964870283305645,0.006086918698251247,0.0212612530849874
1772094006286808600,4.58780859375,0.2141974619537592,0.020971037966758012,0.004251191171072423
1772094006296758500,4.597758544921875,0.2638713011831045,0.0314611600600183,0.00980276088360697
1772094006306707700,4.607707763671875,0.2955295912504196,0.02490983872041106,0.014919007918797432
1772094006316656600,4.61765673828125,0.2827338225632906,0.011768471466004848,0.036587818891368806
1772094006326605600,4.62760546875,0.20197160210907458,0.011528671360760927,0.057327970711700614
1772094006336554500,4.637554443359375,0.14571838448941707,0.04002016796022653,0.03702376262322068
1772094006346503400,4.64750341796875,0.11845745259821414,0.05705488939136266,0.0047157399429008364
1772094006356453600,4.65745361328125,0.11988660861849784,0.03498991870805621,-0.00019029840771108864
1772094006366402600,4.667402587890625,0.11277473078668117,0.01856163873746991,0.012481405508331954
1772094006376351500,4.6773515625,0.10377134011983871,0.03961071037650108,0.015690905606746672
1772094006386300700,4.68730078125,0.08483516898155212,0.02619447170346975,-0.01094089806806296
1772094006396249600,4.69724951171875,0.05734276642203331,0.02236117715090513,-0.05348883094023913
1772094006406198500,4.707198486328125,0.034467502269148825,0.026210838316380977,-0.06689498661067336
1772094006416147500,4.7171474609375,0.01898059480190277,0.030141528828814625,-0.05418006460741162
1772094006426097700,4.72709765625,-0.030377018085122106,0.04677314935177564,-0.02898972844518721
1772094006436046600,4.737046630859375,-0.0972796400129795,0.09436104915253818,-0.03258884891569614
1772094006445995500,4.74699560546875,-0.1143722291111946,0.1428528389904648,-0.013314312668517231
1772094006455944400,4.7569443359375,-0.11699088717699051,0.15046755177788435,0.036687699069269
1772094006465893600,4.7668935546875,-0.15350596962571142,0.12169738436751067,0.06118113900851458
1772094006475842600,4.776842529296875,-0.09195055394470691,0.11453662589266896,0.03206256001926958
1772094006485792500,4.78679248046875,-0.02486263857781887,0.13264087625145912,-0.005417348873615265
1772094006495741700,4.79674169921875,0.03111760731935501,0.10771700900569557,-0.031245617613196372
1772094006505690600,4.806690673828125,0.10750234334170818,0.04971417123973369,-0.07014967755768448
1772094006515639600,4.8166396484375,0.20092121627330778,0.023422230511158704,-0.08094393369667231
1772094006525588500,4.82658837890625,0.21565876667797565,0.01685717290714383,-0.04132043690383434
1772094006535537400,4.836537353515625,0.22018471966981887,0.016105770017951725,0.005327478633075952
1772094006545487600,4.846487548828125,0.2549000592201948,0.06077770930677652,0.030342129434831437
1772094006555436500,4.8564365234375,0.19345044200122355,0.0813515646494925,0.05446914721447974
1772094006565385500,4.866385498046875,0.1473036078542471,0.07089695226103067,0.0550136658873409
1772094006575334700,4.876334716796875,0.10155366407036781,0.05641001561656594,0.03952146119046956
1772094006585283600,4.88628369140625,0.06185410636663437,0.06203823076188564,0.009525880170986056
1772094006595232500,4.896232421875,0.0055704936087131495,0.0718280956313014,0.006422872654348611
1772094006605182700,4.9061826171875,-0.020369418811798094,0.05652750451639294,-0.0019857304571196436
1772094006615131600,4.916131591796875,-0.001025251394510269,0.01422770118638873,-0.015579517654143274
1772094006625080600,4.92608056640625,0.011207038190960883,0.0023505086489021775,-0.04993424373120069
1772094006635029500,4.936029541015625,0.0602969400525093,0.029919921967387197,-0.08008589209523051
1772094006644978400,4.945978515625,0.08614566705822944,0.0061883332461118695,-0.08492390671093017
1772094006654930700,4.9559306640625,0.09264905760288238,-0.013720190055668354,-0.05825922367982566
1772094006664880600,4.965880615234375,0.09323065688312053,-0.008033230460435152,-0.062160249706357716
1772094006674829800,4.975829833984375,0.0826268452823162,0.05275573089271784,-0.04833528410196304
1772094006684778800,4.98577880859375,0.0731242729216814,0.07907192927971482,-0.021806027486175297
1772094006694727700,4.995727783203125,0.04214402824640274,0.08743263812884688,0.020069632147625086
1772094006704676600,5.005676513671875,-0.0010287585258483885,0.11173282051831483,0.046159766693785784
1772094006714625500,5.01562548828125,-0.024347090271115302,0.11161167835667729,0.043487149951048194
1772094006724574500,5.025574462890625,-0.051878071275353425,0.10067688123583793,0.04683105355147272
1772094006734524700,5.035524658203125,-0.05206102662682533,0.07520853184983134,0.029265111320465803
1772094006744473600,5.0454736328125,-0.03774667007029056,0.06449979856982826,-0.015143427791818976
1772094006754422800,5.0554228515625,-0.011289455777406691,0.0809269094966352,-0.050354186176322396
1772094006764371700,5.065371826171875,-0.005111059403419494,0.05225260367617011,-0.04751194848772138
1772094006774320600,5.075320556640625,0.006660042411088943,0.004287906452268362,-0.041872883154824375
1772094006784269600,5.08526953125,0.03950549643635749,-0.010491875658929348,-0.05820358450245112
1772094006794219800,5.0952197265625,0.08223229300677776,0.027420652497559785,-0.027068843385204672
1772094006804168700,5.105168701171875,0.12200316238105297,0.0473771065942943,0.004391476424597204
1772094006814117600,5.11511767578125,0.16933540692031382,0.052484366605430835,0.03509608249627053
1772094006824066600,5.125066650390625,0.2071907980620861,0.04918956284373999,0.041418746179156
1772094006834015500,5.135015380859375,0.18721651604771614,0.018984686455130576,0.06907591084633022
1772094006843964700,5.144964599609375,0.18632804277539253,0.02708016849681735,0.08027597130723298
1772094006853914600,5.15491455078125,0.2000450179606676,0.05539908500835299,0.08437321402560918
1772094006863863800,5.16486376953125,0.19968202986717223,0.07185206102877854,0.10570523079186678
1772094006873812700,5.174812744140625,0.17935645019710064,0.06826061240807176,0.0951692967955023
1772094006883761700,5.18476171875,0.1840016456544399,0.053795156943053,0.07821958676669746
1772094006893710600,5.194710693359375,0.16922434776127337,0.0406140422001481,0.06913823549281806
1772094006903659500,5.204659423828125,0.15805471897125242,0.013459493292868137,0.035402189303375776
1772094006913608400,5.2146083984375,0.17288988453149795,0.011046148540824651,0.014356515197828412
1772094006923558700,5.22455859375,0.13321779935657976,0.04801087445318698,0.012766725255735217
1772094006933507600,5.234507568359375,0.07905074036121368,0.050760319291800256,0.028840310037136076
1772094006943456800,5.244456787109375,0.02588379831910133,0.0668061758160591,0.03591817600149661
1772094006953405700,5.25440576171875,-0.00944996539056301,0.06982596202865242,0.03144607208874076
1772094006963354600,5.264354736328125,-0.02336158636510372,0.05720350408181548,0.01837828152719885
1772094006973303600,5.274303466796875,-0.019313772279024123,0.05082373991683125,0.0031822102326899766
1772094006983253800,5.284253662109375,0.006649521017074584,0.050143940959125756,0.029539946206472812
1772094006993202700,5.29420263671875,0.010392799198627472,0.034251229169964786,0.060719293650425964
1772094007003151600,5.304151611328125,0.009281038564443587,0.03703793727904558,0.048960832121782004
1772094007013100500,5.3141005859375,-0.0017383680999279022,0.03366933762878179,0.02295950837023556
1772094007023049500,5.324049560546875,-0.011153846698999404,0.010225625938177108,-0.011923187103681265
1772094007032998700,5.33399853515625,-0.01765080750286579,0.0004624298799782991,-0.016244119042716918
1772094007042948600,5.343948486328125,-0.06526362254917621,0.0049636868219822645,-0.024707996005378662
1772094007052897800,5.353897705078125,-0.06846621798276901,0.03335194224268198,-0.04927581635508686
1772094007062846700,5.3638466796875,-0.06718202339112758,0.06653079294078051,-0.027499197626486418
1772094007072795600,5.373795654296875,-0.07392331434488296,0.07681735528595746,0.004135273173823953
1772094007082744600,5.38374462890625,-0.03220072638094425,0.10165917027145624,0.001767557661794126
1772094007092693500,5.393693603515625,0.04814882161915302,0.09690788409113883,-0.03367120079230517
1772094007102642700,5.403642578125,0.13155834171175956,0.07230638066753745,-0.04486413739267736
1772094007112592600,5.413592529296875,0.19225392569303512,0.02176072703972459,-0.04059431458637118
1772094007122541600,5.42354150390625,0.2200087785810232,0.004629559496790171,-0.046776071961224075
1772094007132490800,5.43349072265625,0.22868600603342054,0.007628010660409927,-0.03560392242055386
1772094007142439700,5.443439697265625,0.18269173209965228,0.01857756695896387,-0.04070343751665204
1772094007152388600,5.453388671875,0.16154373013079165,0.014690934783965348,-0.055480735409818585
1772094007162337800,5.463337890625,0.11881050381958484,-0.004043357106670737,-0.05130191535521298
1772094007172287700,5.473287841796875,0.10364859052300453,-0.011739245371520518,-0.06378518402706831
1772094007182236700,5.483236572265625,0.1038017352581024,-0.01095905477926135,-0.07149495468679815
1772094007192185600,5.493185546875,0.08782149131596088,-0.027288477485254405,-0.01750310612786561
1772094007202134500,5.503134521484375,0.07307400403916835,-0.036039720021933314,0.03218925513885915
1772094007212083500,5.51308349609375,0.06989829661250115,-0.018719240451976656,0.04748213787134736
1772094007222032600,5.52303271484375,0.06670329996347427,-0.00038337329439818856,0.04499112477321177
1772094007231982600,5.532982666015625,0.050395139241218564,0.011941270749643445,0.07562558821812272
1772094007241931800,5.542931884765625,0.004601356315612793,0.02695690744332969,0.12976933940313756
1772094007251880700,5.552880615234375,-0.08754442794024944,0.03191460291594267,0.17546137898731975
1772094007261829600,5.56282958984375,-0.16631401327252388,0.05551672003865242,0.16661895103584973
1772094007271778600,5.572778564453125,-0.20128420436680317,0.09884696239493787,0.1254691945238039
1772094007281727500,5.5827275390625,-0.19490882411599159,0.0926289646629244,0.05667991859912872
1772094007291676700,5.5926767578125,-0.14347849660813808,0.052455944228544826,0.019276728204265237
1772094007301626600,5.602626708984375,-0.09884849676489829,0.0038614246685057876,-0.009735065942257643
1772094007311575600,5.612575439453125,-0.02095218713581562,-0.02719824191853404,-0.024266645446047185
1772094007321524700,5.622524658203125,0.061709729459881776,-0.02513809451833367,-0.0605034954752773
1772094007331473700,5.6324736328125,0.11103344007730484,-0.028334990863502024,-0.08703523630909621
1772094007341422600,5.642422607421875,0.19492694429457186,-0.026697964246198535,-0.1058437259471044
1772094007351371800,5.652371826171875,0.22857319330871104,-0.012642770082503557,-0.11661924085300415
1772094007361321700,5.66232177734375,0.2740671165049076,-0.006644260320067406,-0.12154354551266879
1772094007371270700,5.672270751953125,0.2998001081764698,-0.008961451221257447,-0.11692169439829886
1772094007381219600,5.682219482421875,0.28220307668745515,0.003384308676049113,-0.09751870946586132
1772094007391168500,5.69216845703125,0.23839842175245285,0.016449615019559858,-0.09800309544932097
1772094007401117400,5.702117431640625,0.20185937390625475,0.018558131606131793,-0.07015957789719104
1772094007411067000,5.71206689453125,0.1825000089198351,0.03697437052354216,-0.05802888552267104
1772094007421016600,5.7220166015625,0.1394429574817419,0.04195603139363229,-0.03829677823372185
1772094007430965800,5.7319658203125,0.10082885692715644,0.025999387522786854,-0.01366217625811696
1772094007440914700,5.741914794921875,0.046048049947619435,0.017285627452284097,-0.002573722945526242
1772094007450863600,5.751863525390625,0.0010474632263183592,0.006091010351479053,-0.0014032178614288569
1772094007460812500,5.7618125,-0.048663200882077214,-0.00011931553073227405,-0.0016249343207105993
1772094007470761700,5.77176171875,-0.12246259658634662,-0.011308087412640451,0.010440364667400717
1772094007480710700,5.781710693359375,-0.14177461529970167,-0.0017241934441030024,0.0026076982803642746
1772094007490660600,5.79166064453125,-0.12037468439638614,0.02134396293237805,0.022631518524885177
1772094007500609500,5.801609619140625,-0.10112813213467597,0.014534355982765555,0.044226716271974144
1772094007510558700,5.811558837890625,-0.06305412980616092,0.00878499867580831,0.06559745761342346
1772094007520507600,5.821507568359375,-0.04972936880886555,-0.0009550357025116681,0.06862396582774817
1772094007530456800,5.831456787109375,-0.03754734810590744,0.0016232903528958559,0.04435914701260626
1772094007540405800,5.84140576171875,-0.02486439214348793,0.01996339529417455,0.041431715258583426
1772094007550355700,5.851355712890625,-0.014573299753665923,0.019213672905415296,0.047272988632693885
1772094007560304600,5.8613046875,0.034306758749485015,0.025286709208786486,0.06490205922778695
1772094007570253600,5.871253662109375,0.08936053745150566,0.029178602080792187,0.06041881286650896
1772094007580202500,5.881202392578125,0.16427169378995896,0.03665551383271813,0.040244624365866184
1772094007590151400,5.8911513671875,0.22651216912567615,0.033806846403330565,0.019788294455595313
1772094007600100900,5.901100830078125,0.23718963048458097,-0.0007104863569140434,0.012218187994882463
1772094007610050600,5.911050537109375,0.23248072214126586,-0.0011000701963901518,0.03405420876052231
1772094007619999700,5.920999755859375,0.20882219865620136,0.020573416951298714,0.041916758829168975
1772094007629948700,5.93094873046875,0.16770400632619856,0.037285043907910584,0.03642546793650835
1772094007639897600,5.940897705078125,0.1391945356786251,0.04022971905767917,0.03231792301982641
1772094007649843500,5.950843505859375,0.12129998254776,0.03163169432133436,0.025948168792203068
1772094007659792400,5.96079248046875,0.11616904940009116,0.013817951341718435,0.0009667626729235052
1772094007669741300,5.9707412109375,0.10729016189575195,0.0030922669269144534,-0.029877288402058184
1772094007679691300,5.980691162109375,0.09165537039041519,0.0025071605153381823,-0.020146241047792137
1772094007689640400,5.990640380859375,0.043674306553602216,0.025610534335672855,0.003226633896306157
1772094007699589400,6.00058935546875,0.022298341047763823,0.04620835507586598,0.01567333341743797
1772094007709538600,6.01053857421875,0.01176701016128063,0.05500467886328697,0.045052499571628865
1772094007719487500,6.020487548828125,-0.0013964227944612503,0.06911182240992784,0.0683048168759793
1772094007729436400,6.0304365234375,-0.013612345767021179,0.07844678311869502,0.07491762261185794
1772094007739386400,6.040386474609375,-0.02490998485088348,0.07974471397474407,0.07342157536782323
1772094007749335600,6.05033544921875,-0.008776011651754378,0.09186842861920595,0.04403426243979484
1772094007759284500,6.060284423828125,0.04371463856399059,0.08810016212686896,0.0499302616758272
1772094007769233400,6.0702333984375,0.05968143850266933,0.0806467773810029,0.07035893639419227
1772094007779182300,6.080182373046875,0.08263385954499244,0.10650924065113067,0.06361340765673666
1772094007789131500,6.090131591796875,0.09926409182846546,0.12880816622078417,0.030816468948312102
1772094007799080400,6.10008056640625,0.11280746401250362,0.10565598482266068,0.03014850655887276
1772094007809030700,6.11003076171875,0.08462591014504432,0.052620852466672655,0.007631006335094571
1772094007818979600,6.1199794921875,0.12678630500435828,0.02662570272758603,-0.03182038529384881
1772094007828928500,6.129928466796875,0.160125680026412,0.03364975614547729,-0.05148114437963813
1772094007838877400,6.13987744140625,0.16338555860519408,0.03905906784310937,-0.015311989291757344
1772094007848826400,6.149826416015625,0.1396037010014057,0.03258417274057865,0.05006031779628247
1772094007858775300,6.159775390625,0.09873919117152691,0.04491743848249316,0.08153254723958671
1772094007868725200,6.169725341796875,0.06951894190609455,0.0800014652147889,0.05462298606932163
1772094007878674400,6.17967431640625,0.026350246787071225,0.07046615962833165,0.03533431169893592
1772094007888623400,6.189623291015625,-0.017451485538482664,0.05346446368396282,0.0201075164726004
1772094007898572500,6.199572509765625,-0.012435703203082083,0.04827317865118384,0.015610205053351818
1772094007908521500,6.209521484375,-0.0031669395983219143,0.054028673437982795,0.013965177792683242
1772094007918470400,6.219470458984375,-0.04047521825134754,0.06261778421550988,-0.013195581659674644
1772094007928419300,6.22941943359375,0.02854045030772686,0.048752924992144106,-0.03671871526204049
1772094007938369500,6.23936962890625,0.028716975918412206,0.06155439276769757,-0.05761398457884788
1772094007948318500,6.249318359375,0.05137772053778171,0.04960223529785871,-0.057162185690738256
1772094007958267400,6.259267333984375,0.10454349353611468,0.02598740482404828,-0.06346968833710998
1772094007968216300,6.26921630859375,0.12921557797789573,0.023944500819593668,-0.06342690864130854
1772094007978165500,6.27916552734375,0.1457692378938198,0.02053162363618612,-0.06410670759901405
1772094007988114400,6.289114501953125,0.2069815392255783,0.05822787869349122,-0.07294972007237374
1772094007998064600,6.299064697265625,0.2158171721100807,0.09449716968759894,-0.047555933759920295
1772094008008013600,6.309013671875,0.1768400834619999,0.08702464184984564,0.0031877997232601044
1772094008017962500,6.31896240234375,0.12457564321756362,0.08640724060386419,-0.005334712091460823
1772094008027911400,6.328911376953125,0.05248714308440685,0.1002176662262529,-0.026354448038153348
1772094008037860400,6.3388603515625,-0.034227848294377326,0.12773987940214573,-0.02005918381884694
1772094008047809300,6.348809326171875,-0.05187164153456687,0.13250592476017772,-0.07129106614515185
1772094008057759500,6.358759521484375,-0.06459668307304382,0.09859211085103452,-0.1160052006078884
1772094008067708400,6.36870849609375,-0.058009705898165696,0.0867725667849183,-0.11446363372169434
1772094008077657300,6.3786572265625,-0.04012625868320465,0.06097103992179036,-0.10394161865282803
1772094008087606500,6.3886064453125,-0.015438392150402068,0.02342281503304839,-0.11548209004923701
1772094008097555500,6.398555419921875,0.016530863562226293,0.02084646173901856,-0.10365421654619277
1772094008107504400,6.40850439453125,0.01056406411230564,0.05510097884461283,-0.052593379937857385
1772094008117453300,6.418453369140625,0.03180675862729549,0.09062164342850446,0.007830912821367383
1772094008127403500,6.428403564453125,0.04047521825134754,0.12631284227371214,0.08477244247626513
1772094008137352400,6.4383525390625,0.03328969066143036,0.12117080321013926,0.13663717934601008
1772094008147301400,6.44830126953125,0.07083353163599967,0.1288014442190528,0.12943930373117327
1772094008157250300,6.458250244140625,0.1373684892952442,0.12213263397961854,0.07312953361868858
1772094008167199500,6.468199462890625,0.2047556798696518,0.07582768666148185,0.017656835384853183
1772094008177148400,6.4781484375,0.2111556100398302,-0.005944441487640142,0.01664952150583267
1772094008187098600,6.4880986328125,0.1976619222164154,-0.07037526647448539,-0.007818710926920176
1772094008197047600,6.498047607421875,0.13955869281589983,-0.059007777024805544,-0.06570690933726728
1772094008206996500,6.50799658203125,0.06955401321947574,-0.01405555948987603,-0.10193342063557356
1772094008216945400,6.5179453125,0.023223054677248,-0.013611761245131491,-0.10263681966457515
1772094008226894300,6.527894287109375,0.05183657022118568,-0.0012720657624304293,-0.04204900690671056
1772094008236843300,6.53784326171875,0.10853168638944626,0.03769742410108447,0.020895926903933285
1772094008246792200,6.547792236328125,0.1803244184464216,0.04845028878375888,0.012608977410756051
1772094008256742400,6.557742431640625,0.23462650199830531,0.024408465069532394,0.00969718161728233
1772094008266691300,6.56769140625,0.19668810874819753,-0.02494447164237499,0.03227156312745064
1772094008276640500,6.577640625,0.05108604411482811,-0.047586803822219366,0.025390352246351538
1772094008286589400,6.58758935546875,-0.047502340409159655,0.016068360617011786,-0.035161548947915434
1772094008296538400,6.597538330078125,-0.11361235065460204,0.04830108957141638,-0.03522113364804536
1772094008306487300,6.6074873046875,-0.12229483880400657,0.05026917477399111,-0.032186040268465874
1772094008316437500,6.6174375,-0.08914309530854225,0.04789177811816334,-0.04857844520807266
1772094008326386400,6.627386474609375,-0.0028968904852867123,0.009078355599194765,-0.009524017007462679
1772094008336335400,6.63733544921875,0.014029109874367713,0.016969254979491234,0.04879362232871353
1772094008346284300,6.6472841796875,-0.024810031607747078,0.04598667514920234,0.037380101780220866
1772094008356233500,6.6572333984375,0.005343114593625069,0.053085255108028646,0.02708294497579336
1772094008366182400,6.667182373046875,-0.009535305586457252,0.07182312719523906,0.049572570811957116
1772094008376131300,6.67713134765625,0.009125555741786957,0.07597352487295865,0.05330624091494828
1772094008386081500,6.68708154296875,0.05478782124221324,0.031175621116906402,0.006833353151381016
1772094008396030500,6.697030517578125,0.08039864783883094,0.008189736196398735,-0.025628837177343666
1772094008405979400,6.7069794921875,0.1342185008317232,0.018351649248600006,0.048081674667075275
1772094008415928300,6.71692822265625,0.21695582075119016,0.0409258846282959,0.12105601772405207
1772094008425877200,6.726877197265625,0.19813889207839966,0.0763464498385787,0.11067655293103307
1772094008435826200,6.736826171875,0.17594927210211753,0.06263078982755542,0.027992789829708636
1772094008445776400,6.7467763671875,0.12978197968900204,0.03304068433642387,0.09596979952342807
1772094008455725300,6.756725341796875,0.0924567499011755,-0.02754471726864576,0.07449720524270087
1772094008465674500,6.766674560546875,0.16251228290200231,-0.07356894794926047,-0.12248963072374462
1772094008475623400,6.77662353515625,0.12803601280450821,-0.09218363204821944,-0.19509952438250183
1772094008485572400,6.786572265625,0.11824059497714041,-0.10819704760760068,-0.12415040354281663
1772094008495521300,6.796521240234375,0.11820143201053142,-0.07748655978441238,-0.04342858816422522
1772094008505470500,6.806470458984375,0.08726794908642768,-0.002493278120458126,-0.022988223008066414
1772094008515420400,6.81642041015625,0.01400748256444931,-0.0035075697295367716,-0.03875533565618097
1772094008525369300,6.826369384765625,-0.027321137645840644,-0.019490444020181893,-0.07633746281452476
1772094008535318300,6.836318359375,-0.02121756007373333,-0.03753668058142066,-0.06261888019405305
1772094008545267500,6.846267333984375,0.062225862288475035,-0.018140052324533463,0.011938640401139854
1772094008555216400,6.85621630859375,0.12582885814905165,0.06985270390510559,0.03269362446442246
1772094008565165600,6.86616552734375,0.1800111147135496,0.09301993674188852,0.09212824859917164
1772094008575115500,6.876115478515625,0.12166121707558632,0.09119009096622467,0.16427447026893496
1772094008585064400,6.886064453125,0.010234978288412093,0.10380918791219591,0.18395503003373742
1772094008595013400,6.896013427734375,-0.053632805988192554,0.06825988175570964,0.10965279937386511
1772094008604962300,6.90596240234375,-0.1529191096484661,0.047832595276832576,0.03981280881986022
1772094008614911200,6.9159111328125,-0.23167115932404994,0.027292934464663264,-0.013393661515042185
1772094008624860400,6.9258603515625,-0.10754968961477279,0.02909355414584279,-0.05065291339457035
1772094008634809600,6.9358095703125,-0.007439794611930847,0.04523892552182078,-0.01951229052580893
1772094008644759300,6.94575927734375,0.04528875601291656,0.007525573199242353,-0.042513226884976024
1772094008654708700,6.955708740234375,0.1357651457518339,-0.05403291122168302,-0.12805858996249733
1772094008664657700,6.96565771484375,0.18976210887730122,-0.09355959657654166,-0.1368966339997947
1772094008674606600,6.975606689453125,0.223817523214221,-0.1043336501777172,-0.09549714051038026
1772094008684555500,6.985555419921875,0.21959376803934572,-0.0734239865206182,-0.07830196782052516
1772094008694504400,6.99550439453125,0.1522352190375328,-0.022975655787438154,-0.03277976837791502
1772094008704453400,7.005453369140625,0.12888883024156092,-0.01770999034419656,0.0016683716036379336
1772094008714403600,7.015403564453125,0.10510814168155193,-0.002758358797430992,0.005720715734362602
1772094008724352500,7.0253525390625,0.08201426634192466,0.004634235671907663,0.014838745756819843
1772094008734301400,7.035301513671875,0.04469312820732593,0.04060965828597545,0.028563977313786744
1772094008744250600,7.045250732421875,0.06435702909827232,0.0543345245167613,0.00919248349815607
1772094008754199600,7.055199462890625,0.09918284328579902,0.06926131388321519,0.024835823636129496
1772094008764148500,7.0651484375,0.03823533037006855,0.05007409059330821,0.03308554639145732
1772094008774098700,7.0750986328125,0.02295066747665405,0.05179638434126973,0.030254049292579292
1772094008784047600,7.085047607421875,0.023381460109353065,0.06478007681593298,0.04671623153276741
1772094008793996500,7.09499658203125,0.030634207716584205,0.08461407357677816,0.007672872715443372
1772094008803945500,7.104945556640625,0.05370528670251369,0.07088058564811944,-0.008196239002421498
1772094008813894400,7.114894287109375,0.08486907125115394,0.052245589413493866,-0.012094853876158594
1772094008823843600,7.124843505859375,0.11477145756185055,0.02922404865771532,-0.031188845924660563
1772094008833793500,7.13479345703125,0.15127835670411585,0.0031762919485569,-0.053404404059797524
1772094008843742700,7.14474267578125,0.1260714347332716,0.006809533884376287,-0.027606457393243907
1772094008853691600,7.154691650390625,0.021802081963419914,0.039139585733413695,-0.019425196764245627
1772094008863640600,7.164640625,-0.06101999363005161,0.06140051738023757,-0.026995266692340373
1772094008873589500,7.174589599609375,0.004525952991843224,0.09597571780756116,-0.036262349796667696
1772094008883538400,7.184538330078125,0.04050619791150093,0.1069232282795012,-0.04227927199862897
1772094008893487400,7.1944873046875,0.012640285864472389,0.07962707894444465,-0.0053445758983492846
1772094008903437600,7.2044375,0.011551321583986281,0.0409225236274302,-0.032591040872782466
1772094008913386500,7.214386474609375,-0.007587094128131866,0.04522767347544431,-0.02546542677655816
1772094008923335700,7.224335693359375,-0.057522214642167085,0.05839812069386244,-0.007506357042118906
1772094008933284600,7.23428466796875,-0.03582710018455982,0.08325988248884678,0.00403035149462521
1772094008943233500,7.244233642578125,0.003739771050214767,0.08017784469500183,0.0088355598192662
1772094008953182500,7.254182373046875,0.03906184432208538,0.049722062285244464,0.036694092277437446
1772094008963131400,7.26413134765625,0.07377016960978508,0.025046032320708036,0.05650660785883665
1772094008973081600,7.27408154296875,0.14545768772661685,0.038970951168239114,0.019794979924708602
1772094008983030500,7.284030517578125,0.17027181098759173,0.03655658350288868,0.02160999345742166
1772094008992979500,7.2939794921875,0.14062135361135006,0.021258330475538968,0.040104923634231085
1772094009002928400,7.303928466796875,0.09132219291329384,0.012071838326752186,0.008761544734984635
1772094009012877600,7.313877685546875,0.07978256176710129,0.03358458195477724,-0.021656901339069008
1772094009022826500,7.323826416015625,0.07326163556575775,0.061608022651076316,-0.010635668043792247
1772094009032775700,7.333775634765625,0.04333469933569431,0.08004851922690868,0.020970453444868326
1772094009042725600,7.3437255859375,0.050665772876143454,0.07521729967817664,0.008854556780681014
1772094009052674600,7.353674560546875,0.1301356154322624,0.08049524008110165,-0.012573211977630852
1772094009062623500,7.36362353515625,0.1559212140738964,0.06501680818125605,-0.03079005586542189
1772094009072572400,7.373572509765625,0.13906710990667343,0.03824775146022439,-0.01276281626559794
1772094009082521300,7.383521240234375,0.13503683147728443,0.05308130958527326,-0.0010490706615149973
1772094009092470500,7.393470458984375,0.13803250616192816,0.07762801408171653,0.002786854239553213
1772094009102420500,7.40342041015625,0.11000585059523582,0.07242196987122297,0.0076162471573799845
1772094009112369700,7.41336962890625,0.1363531747728586,0.08949000905007123,0.012105594465881586
1772094009122318600,7.423318603515625,0.2027332341313362,0.10618570778518914,0.028304011203348634
1772094009132267500,7.433267578125,0.24643092156052587,0.10933496559634805,0.022091785624995825
1772094009142216400,7.443216552734375,0.2316547927111387,0.10762706569992005,0.034012305847555394
1772094009152165600,7.45316552734375,0.21304361574351785,0.11631583745963871,0.017180705773085354
1772094009162114600,7.463114501953125,0.15620295362472533,0.12752645584717393,-0.040768794370442625
1772094009172064500,7.473064453125,0.04764730183780193,0.15002170770652593,-0.06487250433973968
1772094009182013400,7.483013427734375,-0.07816518969833851,0.16529373031407593,-0.07287037122584879
1772094009191962400,7.49296240234375,-0.16769173136651516,0.1459468594830483,-0.005319660652801394
1772094009201911600,7.50291162109375,-0.19760697715878486,0.12159655434153974,0.014119710767269134
1772094009211860700,7.51286083984375,-0.15689619658589363,0.12082717740423976,-0.020779753178358076
1772094009221809700,7.5228095703125,-0.06198737735748291,0.061337242885679,-0.06600238515250384
1772094009231758600,7.532758544921875,-0.028650924944877622,0.03374532547444105,-0.050321270287409424
1772094009241708500,7.54270849609375,0.03820610427558422,-0.04188683861494064,-0.05175400650426745
1772094009251657500,7.552657470703125,0.03251695272326469,-0.038385844756662846,-0.05907791965156793
1772094009261606400,7.5626064453125,-0.04778992517888546,0.025359482184052467,-0.020474925012886523
1772094009271555300,7.572555419921875,0.011792144602537155,0.014729732424393295,0.058550461711362
1772094009281504500,7.58250439453125,-0.03331891675591469,0.08010638689398765,0.07030315108634531
1772094009291453700,7.59245361328125,-0.08900456362068652,0.13166421323902905,0.06657507047392427
1772094009301403600,7.602403564453125,-0.04050444434583187,0.06506934208609164,0.06289718567878008
1772094009311352600,7.6123525390625,-0.008350479716062545,0.06350004694275557,0.02694529007077217
1772094009321301500,7.622301513671875,0.0475485176384449,0.08245726086907089,-0.002285992045328021
1772094009331250400,7.63225048828125,0.10805354748368262,0.08228796871677041,-0.0011968085691332817
1772094009341199600,7.64219970703125,0.12763327722251414,0.06766783414669335,-0.0034576661732047794
1772094009351148500,7.6521484375,0.1800643062055111,0.04460537685863673,-0.002578691381588578
1772094009361097500,7.662097412109375,0.1852355713635683,0.036095834123343225,0.019881416099146006
1772094009371047400,7.67204736328125,0.1348807641327381,0.068543155676499,0.055124286654964084
1772094009380996400,7.681996337890625,0.15233283419311044,0.09479425293803215,0.06247077696025371
1772094009390945500,7.691945556640625,0.13052958318591118,0.12699607529751955,0.10187515110969543
1772094009400894700,7.701894775390625,0.1153565639734268,0.1407270790081471,0.02593494398444891
1772094009410843600,7.71184375,0.12317220616042614,0.15344802889339626,-0.02846409713588655
