time,seconds_elapsed,z,y,x
1772094001779845400,0.080845458984375,0.051083192229270935,-0.062254708260297775,0.05167067423462868
1772094001789794600,0.090794677734375,0.04028886929154396,-0.04260457307100296,0.06596092879772186
1772094001799743700,0.10074365234375,0.03403704985976219,-0.012078745290637016,0.08248964697122574
1772094001809692700,0.110692626953125,0.02320624142885208,0.013072947040200233,0.09470370411872864
1772094001819641600,0.1206416015625,0.014672641642391682,0.024665091186761856,0.09544265270233154
1772094001829591600,0.130591552734375,0.012094967998564243,0.016283325850963593,0.09028065204620361
1772094001839540500,0.14054052734375,0.009633271023631096,0.0036721881479024887,0.0826069563627243
1772094001849489400,0.150489501953125,0.015078635886311531,-0.00548242824152112,0.06482849270105362
1772094001859438600,0.1604384765625,0.016184739768505096,-0.018199888989329338,0.055851906538009644
1772094001869387500,0.170387451171875,0.015028928406536579,-0.021714728325605392,0.04202290624380112
1772094001879336700,0.180336669921875,0.01655959151685238,-0.019999705255031586,0.029250942170619965
1772094001889285600,0.19028564453125,0.015595793724060059,-0.02015363611280918,0.024243667721748352
1772094001899235600,0.200235595703125,0.013546761125326157,-0.018315305933356285,0.02529163286089897
1772094001909184500,0.2101845703125,0.018004627898335457,-0.00748396385461092,0.025493502616882324
1772094001919133400,0.220133544921875,0.020586896687746048,0.009986083023250103,0.03379940614104271
1772094001929082600,0.23008251953125,0.030437398701906204,0.016539055854082108,0.04139846935868263
1772094001939031600,0.240031494140625,0.04064778983592987,0.012167730368673801,0.047557681798934937
1772094001948980500,0.24998046875,0.05989578366279602,0.0011638151481747627,0.05415699630975723
1772094001958929700,0.2599296875,0.07028375566005707,-0.0018896395340561867,0.05593111738562584
1772094001968878600,0.269878662109375,0.08204054832458496,0.005995980463922024,0.0563548281788826
1772094001978828500,0.27982861328125,0.07897104322910309,0.010650246404111385,0.04648960381746292
1772094001988777700,0.28977783203125,0.08596476912498474,0.021254155784845352,0.04006526246666908
1772094001998726700,0.2997265625,0.08110827952623367,0.017658747732639313,0.035016901791095734
1772094002008675600,0.309675537109375,0.06812270730733871,0.0020193341188132763,0.029666077345609665
1772094002018624500,0.31962451171875,0.05803067609667778,-0.02038993313908577,0.02273423597216606
1772094002028573400,0.329573486328125,0.048973266035318375,-0.0342428982257843,0.025417905300855637
1772094002038522400,0.3395224609375,0.03571820259094238,-0.056407950818538666,0.026423348113894463
1772094002048472600,0.34947265625,0.029360171407461166,-0.04314674064517021,0.036983050405979156
1772094002058421500,0.35942138671875,0.011069461703300476,-0.008054687641561031,0.04317867010831833
1772094002068370700,0.36937060546875,-0.006298077292740345,0.01869596540927887,0.04222925752401352
1772094002078319600,0.379319580078125,-0.014852514490485191,0.02407876029610634,0.035643670707941055
1772094002088268500,0.3892685546875,-0.015829894691705704,0.0037034484557807446,0.02899668738245964
1772094002098217500,0.399217529296875,-0.01664389669895172,-0.00967974029481411,0.02352968603372574
1772094002108166400,0.40916650390625,-0.017377065494656563,-0.014276621863245964,0.02487298473715782
1772094002118116600,0.41911669921875,-0.01371254213154316,-0.01259077899158001,0.024518368765711784
1772094002128065500,0.4290654296875,-0.007354245521128178,-0.013533538207411766,0.028672900050878525
1772094002138014500,0.439014404296875,-0.0013104809913784266,-0.010628357529640198,0.029946040362119675
1772094002147963600,0.448963623046875,0.007793269120156765,-0.003125167451798916,0.03179986774921417
1772094002157912600,0.45891259765625,0.017029158771038055,-0.0014481013640761375,0.0322357639670372
1772094002167861500,0.468861572265625,0.01933785155415535,0.004960795398801565,0.033754296600818634
1772094002177810400,0.478810546875,0.019750060513615608,0.0034890060778707266,0.027564918622374535
1772094002187760600,0.4887607421875,0.01591990329325199,-0.00019308039918541908,0.01966065540909767
1772094002197709600,0.49870947265625,0.01693841442465782,0.006459384690970182,0.006874507293105125
1772094002207658500,0.508658447265625,0.01250904705375433,0.01133057288825512,-0.0072114840149879456
1772094002217607400,0.518607421875,0.008490820415318012,0.006677105091512203,-0.024477750062942505
1772094002227556400,0.528556396484375,0.00938484352082014,-0.0001299344003200531,-0.03515276312828064
1772094002237505500,0.538505615234375,0.011118635535240173,-0.004300362430512905,-0.044473543763160706
1772094002247454700,0.548454833984375,0.01730729080736637,-0.0071187857538461685,-0.0529668964445591
1772094002257404700,0.55840478515625,0.01668824627995491,-0.006607932969927788,-0.05893045663833618
1772094002267353600,0.568353515625,0.018834488466382027,0.0028271139599382877,-0.05215936899185181
1772094002277302500,0.578302490234375,0.015076332725584507,0.018097665160894394,-0.046996183693408966
1772094002287251500,0.58825146484375,0.004094522446393967,0.026291146874427795,-0.04589176923036575
1772094002297200400,0.598200439453125,0.003171156160533428,0.01811191998422146,-0.05150963366031647
1772094002307149600,0.608149658203125,0.004212452098727226,0.0015459926798939705,-0.05241164565086365
1772094002317098500,0.618098388671875,-0.0009168449323624372,0.019951239228248596,-0.055404167622327805
1772094002327048400,0.62804833984375,-0.011738067492842674,0.07248581945896149,-0.05416233465075493
1772094002336997600,0.63799755859375,-0.022278178483247757,0.1047523096203804,-0.04245717078447342
1772094002346946600,0.647946533203125,-0.027741918340325356,0.11837251484394073,-0.027744270861148834
1772094002356895500,0.6578955078125,-0.020209604874253273,0.10106749087572098,-0.01445789821445942
1772094002366844700,0.6678447265625,0.006773010361939669,0.06424050033092499,-0.01543235033750534
1772094002376793600,0.677793701171875,0.03277318552136421,0.028928320854902267,-0.014024868607521057
1772094002386742500,0.687742431640625,0.062400855123996735,0.023060575127601624,0.0002928171306848526
1772094002396691500,0.69769140625,0.07555536180734634,0.04808090627193451,0.018629873171448708
1772094002406641400,0.707641357421875,0.06807028502225876,0.055939096957445145,0.029860956594347954
1772094002416590300,0.71759033203125,0.05058835446834564,0.042206771671772,0.03393671289086342
1772094002426539500,0.72753955078125,0.037376146763563156,0.03357413411140442,0.03052147477865219
1772094002436488700,0.73748876953125,0.01859387755393982,0.03951701149344444,0.03424321487545967
1772094002446437600,0.747437744140625,-0.012217029929161072,0.04864472895860672,0.04662025347352028
1772094002456386600,0.757386474609375,-0.02559834159910679,0.08797167986631393,0.06107242405414581
1772094002466335500,0.76733544921875,-0.006661669351160526,0.1794334203004837,0.09519816935062408
1772094002476285400,0.777285400390625,0.03202575072646141,0.3167916238307953,0.12778255343437195
1772094002486234400,0.787234375,0.03891774266958237,0.3764459192752838,0.1603247970342636
1772094002496183600,0.79718359375,0.017078323289752007,0.3168334364891052,0.16590982675552368
1772094002506132500,0.807132568359375,0.023076029494404793,0.2719908654689789,0.16535615921020508
1772094002516081700,0.81708154296875,0.060014836490154266,0.2521348297595978,0.1521674245595932
1772094002526030600,0.827030517578125,0.09609374403953552,0.22394181787967682,0.12455765157938004
1772094002535979500,0.8369794921875,0.11999640613794327,0.19899433851242065,0.10906365513801575
1772094002545929500,0.846929443359375,0.11918360739946365,0.19960260391235352,0.1077890694141388
1772094002555878700,0.856878662109375,0.07689232379198074,0.23557902872562408,0.13115793466567993
1772094002565827600,0.86682763671875,0.031028155237436295,0.252829909324646,0.16117416322231293
1772094002575776500,0.876776611328125,0.016142327338457108,0.2968052327632904,0.19365181028842926
1772094002585725400,0.886725341796875,0.040136076509952545,0.37154683470726013,0.21442925930023193
1772094002595674600,0.896674560546875,0.07070020586252213,0.4186854660511017,0.22168651223182678
1772094002605623600,0.90662353515625,0.1061018705368042,0.4323456287384033,0.2105206698179245
1772094002615572500,0.916572509765625,0.13644689321517944,0.42701902985572815,0.1746203452348709
1772094002625522700,0.926522705078125,0.14759089052677155,0.3769039213657379,0.11142779141664505
1772094002635471600,0.9364716796875,0.12255586683750153,0.3084350526332855,0.048340268433094025
1772094002645420300,0.946420166015625,0.06144591048359871,0.2408522516489029,0.002532302401959896
1772094002655369200,0.956369140625,0.0065503716468811035,0.177964448928833,-0.029579870402812958
1772094002665318100,0.966318115234375,-0.041041918098926544,0.12891143560409546,-0.05522877722978592
1772094002675267300,0.976267333984375,-0.0626845583319664,0.11352872103452682,-0.08133437484502792
1772094002685216300,0.98621630859375,-0.05924854427576065,0.1260775327682495,-0.09619827568531036
1772094002695166500,0.99616650390625,0.00027845194563269615,0.2517291009426117,-0.09510095417499542
1772094002705115400,1.006115478515625,0.017983945086598396,0.31381404399871826,-0.08184107393026352
1772094002715064300,1.016064208984375,0.013350164517760277,0.2889400124549866,-0.0670565813779831
1772094002725013200,1.02601318359375,-0.019864514470100403,0.2426273673772812,-0.05592430382966995
1772094002734962200,1.035962158203125,-0.06550821661949158,0.11869944632053375,-0.07160945236682892
1772094002744911000,1.0459111328125,-0.09538675099611282,0.011380178853869438,-0.13096705079078674
1772094002754860300,1.0558603515625,-0.07607435435056686,-0.006909206043928862,-0.16696438193321228
1772094002764810200,1.065810302734375,-0.0718923956155777,0.0003172815777361393,-0.1780354082584381
1772094002774759200,1.07575927734375,-0.06392655521631241,-0.015920260921120644,-0.18747802078723907
1772094002784708400,1.085708251953125,-0.055549584329128265,-0.0009524957276880741,-0.1791231483221054
1772094002794657300,1.0956572265625,-0.05926244333386421,0.01708061806857586,-0.14863798022270203
1772094002804606200,1.105606201171875,-0.05731939896941185,0.0049581751227378845,-0.1413973718881607
1772094002814555400,1.115555419921875,-0.05620400607585907,-0.0030542383901774883,-0.14827175438404083
1772094002824504300,1.12550439453125,-0.06576874852180481,-0.014679469168186188,-0.16898475587368011
1772094002834454300,1.135454345703125,-0.06447805464267731,-0.071089006960392,-0.20671620965003967
1772094002844403200,1.1454033203125,-0.04698801040649414,-0.12275566160678864,-0.25987955927848816
1772094002854352100,1.15535205078125,-0.0308606568723917,-0.17681103944778442,-0.2940455973148346
1772094002864301300,1.16530126953125,-0.01786736026406288,-0.23310254514217377,-0.2983311712741852
1772094002874250200,1.175250244140625,0.00003869738429784775,-0.24836038053035736,-0.28258565068244934
1772094002884199400,1.185199462890625,0.00767664285376668,-0.20757779479026794,-0.23998920619487762
1772094002894148400,1.1951484375,0.01167277805507183,-0.14502549171447754,-0.1622197926044464
1772094002904097300,1.20509716796875,0.022693203762173653,-0.05812068283557892,-0.0664764940738678
1772094002914047200,1.215047119140625,0.022680548951029778,0.01886565238237381,0.019458867609500885
1772094002923996200,1.22499609375,0.024110667407512665,0.05851985514163971,0.08702033758163452
1772094002933945000,1.234945068359375,0.04967529699206352,0.06031813099980354,0.12581944465637207
1772094002943894300,1.244894287109375,0.06921437382698059,0.04006132856011391,0.13564065098762512
1772094002953843500,1.254843505859375,0.08551406115293503,0.01987992413341999,0.12678806483745575
1772094002963792400,1.26479248046875,0.08960840106010437,-0.002569192089140415,0.11315694451332092
1772094002973741300,1.2747412109375,0.09425579011440277,-0.02665342204272747,0.08935294300317764
1772094002983691300,1.284691162109375,0.09721163660287857,-0.04890892654657364,0.06936565786600113
1772094002993640200,1.29464013671875,0.10507217049598694,-0.061053331941366196,0.0531337633728981
1772094003003589400,1.30458935546875,0.098556749522686,-0.05627988278865814,0.03174484893679619
1772094003013538300,1.314538330078125,0.0801682248711586,-0.049426209181547165,0.008492550812661648
1772094003023487200,1.3244873046875,0.06924420595169067,-0.050155382603406906,-0.015211179852485657
1772094003033436400,1.3344365234375,0.0672357976436615,-0.059425365179777145,-0.037450145930051804
1772094003043385300,1.34438525390625,0.06243571639060974,-0.052678778767585754,-0.050739586353302
1772094003053335300,1.354335205078125,0.053666941821575165,-0.0472429096698761,-0.05165110528469086
1772094003063284500,1.364284423828125,0.04022383689880371,-0.03857245668768883,-0.04452475160360336
1772094003073233400,1.3742333984375,0.026255624368786812,-0.03312738239765167,-0.044929515570402145
1772094003083182300,1.384182373046875,0.01324501819908619,-0.02691289782524109,-0.04759640246629715
1772094003093131300,1.39413134765625,-0.006161044351756573,-0.02710357867181301,-0.06051534414291382
1772094003103080200,1.404080078125,-0.011878052726387978,-0.04720831662416458,-0.08508779853582382
1772094003113029000,1.414029052734375,-0.00684146024286747,-0.07118357717990875,-0.10899846255779266
1772094003122978300,1.423978271484375,-0.008362125605344772,-0.07845587283372879,-0.11203606426715851
1772094003132928300,1.43392822265625,-0.015158241614699364,-0.08268678188323975,-0.09960444271564484
1772094003142877400,1.44387744140625,-0.027335811406373978,-0.06056443601846695,-0.06708644330501556
1772094003152826400,1.453826416015625,-0.03713308274745941,-0.03341298550367355,-0.03207821026444435
1772094003162775300,1.463775390625,-0.03940129652619362,-0.01034495048224926,0.0030576714780181646
1772094003172724200,1.47372412109375,-0.030704133212566376,0.0031637519132345915,0.024462848901748657
1772094003182673200,1.483673095703125,-0.022876836359500885,0.004477489273995161,0.030902106314897537
1772094003192622000,1.4936220703125,-0.008195411413908005,-0.007303396239876747,0.03549613058567047
1772094003202572300,1.503572265625,0.00466286251321435,-0.019935302436351776,0.03693849965929985
1772094003212521200,1.513521240234375,0.015108633786439896,-0.03312522545456886,0.04120240360498428
1772094003222470400,1.523470458984375,0.019915105774998665,-0.0422753170132637,0.03885669261217117
1772094003232419300,1.53341943359375,0.011967983096837997,-0.03691372275352478,0.02925264462828636
1772094003242368300,1.5433681640625,0.011365576647222042,-0.04053721949458122,0.01666973903775215
1772094003252317200,1.553317138671875,0.0151175856590271,-0.041655637323856354,0.006295176688581705
1772094003262266400,1.563266357421875,0.016961557790637016,-0.03146451711654663,0.00802197027951479
1772094003272216300,1.57321630859375,0.019473817199468613,-0.024616213515400887,0.00436397222802043
1772094003282165200,1.583165283203125,0.023620624095201492,-0.036580994725227356,0.004376755561679602
1772094003292114200,1.5931142578125,0.025459634140133858,-0.0317164845764637,0.011102422140538692
1772094003302063000,1.60306298828125,0.020166601985692978,0.0019895497243851423,0.018021048977971077
1772094003312012300,1.61301220703125,0.015549086965620518,0.031602893024683,0.01720377802848816
1772094003321961500,1.62296142578125,0.011698954738676548,0.035190436989068985,0.0070366268046200275
1772094003331910400,1.632910400390625,0.01342836208641529,0.009745404124259949,-0.006055932492017746
1772094003341859300,1.642859375,0.01594425179064274,0.002682435093447566,-0.01399721298366785
1772094003351809300,1.652809326171875,0.015592958778142929,0.00957825593650341,-0.023809196427464485
1772094003361758200,1.66275830078125,0.01975574716925621,0.007186471484601498,-0.031694814562797546
1772094003371707100,1.67270703125,0.02224581129848957,-0.008512752130627632,-0.03436000645160675
1772094003381656300,1.68265625,0.02158801071345806,-0.020983535796403885,-0.035052161663770676
1772094003391605500,1.69260546875,0.015080013312399387,-0.01658986695110798,-0.024156570434570312
1772094003401554400,1.702554443359375,0.017921872437000275,0.006530897691845894,-0.012121214531362057
1772094003411503400,1.71250341796875,0.01553359068930149,0.02876090630888939,-0.0065992167219519615
1772094003421453300,1.722453369140625,0.012435004115104675,0.00706147076562047,-0.004465226083993912
1772094003431402200,1.73240234375,0.017791273072361946,-0.015171242877840996,0.004260573536157608
1772094003441351200,1.74235107421875,0.014880970120429993,-0.01892789825797081,0.009381832554936409
1772094003451300400,1.75230029296875,0.007215405348688364,-0.021349160000681877,0.016563866287469864
1772094003461249300,1.762249267578125,0.0009404649026691914,-0.01600446179509163,0.02194984257221222
1772094003471198200,1.7721982421875,-0.0048958249390125275,-0.011343706399202347,0.02278057485818863
1772094003481147400,1.7821474609375,0.0004954780451953411,-0.013496339321136475,0.01983831636607647
1772094003491097000,1.79209716796875,0.003950221464037895,-0.021560460329055786,0.019462138414382935
1772094003501046300,1.80204638671875,0.006513248197734356,-0.02585347555577755,0.019899163395166397
1772094003510995500,1.811995361328125,0.01115197129547596,-0.028879137709736824,0.026238378137350082
1772094003520944400,1.8219443359375,0.010678460821509361,-0.025795727968215942,0.027397118508815765
1772094003530893300,1.831893310546875,0.01403968408703804,-0.022848015651106834,0.028552325442433357
1772094003540842200,1.84184228515625,0.012154433876276016,-0.02257770486176014,0.03411993011832237
1772094003550791200,1.851791259765625,0.004009273834526539,0.00046411994844675064,0.04312669485807419
1772094003560741000,1.8617412109375,0.0018672938458621502,0.023679427802562714,0.04848870635032654
1772094003570690300,1.871690185546875,0.004426330793648958,0.017557140439748764,0.03957536071538925
1772094003580639500,1.881639404296875,0.006389612797647715,-0.0008884463459253311,0.034172870218753815
1772094003590588400,1.89158837890625,0.004176639951765537,-0.013345813378691673,0.021564364433288574
1772094003600537300,1.901537353515625,-0.00236701313406229,-0.014079248532652855,0.00829756073653698
1772094003610486300,1.911486328125,-0.007755962200462818,-0.018621552735567093,-0.006982418242841959
1772094003620435200,1.921435302734375,-0.01765386573970318,-0.028678447008132935,-0.013381995260715485
1772094003630385400,1.931385498046875,-0.02231001853942871,-0.03232581540942192,-0.02275700680911541
1772094003640334300,1.941334228515625,-0.033583711832761765,-0.030493825674057007,-0.027741912752389908
1772094003650282500,1.951282470703125,-0.03921910375356674,-0.027908485382795334,-0.02356559783220291
1772094003660231700,1.961231689453125,-0.039116837084293365,-0.032427337020635605,-0.02758590504527092
1772094003670180600,1.9711806640625,-0.030261220410466194,-0.04012059420347214,-0.0278996080160141
1772094003680129500,1.981129638671875,-0.017936911433935165,-0.03797515109181404,-0.019587351009249687
1772094003690078500,1.991078369140625,-0.009696800261735916,-0.03960345685482025,-0.012395394034683704
1772094003700028700,2.001028564453125,-0.007940712384879589,-0.04137765243649483,-0.014938979409635067
1772094003709977600,2.0109775390625,-0.01840103045105934,-0.03933551907539368,-0.008793521672487259
1772094003719926500,2.020926513671875,-0.012443006038665771,-0.03261237218976021,-0.017480753362178802
1772094003729875500,2.03087548828125,-0.009550495073199272,-0.02609703317284584,-0.01731385663151741
1772094003739824600,2.04082470703125,-0.0009119994938373566,-0.0260365791618824,-0.008272689767181873
1772094003749773600,2.050773681640625,0.009381625801324844,-0.024763010442256927,-0.0019371211528778076
1772094003759722500,2.060722412109375,0.014719932340085506,-0.01562943309545517,0.000834696926176548
1772094003769671400,2.07067138671875,0.017647836357355118,-0.010860288515686989,0.0012347949668765068
1772094003779621600,2.08062158203125,0.018648652359843254,-0.01146935485303402,-0.0014275670982897282
1772094003789570600,2.090570556640625,0.01522785983979702,-0.019000491127371788,0.005239599384367466
1772094003799519500,2.10051953125,0.013288279995322227,-0.0037565561942756176,0.01936900056898594
1772094003809468400,2.110468505859375,0.011205285787582397,0.004896635189652443,0.0329744853079319
1772094003819417600,2.12041748046875,0.014395218342542648,0.003568783402442932,0.0409192256629467
1772094003829366500,2.130366455078125,0.01862294040620327,0.008697321638464928,0.0375773087143898
1772094003839316500,2.14031640625,0.020746545866131783,0.009511982090771198,0.03473305702209473
1772094003849265700,2.150265625,0.018779627978801727,0.008452508598566055,0.022940173745155334
1772094003859214600,2.160214599609375,0.012333445250988007,0.0018894148524850607,0.00910158921033144
1772094003869163500,2.17016357421875,0.008987689390778542,-0.013317723758518696,0.0000981474295258522
1772094003879112400,2.180112548828125,0.006880330387502909,-0.023766905069351196,-0.0063168746419250965
1772094003889061400,2.190061279296875,0.0063315508887171745,-0.018473351374268532,-0.0018751351162791252
1772094003899010600,2.200010498046875,0.0013008392415940762,-0.01768612116575241,-0.004635235294699669
1772094003908960500,2.20996044921875,-0.002240627072751522,-0.013722751289606094,-0.0017747418023645878
1772094003918909400,2.219909423828125,-0.0035479727666825056,-0.0005659372545778751,0.005463463719934225
1772094003928858600,2.229858642578125,-0.004712333437055349,0.0004900493659079075,0.01228745561093092
1772094003938807600,2.2398076171875,-0.0043453495018184185,-0.00041036540642380714,0.01425020582973957
1772094003948756500,2.249756591796875,-0.00618471996858716,0.0005567632615566254,0.013069633394479752
1772094003958705400,2.259705322265625,-0.0025175469927489758,0.0009604981169104576,0.003760554362088442
1772094003968654600,2.269654541015625,0.000684710219502449,-0.004734908230602741,-0.013066601008176804
1772094003978604500,2.2796044921875,0.002350251190364361,-0.017845649272203445,-0.030341461300849915
1772094003988553500,2.289553466796875,0.002464667893946171,-0.0274043045938015,-0.04340304434299469
1772094003998502400,2.29950244140625,0.00158688984811306,-0.02176186628639698,-0.05145884305238724
1772094004008451600,2.30945166015625,-0.0020877851638942957,-0.02001570537686348,-0.0569147951900959
1772094004018400500,2.319400390625,-0.0022315960377454758,-0.022748107090592384,-0.05684182420372963
1772094004028349700,2.329349609375,0.0009016599506139755,-0.025502970442175865,-0.05002927780151367
1772094004038298600,2.339298583984375,0.0021789120510220528,-0.012510206550359726,-0.03143109008669853
1772094004048248600,2.34924853515625,-0.00008421670645475388,0.043339647352695465,-0.012005891650915146
1772094004058197500,2.359197509765625,0.0030090445652604103,0.029124490916728973,0.00198076362721622
1772094004068146400,2.369146484375,0.006140193901956081,0.02507593110203743,0.010853921994566917
1772094004078095400,2.379095458984375,0.000470857135951519,0.02448364347219467,0.013145837932825089
1772094004088044500,2.38904443359375,-0.0035824747756123543,0.011637724004685879,0.011023277416825294
1772094004097993700,2.39899365234375,-0.004382754676043987,-0.00198434479534626,0.01180411595851183
1772094004107942700,2.408942626953125,0.0000035227276384830475,-0.0025235596112906933,0.014452834613621235
1772094004117892600,2.418892578125,0.010525671765208244,-0.0018465840257704258,0.018036916851997375
1772094004127841500,2.428841552734375,0.014780506491661072,0.0033636894077062607,0.03001142293214798
1772094004137790500,2.43879052734375,0.018519584089517593,0.006424460560083389,0.025534115731716156
1772094004147739600,2.44873974609375,0.015607464127242565,0.006817935034632683,0.017275579273700714
1772094004157688600,2.4586884765625,0.008807082660496235,0.006226180586963892,0.009059195406734943
1772094004167637500,2.468637451171875,0.0034477156586945057,0.010211646556854248,0.0008110296912491322
1772094004177586400,2.47858642578125,0.0056070066057145596,0.004192369524389505,-0.008575813844799995
1772094004187536400,2.488536376953125,0.01338341273367405,-0.0034838803112506866,-0.012933900579810143
1772094004197485600,2.498485595703125,0.02254255674779415,-0.008793424814939499,-0.017991775646805763
1772094004207434800,2.508434814453125,0.02582840994000435,-0.009356508031487465,-0.021151170134544373
1772094004217383700,2.5183837890625,0.026955727487802505,-0.006882430519908667,-0.020129583775997162
1772094004227332600,2.52833251953125,0.024653881788253784,-0.007774354424327612,-0.02619975432753563
1772094004237281500,2.538281494140625,0.022296717390418053,-0.005920261610299349,-0.03620152175426483
1772094004247230500,2.54823046875,0.017641225829720497,-0.00668534217402339,-0.05133422464132309
1772094004257180400,2.558180419921875,0.012253383174538612,-0.016464201733469963,-0.06342338025569916
1772094004267129300,2.56812939453125,0.01315186358988285,-0.023792771622538567,-0.06905385106801987
1772094004277078500,2.57807861328125,0.013735361397266388,-0.03096972405910492,-0.06605114042758942
1772094004287027700,2.58802783203125,0.012618277221918106,-0.02228330262005329,-0.058569591492414474
1772094004296976600,2.5979765625,0.00920809991657734,-0.009417837485671043,-0.04591531679034233
1772094004306925600,2.607925537109375,0.00715316366404295,0.005658143199980259,-0.030434537678956985
1772094004316875500,2.61787548828125,0.0014052633196115494,0.014763757586479187,-0.021381918340921402
1772094004326824400,2.627824462890625,0.0020410013385117054,0.025281818583607674,-0.018209917470812798
1772094004336773600,2.637773681640625,0.0025419415906071663,0.025755861774086952,-0.01142045482993126
1772094004346722600,2.64772265625,0.003534434363245964,0.019938906654715538,-0.011901170015335083
1772094004356671500,2.65767138671875,0.004948839079588652,0.01633325219154358,-0.01368255726993084
1772094004366620400,2.667620361328125,0.01416252925992012,0.008155358955264091,-0.020587261766195297
1772094004376569600,2.677569580078125,0.020278478041291237,-0.008785808458924294,-0.029106447473168373
1772094004386519600,2.68751953125,0.02529803104698658,-0.008905744180083275,-0.02980729006230831
1772094004396468700,2.69746875,0.017329853028059006,-0.0008555417880415916,-0.024185089394450188
1772094004406417700,2.707417724609375,0.015802189707756042,0.018456872552633286,-0.013320752419531345
1772094004416366600,2.71736669921875,0.018872281536459923,0.02828766591846943,-0.005788800306618214
1772094004426315500,2.7273154296875,0.023592639714479446,0.028047196567058563,-0.0038123205304145813
1772094004436264400,2.737264404296875,0.03052777796983719,0.018776999786496162,-0.01023879460990429
1772094004446213400,2.74721337890625,0.03492700308561325,0.011202260851860046,-0.020047398284077644
1772094004456163600,2.75716357421875,0.040380097925662994,0.009167872369289398,-0.025152677670121193
1772094004466112500,2.767112548828125,0.042043525725603104,0.015408197417855263,-0.03245072439312935
1772094004476061700,2.777061767578125,0.03872336074709892,0.015979178249835968,-0.044039204716682434
1772094004486010600,2.7870107421875,0.0372622087597847,0.010612748563289642,-0.05975082516670227
1772094004495959600,2.79695947265625,0.03198329359292984,-0.0018103653565049171,-0.0733470618724823
1772094004505908500,2.806908447265625,0.0300785880535841,-0.02238292060792446,-0.08959823101758957
1772094004515858700,2.816858642578125,0.03203921020030975,-0.031984150409698486,-0.10043063759803772
1772094004525807600,2.8268076171875,0.025999387726187706,-0.05176340043544769,-0.10139886289834976
1772094004535756500,2.836756591796875,0.029900120571255684,-0.03387974202632904,-0.080899178981781
1772094004545705500,2.84670556640625,0.026724446564912796,-0.00421228539198637,-0.04842587560415268
1772094004555654400,2.856654296875,0.022791756317019463,0.01844003051519394,-0.019882649183273315
1772094004565603600,2.866603515625,0.02095809578895569,0.02016759291291237,-0.0006024576723575592
1772094004575552500,2.876552490234375,0.026845011860132217,0.018947333097457886,0.01876724511384964
1772094004585502700,2.886502685546875,0.02637033723294735,0.02244545891880989,0.029787007719278336
1772094004595451600,2.89645166015625,0.02481931261718273,0.019715985283255577,0.03607552871108055
1772094004605400600,2.906400634765625,0.02716340497136116,0.01103252824395895,0.03660913556814194
1772094004615349500,2.916349609375,0.03119703009724617,0.0032955126371234655,0.030935272574424744
1772094004625298400,2.92629833984375,0.03093596361577511,-0.0033709430135786533,0.02163681574165821
1772094004635247400,2.936247314453125,0.026935631409287453,-0.0165149737149477,0.01059614960104227
1772094004645197600,2.946197509765625,0.028431307524442673,-0.010987725108861923,0.002486484358087182
1772094004655147300,2.956147216796875,0.027200661599636078,-0.000745472963899374,-0.007382658310234547
1772094004665096200,2.96609619140625,0.015017043799161911,0.004686290398240089,-0.02261030487716198
1772094004675045400,2.97604541015625,0.00791545957326889,0.0020865127444267273,-0.03427894413471222
1772094004684994300,2.985994384765625,0.006545946002006531,-0.00205800449475646,-0.03810154274106026
1772094004694943200,2.995943115234375,0.0018577170558273792,0.01061997376382351,-0.038578782230615616
1772094004704892400,3.005892333984375,-0.00015128497034311295,0.02617574855685234,-0.038692984730005264
1772094004714842400,3.01584228515625,0.003625876270234585,0.012300945818424225,-0.03733690083026886
1772094004724791300,3.025791259765625,0.005556763615459204,-0.0006119390018284321,-0.03908941149711609
1772094004734740200,3.035740234375,0.013518283143639565,-0.0028825500048696995,-0.026787206530570984
1772094004744689200,3.045689208984375,0.012870201840996742,0.0006279186345636845,-0.009295270778238773
1772094004754638000,3.05563818359375,0.006562504917383194,0.009145506657660007,0.003689237404614687
1772094004764587500,3.06558740234375,0.001251972746104002,0.022228850051760674,0.01303696446120739
1772094004774536400,3.075536376953125,-0.003466616151854396,0.023150036111474037,0.017984850332140923
1772094004784486400,3.085486328125,0.002144178841263056,0.026324918493628502,0.014651564881205559
1772094004794435300,3.095435302734375,0.0034786886535584927,0.021049195900559425,0.0025275233201682568
1772094004804384300,3.10538427734375,0.0043815369717776775,0.002958466298878193,-0.014083022251725197
1772094004814333200,3.115333251953125,0.00382653484120965,-0.012756846845149994,-0.023444034159183502
1772094004824282400,3.125282470703125,0.0017910436727106571,-0.00949379988014698,-0.017940733581781387
1772094004834231300,3.135231201171875,-0.00040792860090732574,0.0054308208636939526,-0.006976766046136618
1772094004844181200,3.14518115234375,0.0015160157345235348,0.014640063047409058,0.002974432660266757
1772094004854130200,3.155130126953125,0.008946501649916172,0.008102002553641796,0.0030260980129241943
1772094004864079400,3.165079345703125,0.010838201269507408,-0.003713033627718687,0.0015980536118149757
1772094004874028300,3.1750283203125,0.01313331350684166,-0.013031700626015663,-0.005574105307459831
1772094004883977200,3.184977294921875,0.011178594082593918,-0.01926679164171219,-0.005316870287060738
1772094004893926400,3.194926513671875,0.007954835891723633,-0.017175674438476562,-0.001750098541378975
1772094004903875300,3.204875244140625,0.0030604922212660313,-0.01000174693763256,0.008730205707252026
1772094004913825300,3.2148251953125,0.0032458482310175896,0.0015174904838204384,0.01853356696665287
1772094004923774200,3.224774169921875,0.0038430262356996536,0.005287494510412216,0.023449935019016266
1772094004933723100,3.23472314453125,0.009157896973192692,-0.0016963789239525795,0.022857116535305977
1772094004943672000,3.244672119140625,0.01186804473400116,-0.004109578672796488,0.016614288091659546
1772094004953621500,3.25462158203125,0.012099206447601318,-0.010582391172647476,0.010224033147096634
1772094004963570400,3.2645703125,0.021395038813352585,-0.03015601448714733,0.00024065468460321426
1772094004973520400,3.274520263671875,0.029454831033945084,-0.04128589853644371,-0.0034036152064800262
1772094004983469300,3.28446923828125,0.027861401438713074,-0.03546377271413803,-0.0016788961365818977
1772094004993418200,3.294418212890625,0.02302936278283596,-0.033264532685279846,0.004470076411962509
1772094005003367200,3.3043671875,0.019520096480846405,-0.03063381463289261,0.009221868589520454
1772094005013316400,3.31431640625,0.021097220480442047,-0.017979806289076805,0.013225930742919445
1772094005023265300,3.324265380859375,0.015894783660769463,-0.020563213154673576,0.021869679912924767
1772094005033214200,3.334214111328125,0.016011696308851242,-0.020848970860242844,0.026007166132330894
1772094005043164200,3.3441640625,0.026969287544488907,-0.020319897681474686,0.019835853949189186
1772094005053113300,3.35411328125,0.03472813963890076,-0.020060239359736443,0.01848563179373741
1772094005063062300,3.364062255859375,0.04486571252346039,-0.031393226236104965,0.015409648418426514
1772094005073011500,3.374011474609375,0.05832027643918991,-0.03516506031155586,0.004539424553513527
1772094005082960400,3.38396044921875,0.06708113849163055,-0.048147380352020264,-0.006062101572751999
1772094005092909300,3.393909423828125,0.06832669675350189,-0.05751638114452362,-0.015549080446362495
1772094005102859300,3.403859375,0.07354645431041718,-0.06685429066419601,-0.007237755227833986
1772094005112808200,3.41380810546875,0.08552934974431992,-0.05502932891249657,0.007688196841627359
1772094005122757000,3.423757080078125,0.08702458441257477,-0.06642621010541916,0.017199384048581123
1772094005132706300,3.433706298828125,0.08968774229288101,-0.0825527161359787,0.03036205843091011
1772094005142655500,3.443655517578125,0.09635341167449951,-0.06703057885169983,0.04523252695798874
1772094005152604400,3.4536044921875,0.09862694889307022,-0.05092911049723625,0.048808883875608444
1772094005162553300,3.46355322265625,0.09687435626983643,-0.04279063269495964,0.04988305643200874
1772094005172503300,3.47350341796875,0.09251848608255386,-0.0601738840341568,0.04530401900410652
1772094005182452200,3.4834521484375,0.07925596088171005,-0.0768444687128067,0.04877365753054619
1772094005192401200,3.493401123046875,0.06446236371994019,-0.08240941166877747,0.05189568176865578
1772094005202350300,3.503350341796875,0.05098174139857292,-0.06416552513837814,0.05872786045074463
1772094005212299300,3.51329931640625,0.03905877098441124,-0.054781075567007065,0.08033914864063263
1772094005222248200,3.523248291015625,0.0276488047093153,-0.056274279952049255,0.08955271542072296
1772094005232198100,3.5331982421875,0.025679396465420723,-0.05033516138792038,0.08970664441585541
1772094005242147300,3.543147216796875,0.02276921086013317,-0.044866472482681274,0.09365759789943695
1772094005252096300,3.55309619140625,0.020222961902618408,-0.05602511763572693,0.10550253838300705
1772094005262045400,3.56304541015625,0.017585765570402145,-0.06357714533805847,0.1156390905380249
1772094005271994400,3.572994384765625,0.005623646546155214,-0.04942511022090912,0.1327379047870636
1772094005281943300,3.582943359375,-0.0056096999906003475,-0.01360042579472065,0.1440962702035904
1772094005291893200,3.592893310546875,-0.0181577168405056,0.034504517912864685,0.16060121357440948
1772094005301842200,3.60284228515625,-0.03253059834241867,0.03705073520541191,0.16019324958324432
1772094005311791000,3.612791015625,-0.03826918080449104,0.031549710780382156,0.15100693702697754
1772094005321740300,3.622740234375,-0.036490313708782196,0.05023988336324692,0.12574417889118195
1772094005331689500,3.632689453125,-0.02911336161196232,0.04864225164055824,0.08484308421611786
1772094005341638400,3.642638427734375,-0.018175190314650536,0.027541134506464005,0.04283668100833893
1772094005351587300,3.65258740234375,-0.010588377714157104,0.025603152811527252,0.03844273462891579
1772094005361537300,3.662537353515625,0.013410424813628197,0.12073685973882675,0.07864122092723846
1772094005371486200,3.672486328125,0.13132454454898834,0.22097212076187134,0.10355828702449799
1772094005381435400,3.682435302734375,0.09969218075275421,0.10254549980163574,0.08038854598999023
1772094005391384300,3.69238427734375,0.04445582628250122,0.020935585722327232,0.06086011603474617
1772094005401333200,3.702333251953125,0.03232409060001373,0.05805676430463791,0.0646970346570015
1772094005411282200,3.7122822265625,0.02713758312165737,0.07959774136543274,0.09627600014209747
1772094005421232000,3.722232177734375,0.03221096843481064,0.10076431185007095,0.1365797072649002
1772094005431181300,3.732181396484375,0.04660721868276596,0.1234043762087822,0.17657159268856049
1772094005441130500,3.742130615234375,0.04565481096506119,0.13954231142997742,0.19922448694705963
1772094005451079400,3.752079345703125,0.030587976798415184,0.15694206953048706,0.2062046229839325
1772094005461028400,3.7620283203125,-0.0004701521247625351,0.17005224525928497,0.18699654936790466
1772094005470977300,3.771977294921875,-0.05599839240312576,0.16356292366981506,0.12582294642925262
1772094005480927200,3.78192724609375,-0.07730144262313843,0.09458804875612259,0.07455377280712128
1772094005490876200,3.791876220703125,-0.024678446352481842,0.044611964374780655,0.05540723353624344
1772094005500825300,3.801825439453125,0.05341465026140213,0.06811948865652084,0.03241922706365585
1772094005510774300,3.811774169921875,0.08407428860664368,-0.01079503633081913,-0.03980037569999695
1772094005520723500,3.821723388671875,0.06547924131155014,-0.07401541620492935,-0.12566548585891724
1772094005530672400,3.83167236328125,0.04423467442393303,-0.060478564351797104,-0.18367604911327362
1772094005540622300,3.841622314453125,0.038331352174282074,-0.04280717298388481,-0.22911497950553894
1772094005550571300,3.8515712890625,0.025761766359210014,-0.0732036903500557,-0.2802998721599579
1772094005560520200,3.861520263671875,0.015336099080741405,-0.10341775417327881,-0.31616702675819397
1772094005570469400,3.871469482421875,0.024694714695215225,-0.11288875341415405,-0.327934205532074
1772094005580418300,3.881418212890625,0.03395839408040047,-0.11874866485595703,-0.31240713596343994
1772094005590367200,3.8913671875,0.03477998077869415,-0.08714200556278229,-0.2817876935005188
1772094005600316200,3.901316162109375,0.02757449634373188,-0.043077513575553894,-0.24580644071102142
1772094005610266000,3.91126611328125,0.0149332694709301,-0.036775141954422,-0.2115241140127182
1772094005620215300,3.92121533203125,0.004332118667662144,-0.038304612040519714,-0.18404816091060638
1772094005630164500,3.93116455078125,0.004425062797963619,-0.02949993684887886,-0.16004109382629395
1772094005640113400,3.941113525390625,0.0016060336492955685,-0.025816552340984344,-0.13886812329292297
1772094005650062600,3.9510625,0.006500924006104469,-0.006074272561818361,-0.11720943450927734
1772094005660011500,3.961011474609375,0.004704713821411133,0.010416273027658463,-0.10199260711669922
1772094005669961700,3.970961669921875,0.0012766923755407333,-0.0012174793519079685,-0.10384377092123032
1772094005679910700,3.98091064453125,0.0028104837983846664,-0.009590426459908485,-0.10026578605175018
1772094005689859600,3.990859619140625,-0.005150503478944302,-0.02238238789141178,-0.08638698607683182
1772094005699808500,4.00080859375,-0.005241699051111937,-0.02528703585267067,-0.05443724989891052
1772094005709757400,4.01075732421875,-0.011144595220685005,-0.02546919509768486,-0.0036968430504202843
1772094005719706600,4.02070654296875,-0.020344993099570274,0.0025101928040385246,0.052184686064720154
1772094005729656600,4.030656494140625,-0.019910631701350212,0.04131884127855301,0.09199042618274689
1772094005739605800,4.040605712890625,-0.008509466424584389,0.040666647255420685,0.10084877908229828
1772094005749554700,4.0505546875,0.014275474473834038,0.020096391439437866,0.08742404729127884
1772094005759503600,4.060503662109375,0.021620815619826317,-0.006894979160279036,0.0601530447602272
1772094005769452500,4.07045263671875,0.018782952800393105,-0.025870533660054207,0.0275141429156065
1772094005779401500,4.0804013671875,0.011967861093580723,-0.031061647459864616,0.0003590080887079239
1772094005789350400,4.090350341796875,0.014493602328002453,-0.012452278286218643,-0.01970817707479
1772094005799300600,4.100300537109375,0.0042205508798360825,-0.006771767511963844,-0.04799142852425575
1772094005809249500,4.11024951171875,-0.014639156870543957,-0.015144480392336845,-0.07616261392831802
1772094005819198700,4.12019873046875,-0.03229841962456703,-0.00885376613587141,-0.09280111640691757
1772094005829147600,4.130147705078125,-0.056447431445121765,-0.005646521225571632,-0.10219807922840118
1772094005839096600,4.1400966796875,-0.0651075541973114,-0.016193563118577003,-0.11111646145582199
1772094005849045500,4.15004541015625,-0.08085376024246216,-0.01797335222363472,-0.1145964115858078
1772094005858995700,4.15999560546875,-0.0886463075876236,0.004638106562197208,-0.11405550688505173
1772094005868944600,4.169944580078125,-0.07809539139270782,-0.002383583690971136,-0.11752241104841232
1772094005878893600,4.1798935546875,-0.06532097607851028,-0.014941549859941006,-0.11697069555521011
1772094005888842500,4.189842529296875,-0.06145033612847328,-0.013136194087564945,-0.11038842797279358
1772094005898791400,4.19979150390625,-0.05869623273611069,-0.010922417044639587,-0.09965326637029648
1772094005908740600,4.20974072265625,-0.05905895680189133,-0.010113880969583988,-0.09039372205734253
1772094005918690600,4.219690673828125,-0.059421759098768234,-0.01371716894209385,-0.07615010440349579
1772094005928639700,4.2296396484375,-0.04987619072198868,-0.006739953998476267,-0.06079325079917908
1772094005938588700,4.239588623046875,-0.03430955111980438,0.011951100081205368,-0.04138314723968506
1772094005948537600,4.24953759765625,-0.03536948561668396,-0.03393250331282616,-0.03423336148262024
1772094005958486500,4.259486572265625,-0.03122125379741192,-0.023186394944787025,-0.0162382610142231
1772094005968435500,4.269435546875,-0.03616674244403839,0.0038643961306661367,-0.00039058923721313477
1772094005978385700,4.2793857421875,-0.04230789840221405,0.003252119990065694,0.011316518299281597
1772094005988334600,4.28933447265625,-0.04748881235718727,0.003123755566775799,0.022584086284041405
1772094005998283500,4.299283447265625,-0.046159468591213226,0.010789726860821247,0.029351841658353806
1772094006008232700,4.309232666015625,-0.044228944927453995,0.006750776898115873,0.0370774045586586
1772094006018181600,4.319181640625,-0.038499750196933746,0.008812515065073967,0.03589874133467674
1772094006028130600,4.329130615234375,-0.027596231549978256,-0.0007514292374253273,0.02937985584139824
1772094006038079500,4.33907958984375,-0.024661492556333542,-0.015560279600322247,0.013318855315446854
1772094006048029700,4.34902978515625,-0.023784246295690536,-0.02072414755821228,0.00016390439122915268
1772094006057978600,4.358978515625,-0.025015365332365036,-0.024966750293970108,-0.003495332319289446
1772094006067927600,4.368927490234375,-0.017608050256967545,-0.021266821771860123,0.009508084505796432
1772094006077876500,4.37887646484375,-0.014985350891947746,0.0040137204341590405,0.02588927373290062
1772094006087825700,4.38882568359375,-0.012729121372103691,0.027524106204509735,0.04153987392783165
1772094006097774600,4.398774658203125,-0.01616223156452179,0.03687695413827896,0.05289015918970108
1772094006107724500,4.408724609375,-0.02223636955022812,0.04027967527508736,0.0443938747048378
1772094006117673700,4.418673828125,-0.02881557121872902,0.028981592506170273,0.02539539337158203
1772094006127622700,4.42862255859375,-0.043238986283540726,0.010542131960391998,-0.00004498474299907684
1772094006137571600,4.438571533203125,-0.05275534838438034,-0.0061899637803435326,-0.023106679320335388
1772094006147520500,4.4485205078125,-0.06559497863054276,0.0026120503898710012,-0.026697684079408646
1772094006157469400,4.458469482421875,-0.07511517405509949,0.026299037039279938,-0.024258198216557503
1772094006167419600,4.468419677734375,-0.08607408404350281,0.044520117342472076,-0.016330234706401825
1772094006177368600,4.47836865234375,-0.08745317161083221,0.05035942792892456,-0.021756095811724663
1772094006187317500,4.4883173828125,-0.0687204971909523,0.02748660370707512,-0.021534252911806107
1772094006197266700,4.4982666015625,-0.04990418627858162,0.0018786643631756306,-0.02043268457055092
1772094006207215600,4.508215576171875,-0.028868941590189934,-0.016720853745937347,-0.017448347061872482
1772094006217164500,4.51816455078125,-0.016927843913435936,-0.018146224319934845,-0.004767619073390961
1772094006227113500,4.528113525390625,-0.010559426620602608,2.882443368434906e-7,0.018737439066171646
1772094006237063700,4.538063720703125,-0.011734460480511189,0.011391835287213326,0.045282039791345596
1772094006247012600,4.5480126953125,-0.015101227909326553,0.019572533667087555,0.060560859739780426
1772094006256961500,4.55796142578125,-0.01154271885752678,0.015188172459602356,0.0694725289940834
1772094006266910500,4.567910400390625,-0.007700042799115181,0.011746570467948914,0.06331716477870941
1772094006276859600,4.577859619140625,-0.007418416440486908,0.012078821659088135,0.047397878021001816
1772094006286808600,4.58780859375,-0.005279898177832365,0.0017122009303420782,0.025129858404397964
1772094006296758500,4.597758544921875,-0.0026586903259158134,0.0006462945602834225,-0.0025540105998516083
1772094006306707700,4.607707763671875,0.0005213902331888676,-0.005974057596176863,-0.027502771466970444
1772094006316656600,4.61765673828125,0.0003757593221962452,-0.011117611080408096,-0.04114281386137009
1772094006326605600,4.62760546875,-0.00040800892747938633,-0.010937847197055817,-0.045459795743227005
1772094006336554500,4.637554443359375,-0.0016367582138627768,-0.0008985735476016998,-0.04254160821437836
1772094006346503400,4.64750341796875,-0.0032218715641647577,0.001302262768149376,-0.04918113723397255
1772094006356453600,4.65745361328125,-0.001530717359855771,-0.00985465943813324,-0.057413309812545776
1772094006366402600,4.667402587890625,0.000718322116881609,-0.014452606439590454,-0.062147073447704315
1772094006376351500,4.6773515625,0.0015839440748095512,-0.005994423292577267,-0.06501305103302002
1772094006386300700,4.68730078125,0.0017895400524139404,-0.0026992936618626118,-0.06515926122665405
1772094006396249600,4.69724951171875,-0.0020915318746119738,-0.002342826221138239,-0.061639219522476196
1772094006406198500,4.707198486328125,-0.006317169405519962,-0.0002503804862499237,-0.06088314950466156
1772094006416147500,4.7171474609375,-0.010070836171507835,-0.00027399929240345955,-0.04885004460811615
1772094006426097700,4.72709765625,-0.009187199175357819,0.006718928925693035,-0.031191688030958176
1772094006436046600,4.737046630859375,-0.00951100792735815,0.02418086677789688,-0.0068324352614581585
1772094006445995500,4.74699560546875,-0.001849626423791051,0.023302290588617325,0.012249646708369255
1772094006455944400,4.7569443359375,0.009413020685315132,0.03655886650085449,0.04214179515838623
1772094006465893600,4.7668935546875,0.01294730044901371,0.04811964929103851,0.06258342415094376
1772094006475842600,4.776842529296875,0.013816642574965954,0.05263986438512802,0.07324628531932831
1772094006485792500,4.78679248046875,0.011090896092355251,0.0396159365773201,0.06961213797330856
1772094006495741700,4.79674169921875,0.015518559142947197,0.03400152176618576,0.062227051705121994
1772094006505690600,4.806690673828125,0.0035591023042798042,0.02588660642504692,0.04614901542663574
1772094006515639600,4.8166396484375,-0.004583387635648251,0.008024942129850388,0.02893909439444542
1772094006525588500,4.82658837890625,-0.003132231067866087,0.0030136718414723873,0.008258050307631493
1772094006535537400,4.836537353515625,-0.0030373618938028812,-0.0017426544800400734,-0.006146509665995836
1772094006545487600,4.846487548828125,0.0015272959135472775,-0.015963668003678322,-0.02763262763619423
1772094006555436500,4.8564365234375,0.0071086883544921875,-0.014346676878631115,-0.03369659185409546
1772094006565385500,4.866385498046875,0.008939079008996487,-0.010656599886715412,-0.03590674698352814
1772094006575334700,4.876334716796875,0.012205713428556919,-0.0032876338809728622,-0.03039560094475746
1772094006585283600,4.88628369140625,0.017491020262241364,-0.006484491750597954,-0.02508525922894478
1772094006595232500,4.896232421875,0.025001324713230133,-0.005468528717756271,-0.015558097511529922
1772094006605182700,4.9061826171875,0.027168605476617813,0.0010642053093761206,-0.002722727134823799
1772094006615131600,4.916131591796875,0.021654076874256134,0.012184266932308674,0.008615978993475437
1772094006625080600,4.92608056640625,0.011524741537868977,0.011921945959329605,0.007350711151957512
1772094006635029500,4.936029541015625,0.005572216585278511,0.009485168382525444,0.004547883756458759
1772094006644978400,4.945978515625,0.005145045928657055,0.0013313689269125462,-0.0030019115656614304
1772094006654930700,4.9559306640625,-0.003125438466668129,-0.002651569899171591,-0.00621399749070406
1772094006664880600,4.965880615234375,-0.008018197491765022,-0.003703252412378788,-0.009527768939733505
1772094006674829800,4.975829833984375,-0.01358943060040474,-0.002195645123720169,-0.012387413531541824
1772094006684778800,4.98577880859375,-0.008227689191699028,-0.010372348129749298,-0.017493758350610733
1772094006694727700,4.995727783203125,-0.001382739981636405,-0.011881042271852493,-0.016815664246678352
1772094006704676600,5.005676513671875,0.007550567388534546,-0.014703193679451942,-0.009670138359069824
1772094006714625500,5.01562548828125,0.010757812298834324,-0.01360304281115532,0.0013992912136018276
1772094006724574500,5.025574462890625,0.012884346768260002,-0.009136389009654522,0.012301739305257797
1772094006734524700,5.035524658203125,0.009687270037829876,-0.004966555628925562,0.023996736854314804
1772094006744473600,5.0454736328125,-0.000954188872128725,0.0011637751013040543,0.03454604744911194
1772094006754422800,5.0554228515625,-0.006972587667405605,-0.006137515418231487,0.045920707285404205
1772094006764371700,5.065371826171875,-0.009233344346284866,-0.005727654322981834,0.05168379098176956
1772094006774320600,5.075320556640625,-0.013132400810718536,-0.005269558168947697,0.05823306739330292
1772094006784269600,5.08526953125,-0.015577714890241623,-0.00498539861291647,0.05742852762341499
1772094006794219800,5.0952197265625,-0.010831274092197418,-0.0038713342510163784,0.05810902640223503
1772094006804168700,5.105168701171875,-0.007971306331455708,-0.009099386632442474,0.052596550434827805
1772094006814117600,5.11511767578125,-0.008935531601309776,-0.007456012070178986,0.04364686459302902
1772094006824066600,5.125066650390625,-0.01051957905292511,-0.00802166759967804,0.03576284274458885
1772094006834015500,5.135015380859375,-0.006746015511453152,-0.0005494803190231323,0.030148658901453018
1772094006843964700,5.144964599609375,-0.0032634001690894365,0.0000779605470597744,0.01932770386338234
1772094006853914600,5.15491455078125,0.005206937901675701,-0.0013150754384696484,0.009475667029619217
1772094006863863800,5.16486376953125,0.013401218689978123,0.0011917578522115946,0.002497120061889291
1772094006873812700,5.174812744140625,0.01987636834383011,0.0020558733958750963,-0.005456089042127132
1772094006883761700,5.18476171875,0.0260919202119112,-0.002768709324300289,-0.01653563790023327
1772094006893710600,5.194710693359375,0.0274056289345026,-0.010541096329689026,-0.028702711686491966
1772094006903659500,5.204659423828125,0.0226481594145298,-0.008574353531002998,-0.04202224686741829
1772094006913608400,5.2146083984375,0.024430803954601288,-0.010035660117864609,-0.049835458397865295
1772094006923558700,5.22455859375,0.02625107392668724,-0.012606408447027206,-0.05321740731596947
1772094006933507600,5.234507568359375,0.030601369217038155,-0.012280751019716263,-0.052569106221199036
1772094006943456800,5.244456787109375,0.027225544676184654,-0.004627625923603773,-0.05336592346429825
1772094006953405700,5.25440576171875,0.02490648254752159,0.014474915340542793,-0.04674095660448074
1772094006963354600,5.264354736328125,0.01913328282535076,0.021162113174796104,-0.045313768088817596
1772094006973303600,5.274303466796875,0.013847211375832558,0.020690856501460075,-0.050845034420490265
1772094006983253800,5.284253662109375,0.013768648728728294,0.014358926564455032,-0.051627472043037415
1772094006993202700,5.29420263671875,0.015736866742372513,0.0031673689372837543,-0.05489485710859299
1772094007003151600,5.304151611328125,0.013413792476058006,-0.009983586147427559,-0.05268363282084465
1772094007013100500,5.3141005859375,0.01133817620575428,-0.008847406134009361,-0.046436186879873276
1772094007023049500,5.324049560546875,0.00530691584572196,-0.021071314811706543,-0.038305822759866714
1772094007032998700,5.33399853515625,0.000909014604985714,-0.018190400674939156,-0.029135845601558685
1772094007042948600,5.343948486328125,-0.004233815707266331,-0.0031286259181797504,-0.007898468524217606
1772094007052897800,5.353897705078125,-0.01306118629872799,0.008868303149938583,0.012814324349164963
1772094007062846700,5.3638466796875,-0.013232161290943623,0.015298506245017052,0.03269615396857262
1772094007072795600,5.373795654296875,-0.008033748716115952,0.024005413055419922,0.0489046536386013
1772094007082744600,5.38374462890625,-0.007781547028571367,0.03000125288963318,0.05394734814763069
1772094007092693500,5.393693603515625,-0.011007281020283699,0.021879740059375763,0.04615899547934532
1772094007102642700,5.403642578125,-0.015505093149840832,0.009874211624264717,0.025851326063275337
1772094007112592600,5.413592529296875,-0.014514777809381485,0.00044668326154351234,0.006405518390238285
1772094007122541600,5.42354150390625,-0.015884973108768463,-0.011030741035938263,-0.010887185111641884
1772094007132490800,5.43349072265625,-0.019365232437849045,-0.01169346272945404,-0.021187882870435715
1772094007142439700,5.443439697265625,-0.017791569232940674,-0.0034584361128509045,-0.030160605907440186
1772094007152388600,5.453388671875,-0.02179192379117012,-0.002278607338666916,-0.028144676238298416
1772094007162337800,5.463337890625,-0.03224403038620949,-0.0023433221504092216,-0.028852280229330063
1772094007172287700,5.473287841796875,-0.041457876563072205,0.0013515097089111805,-0.03278328478336334
1772094007182236700,5.483236572265625,-0.04439268261194229,0.0026753670535981655,-0.04042575880885124
1772094007192185600,5.493185546875,-0.04875877499580383,0.00979708880186081,-0.04707609862089157
1772094007202134500,5.503134521484375,-0.04670973867177963,0.01659347489476204,-0.05134274810552597
1772094007212083500,5.51308349609375,-0.04631349444389343,0.02199872024357319,-0.06349725276231766
1772094007222032600,5.52303271484375,-0.040544021874666214,0.008619798347353935,-0.07120604068040848
1772094007231982600,5.532982666015625,-0.03019624575972557,-0.014551223255693913,-0.07913479208946228
1772094007241931800,5.542931884765625,-0.01349689345806837,-0.03233901038765907,-0.07248594611883163
1772094007251880700,5.552880615234375,0.005764713045209646,-0.02798621356487274,-0.053526584059000015
1772094007261829600,5.56282958984375,0.015059944242238998,-0.013709005899727345,-0.020247723907232285
1772094007271778600,5.572778564453125,0.021275825798511505,0.004159333650022745,0.01179090142250061
1772094007281727500,5.5827275390625,0.027944911271333694,0.008097616024315357,0.040230799466371536
1772094007291676700,5.5926767578125,0.032281652092933655,0.0025573011953383684,0.06254508346319199
1772094007301626600,5.602626708984375,0.035828448832035065,0.002415887312963605,0.07656290382146835
1772094007311575600,5.612575439453125,0.03266284614801407,-0.003998618572950363,0.0843929797410965
1772094007321524700,5.622524658203125,0.02731495164334774,-0.005217812955379486,0.08633548766374588
1772094007331473700,5.6324736328125,0.024365747347474098,-0.004990598652511835,0.07606678456068039
1772094007341422600,5.642422607421875,0.016711823642253876,-0.005632686894387007,0.06381064653396606
1772094007351371800,5.652371826171875,0.00987880676984787,-0.008611543104052544,0.04490455985069275
1772094007361321700,5.66232177734375,0.0032185078598558903,-0.012326385825872421,0.017939254641532898
1772094007371270700,5.672270751953125,-0.005666418932378292,-0.01446196436882019,-0.001696219202131033
1772094007381219600,5.682219482421875,-0.012803690508008003,-0.017872940748929977,-0.015234132297337055
1772094007391168500,5.69216845703125,-0.02217891812324524,-0.010356681421399117,-0.026601018384099007
1772094007401117400,5.702117431640625,-0.026480454951524734,-0.003715822007507086,-0.03520755469799042
1772094007411067000,5.71206689453125,-0.02640470862388611,-0.008257105946540833,-0.044859446585178375
1772094007421016600,5.7220166015625,-0.022940199822187424,-0.011194838210940361,-0.051947712898254395
1772094007430965800,5.7319658203125,-0.019246738404035568,-0.017276199534535408,-0.054560307413339615
1772094007440914700,5.741914794921875,-0.021345045417547226,-0.013088377192616463,-0.0513320229947567
1772094007450863600,5.751863525390625,-0.023163221776485443,-0.009485028684139252,-0.043505169451236725
1772094007460812500,5.7618125,-0.02561013400554657,-0.004108905326575041,-0.022562069818377495
1772094007470761700,5.77176171875,-0.027586912736296654,0.008607188239693642,0.0005281711928546429
1772094007480710700,5.781710693359375,-0.023185772821307182,0.0065179383382201195,0.01701580174267292
1772094007490660600,5.79166064453125,-0.01762695610523224,0.0005109123885631561,0.02905169129371643
1772094007500609500,5.801609619140625,-0.01107930950820446,-0.004501156508922577,0.032637372612953186
1772094007510558700,5.811558837890625,-0.004396355710923672,-0.0074517205357551575,0.03617173805832863
1772094007520507600,5.821507568359375,-0.004845364950597286,-0.0072296131402254105,0.045121822506189346
1772094007530456800,5.831456787109375,-0.006644604727625847,-0.01028905063867569,0.05202653259038925
1772094007540405800,5.84140576171875,0.00005857180804014206,-0.012551406398415565,0.06723477691411972
1772094007550355700,5.851355712890625,0.005286766681820154,-0.009392255917191505,0.06982848048210144
1772094007560304600,5.8613046875,0.011611241847276688,-0.007883042097091675,0.07001170516014099
1772094007570253600,5.871253662109375,0.010611732490360737,-0.0022237333469092846,0.06139873340725899
1772094007580202500,5.881202392578125,0.008405303582549095,-0.0007446138188242912,0.047069862484931946
1772094007590151400,5.8911513671875,0.008166756480932236,-0.00516835693269968,0.030961964279413223
1772094007600100900,5.901100830078125,0.010550019331276417,-0.005614968948066235,0.01614413410425186
1772094007610050600,5.911050537109375,0.017650388181209564,-0.007247549947351217,0.006873344071209431
1772094007619999700,5.920999755859375,0.024094969034194946,-0.009095782414078712,0.002982465783134103
1772094007629948700,5.93094873046875,0.029176125302910805,-0.008783192373812199,0.001345357857644558
1772094007639897600,5.940897705078125,0.030702916905283928,-0.014221632853150368,-0.0012123421765863895
1772094007649843500,5.950843505859375,0.030125446617603302,-0.014215539209544659,-0.000722226221114397
1772094007659792400,5.96079248046875,0.023243306204676628,-0.014500231482088566,-0.0013760318979620934
1772094007669741300,5.9707412109375,0.01813802868127823,-0.011501995846629143,-0.0027184761129319668
1772094007679691300,5.980691162109375,0.017583824694156647,-0.014225345104932785,-0.0013293717056512833
1772094007689640400,5.990640380859375,0.0183476023375988,-0.011701153591275215,-0.0006287805736064911
1772094007699589400,6.00058935546875,0.02274474874138832,-0.005915702786296606,0.005009930580854416
1772094007709538600,6.01053857421875,0.02541189268231392,-0.007951157167553902,0.010581724345684052
1772094007719487500,6.020487548828125,0.029676679521799088,-0.011143222451210022,0.019732877612113953
1772094007729436400,6.0304365234375,0.03339476138353348,-0.006628239527344704,0.02891431748867035
1772094007739386400,6.040386474609375,0.030481534078717232,0.004499245900660753,0.03174499422311783
1772094007749335600,6.05033544921875,0.03410359472036362,0.0161820650100708,0.033308133482933044
1772094007759284500,6.060284423828125,0.03803069517016411,0.010796885937452316,0.031194116920232773
1772094007769233400,6.0702333984375,0.037114545702934265,-0.012091338634490967,0.02096322923898697
1772094007779182300,6.080182373046875,0.03804931417107582,-0.018388915807008743,0.008885527960956097
1772094007789131500,6.090131591796875,0.03558865562081337,-0.014538315124809742,0.002295668004080653
1772094007799080400,6.10008056640625,0.028938475996255875,-0.008217834867537022,-0.0021829698234796524
1772094007809030700,6.11003076171875,0.022236188873648643,0.012133542448282242,-0.013024061918258667
1772094007818979600,6.1199794921875,0.005195419769734144,0.028639016672968864,-0.022450586780905724
1772094007828928500,6.129928466796875,-0.0013734190724790096,0.01871681399643421,-0.04124244302511215
1772094007838877400,6.13987744140625,0.0045105693861842155,0.006655091419816017,-0.05765897035598755
1772094007848826400,6.149826416015625,0.013631285168230534,-0.00396509375423193,-0.0668540969491005
1772094007858775300,6.159775390625,0.021921973675489426,-0.00772547721862793,-0.06751029938459396
1772094007868725200,6.169725341796875,0.021431047469377518,-0.01070287637412548,-0.06108960509300232
1772094007878674400,6.17967431640625,0.020800942555069923,-0.01738741062581539,-0.05742643028497696
1772094007888623400,6.189623291015625,0.0288372915238142,0.0014097604434937239,-0.035774149000644684
1772094007898572500,6.199572509765625,0.029709475114941597,-0.010728660970926285,-0.024661041796207428
1772094007908521500,6.209521484375,0.029252104461193085,-0.016179025173187256,-0.00900685042142868
1772094007918470400,6.219470458984375,0.032274793833494186,-0.00767262140288949,0.007106073200702667
1772094007928419300,6.22941943359375,0.029966944828629494,-0.0044245049357414246,0.01632586307823658
1772094007938369500,6.23936962890625,0.026831338182091713,0.007781294174492359,0.024705765768885612
1772094007948318500,6.249318359375,0.022976431995630264,0.0190234687179327,0.02826537936925888
1772094007958267400,6.259267333984375,0.01509240921586752,0.013468913733959198,0.021737705916166306
1772094007968216300,6.26921630859375,0.011762898415327072,0.021043837070465088,0.013850651681423187
1772094007978165500,6.27916552734375,0.00879986584186554,0.018795330077409744,0.0025561852380633354
1772094007988114400,6.289114501953125,0.002830532845109701,0.01320786215364933,-0.017416413873434067
1772094007998064600,6.299064697265625,0.006350965704768896,0.001396210165694356,-0.035410329699516296
1772094008008013600,6.309013671875,0.010384079068899155,-0.0066420589573681355,-0.044457197189331055
1772094008017962500,6.31896240234375,0.007332095876336098,-0.0029535810463130474,-0.03983954340219498
1772094008027911400,6.328911376953125,0.0068624066188931465,-0.006403186358511448,-0.031514983624219894
1772094008037860400,6.3388603515625,-0.00044131255708634853,-0.0003018844872713089,-0.02288314513862133
1772094008047809300,6.348809326171875,-0.0018847801256924868,0.017088867723941803,-0.012538524344563484
1772094008057759500,6.358759521484375,-0.01212756335735321,0.016749048605561256,0.0015876810066401958
1772094008067708400,6.36870849609375,-0.019602002575993538,0.0165744386613369,0.007635488174855709
1772094008077657300,6.3786572265625,-0.026362702250480652,0.017330508679151535,0.014434006065130234
1772094008087606500,6.3886064453125,-0.04057233780622482,0.019611699506640434,0.019553588703274727
1772094008097555500,6.398555419921875,-0.04741585999727249,0.013459265232086182,0.02618912048637867
1772094008107504400,6.40850439453125,-0.04570058733224869,0.01372683234512806,0.030627530068159103
1772094008117453300,6.418453369140625,-0.03603224456310272,0.009148325771093369,0.039482541382312775
1772094008127403500,6.428403564453125,-0.02070961520075798,0.0005118530243635178,0.03620315343141556
1772094008137352400,6.4383525390625,-0.009206622838973999,0.002544377464801073,0.03926578909158707
1772094008147301400,6.44830126953125,-0.0032698747236281633,0.007403220050036907,0.03468365594744682
1772094008157250300,6.458250244140625,-0.0015095251146703959,0.0003895196132361889,0.0220890361815691
1772094008167199500,6.468199462890625,-0.004697492811828852,-0.017936553806066513,0.006835914216935635
1772094008177148400,6.4781484375,-0.012471260502934456,-0.02298031561076641,-0.00251843873411417
1772094008187098600,6.4880986328125,-0.021280907094478607,-0.0077075897715985775,-0.00038348138332366943
1772094008197047600,6.498047607421875,-0.03814138099551201,0.007957922294735909,0.008809218183159828
1772094008206996500,6.50799658203125,-0.049297232180833817,0.025543153285980225,0.024070903658866882
1772094008216945400,6.5179453125,-0.05002107843756676,0.03285592794418335,0.03494672104716301
1772094008226894300,6.527894287109375,-0.047206565737724304,0.02889264188706875,0.02816561423242092
1772094008236843300,6.53784326171875,-0.03375440463423729,0.011354928836226463,0.004983063321560621
1772094008246792200,6.547792236328125,-0.028845828026533127,-0.016054388135671616,-0.02211020514369011
1772094008256742400,6.557742431640625,-0.027798673138022423,-0.041933123022317886,-0.04275662824511528
1772094008266691300,6.56769140625,-0.030176695436239243,-0.04415764659643173,-0.048315223306417465
1772094008276640500,6.577640625,-0.03693579509854317,-0.02987564541399479,-0.03832118213176727
1772094008286589400,6.58758935546875,-0.042572665959596634,-0.008620910346508026,-0.01523059606552124
1772094008296538400,6.597538330078125,-0.04385976865887642,0.012106206268072128,0.0072731152176856995
1772094008306487300,6.6074873046875,-0.041306640952825546,0.0228737723082304,0.02412520721554756
1772094008316437500,6.6174375,-0.04193035140633583,0.02774575911462307,0.03319273516535759
1772094008326386400,6.627386474609375,-0.04293154552578926,0.010688808746635914,0.03247427940368652
1772094008336335400,6.63733544921875,-0.036515988409519196,0.002679617842659354,0.03385672718286514
1772094008346284300,6.6472841796875,-0.02912144549190998,0.010897288098931313,0.043781545013189316
1772094008356233500,6.6572333984375,-0.019525278359651566,0.013354053720831871,0.055099714547395706
1772094008366182400,6.667182373046875,-0.014817217364907265,0.022366613149642944,0.062389008700847626
1772094008376131300,6.67713134765625,-0.01226590946316719,0.03467334806919098,0.06525617092847824
1772094008386081500,6.68708154296875,-0.025291001424193382,0.021272916346788406,0.07069261372089386
1772094008396030500,6.697030517578125,-0.019479718059301376,0.022460952401161194,0.07150381058454514
1772094008405979400,6.7069794921875,-0.02431899681687355,0.015224752947688103,0.0610099658370018
1772094008415928300,6.71692822265625,-0.013826141133904457,0.02278360351920128,0.04165171459317207
1772094008425877200,6.726877197265625,-0.009838752448558807,0.02190230041742325,0.027059856802225113
1772094008435826200,6.736826171875,0.0025161844678223133,0.0074855429120361805,0.012874262407422066
1772094008445776400,6.7467763671875,0.007947243750095367,0.011878724209964275,-0.0021360828541219234
1772094008455725300,6.756725341796875,0.0031879087910056114,0.039526600390672684,-0.009186802431941032
1772094008465674500,6.766674560546875,-0.01349691767245531,0.041243914514780045,-0.009041348472237587
1772094008475623400,6.77662353515625,-0.01670682616531849,0.03560227155685425,-0.01742737554013729
1772094008485572400,6.786572265625,-0.015170859172940254,0.016238585114479065,-0.021037602797150612
1772094008495521300,6.796521240234375,-0.0168830044567585,0.001744863810017705,-0.030011123046278954
1772094008505470500,6.806470458984375,-0.016357706859707832,0.005881708115339279,-0.02577008306980133
1772094008515420400,6.81642041015625,-0.020207837224006653,0.015356170013546944,-0.016055405139923096
1772094008525369300,6.826369384765625,-0.02750973030924797,0.03500032052397728,-0.004956535063683987
1772094008535318300,6.836318359375,-0.03039925917983055,0.03606824949383736,-0.005131770856678486
1772094008545267500,6.846267333984375,-0.039598748087882996,0.030798761174082756,-0.019711807370185852
1772094008555216400,6.85621630859375,-0.027566323056817055,0.026693763211369514,-0.040250636637210846
1772094008565165600,6.86616552734375,-0.010854887776076794,-0.018130498006939888,-0.062115322798490524
1772094008575115500,6.876115478515625,0.0026294956915080547,-0.04122782498598099,-0.06992238014936447
1772094008585064400,6.886064453125,0.017566731199622154,-0.03646371513605118,-0.06023048982024193
1772094008595013400,6.896013427734375,0.012923242524266243,-0.028728295117616653,-0.031566351652145386
1772094008604962300,6.90596240234375,0.019908614456653595,-0.011437658220529556,0.015837782993912697
1772094008614911200,6.9159111328125,0.016794314607977867,0.020895780995488167,0.05484537035226822
1772094008624860400,6.9258603515625,0.015688398852944374,0.026382677257061005,0.07218612730503082
1772094008634809600,6.9358095703125,0.012008707970380783,0.028358742594718933,0.06759350746870041
1772094008644759300,6.94575927734375,0.01273240428417921,0.025801511481404305,0.06069719418883324
1772094008654708700,6.955708740234375,0.006001263856887817,0.004031502176076174,0.04831162840127945
1772094008664657700,6.96565771484375,-0.005225231405347586,-0.00406208261847496,0.0288340225815773
1772094008674606600,6.975606689453125,-0.009617316536605358,-0.010614258237183094,0.013732834719121456
1772094008684555500,6.985555419921875,-0.0075192078948020935,-0.014160709455609322,0.00924675539135933
1772094008694504400,6.99550439453125,-0.004455240909010172,-0.006513442378491163,0.005240562837570906
1772094008704453400,7.005453369140625,-0.0033378053922206163,-0.003448315430432558,0.003549085697159171
1772094008714403600,7.015403564453125,-0.0080103212967515,-0.0032168864272534847,-0.0017370227724313736
1772094008724352500,7.0253525390625,-0.003912686370313168,-0.0019361884333193302,-0.009295222349464893
1772094008734301400,7.035301513671875,-0.003277256153523922,0.004724111407995224,-0.007059764117002487
1772094008744250600,7.045250732421875,-0.005371641367673874,0.007288438268005848,-0.011999160051345825
1772094008754199600,7.055199462890625,0.000994112342596054,0.0025235102511942387,-0.01275097019970417
1772094008764148500,7.0651484375,0.005651892628520727,-0.002778829075396061,-0.00965962279587984
1772094008774098700,7.0750986328125,0.010113220661878586,-0.00677383691072464,-0.008395154029130936
1772094008784047600,7.085047607421875,0.01159569900482893,0.0074525196105241776,-0.01171523705124855
1772094008793996500,7.09499658203125,0.02054658532142639,0.011653123423457146,-0.008232886902987957
1772094008803945500,7.104945556640625,0.017716776579618454,0.01910552568733692,-0.013699544593691826
1772094008813894400,7.114894287109375,0.007934719324111938,0.009610025212168694,-0.028200989589095116
1772094008823843600,7.124843505859375,0.0077645303681492805,0.0029864241369068623,-0.04317733645439148
1772094008833793500,7.13479345703125,-0.0011456073261797428,-0.000372088048607111,-0.05197003111243248
1772094008843742700,7.14474267578125,-0.0047409022226929665,-0.008432798087596893,-0.04749949648976326
1772094008853691600,7.154691650390625,-0.0027243569493293762,-0.01610456593334675,-0.036449775099754333
1772094008863640600,7.164640625,-0.0025711972266435623,0.008686920627951622,-0.018256274983286858
1772094008873589500,7.174589599609375,-0.006683384068310261,0.015370123088359833,-0.01910875178873539
1772094008883538400,7.184538330078125,-0.0021398148965090513,-0.0029538311064243317,-0.02244909480214119
1772094008893487400,7.1944873046875,-0.004263686016201973,0.001872083405032754,-0.017194677144289017
1772094008903437600,7.2044375,-0.009843450039625168,0.00856916792690754,-0.002412430476397276
1772094008913386500,7.214386474609375,-0.009042371064424515,0.006890045013278723,0.01818765327334404
1772094008923335700,7.224335693359375,-0.007503844797611237,0.009395499713718891,0.035759542137384415
1772094008933284600,7.23428466796875,-0.010149162262678146,0.012111924588680267,0.049119558185338974
1772094008943233500,7.244233642578125,-0.007171084173023701,0.010094156488776207,0.049478523433208466
1772094008953182500,7.254182373046875,-0.00007109716534614563,0.005081820301711559,0.03988075628876686
1772094008963131400,7.26413134765625,-0.0008971840143203735,0.004847633186727762,0.033895671367645264
1772094008973081600,7.27408154296875,-0.002398940734565258,-0.003267018124461174,0.01542771514505148
1772094008983030500,7.284030517578125,-0.0023910244926810265,-0.013420084491372108,-0.00005726376548409462
1772094008992979500,7.2939794921875,0.0029299710877239704,-0.013440323993563652,-0.004437364637851715
1772094009002928400,7.303928466796875,-0.0010767066851258278,-0.004046696703881025,0.0013879602774977684
1772094009012877600,7.313877685546875,-0.004400331526994705,0.006986246909946203,0.0009749038144946098
1772094009022826500,7.323826416015625,0.00013793399557471275,0.010657243430614471,0.005284593440592289
1772094009032775700,7.333775634765625,0.0057654595002532005,0.009902769699692726,0.007389289792627096
1772094009042725600,7.3437255859375,0.0028397110290825367,0.013514814898371696,-0.0006390754133462906
1772094009052674600,7.353674560546875,-0.0037132631987333298,0.005242503713816404,-0.010642174631357193
1772094009062623500,7.36362353515625,-0.00299526983872056,-0.003156623337417841,-0.01973259449005127
1772094009072572400,7.373572509765625,-0.003797680139541626,-0.004107905086129904,-0.030828922986984253
1772094009082521300,7.383521240234375,0.00038715824484825134,0.001175464829429984,-0.03775520995259285
1772094009092470500,7.393470458984375,0.00035892846062779427,0.014942942187190056,-0.04161839187145233
1772094009102420500,7.40342041015625,0.0030284374952316284,0.023153025656938553,-0.04223855584859848
1772094009112369700,7.41336962890625,0.004211945924907923,0.025765586644411087,-0.05780286714434624
1772094009122318600,7.423318603515625,0.0013012555427849293,0.02611297369003296,-0.07936909794807434
1772094009132267500,7.433267578125,0.007004148792475462,0.010179014876484871,-0.106665700674057
1772094009142216400,7.443216552734375,0.0040564341470599174,0.014068188145756721,-0.12638212740421295
1772094009152165600,7.45316552734375,0.00020949775353074074,0.02560713328421116,-0.13139978051185608
1772094009162114600,7.463114501953125,-0.001297967741265893,0.03703481703996658,-0.1283237785100937
1772094009172064500,7.473064453125,-0.011036083102226257,0.04049346596002579,-0.10485786199569702
1772094009182013400,7.483013427734375,-0.004828568082302809,0.07681220024824142,-0.06848859041929245
1772094009191962400,7.49296240234375,-0.0012325015850365162,0.08046019822359085,-0.03772615268826485
1772094009201911600,7.50291162109375,0.0027254666201770306,0.09816946089267731,-0.01564490981400013
1772094009211860700,7.51286083984375,-0.0022621015086770058,0.0994642898440361,-0.001831625122576952
1772094009221809700,7.5228095703125,-0.009688012301921844,0.10504347831010818,0.006418773904442787
1772094009231758600,7.532758544921875,-0.01302974671125412,0.0866338461637497,0.011910478584468365
1772094009241708500,7.54270849609375,-0.02982167899608612,0.054989565163850784,0.009659439325332642
1772094009251657500,7.552657470703125,-0.030074412003159523,0.01452336274087429,0.013382005505263805
1772094009261606400,7.5626064453125,-0.01815449446439743,0.02642679028213024,0.03384603559970856
1772094009271555300,7.572555419921875,-0.017569663003087044,0.0021819043904542923,0.047551460564136505
1772094009281504500,7.58250439453125,-0.015192353166639805,-0.015275152400135994,0.052036382257938385
1772094009291453700,7.59245361328125,-0.0035804384388029575,-0.0015753195621073246,0.06953681260347366
1772094009301403600,7.602403564453125,-0.007472794968634844,0.010391801595687866,0.0779920294880867
1772094009311352600,7.6123525390625,-0.011419333517551422,0.019899554550647736,0.08167517930269241
1772094009321301500,7.622301513671875,-0.016431402415037155,0.02420109137892723,0.07577920705080032
1772094009331250400,7.63225048828125,-0.016955779865384102,0.022517438977956772,0.05925429239869118
1772094009341199600,7.64219970703125,-0.011074554175138474,0.0307349544018507,0.040024541318416595
1772094009351148500,7.6521484375,-0.0149606391787529,0.017987733706831932,0.019747495651245117
1772094009361097500,7.662097412109375,-0.004826822318136692,0.006531705614179373,0.005880238022655249
1772094009371047400,7.67204736328125,-0.010874329134821892,-0.023045094683766365,-0.004814217798411846
1772094009380996400,7.681996337890625,-0.008311191573739052,-0.048116106539964676,-0.011979259550571442
1772094009390945500,7.691945556640625,-0.0010599361266940832,-0.040897876024246216,-0.011617869138717651
1772094009400894700,7.701894775390625,-0.0011102419812232256,-0.037330400198698044,-0.005223515443503857
1772094009410843600,7.71184375,-0.0017025289125740528,-0.034208908677101135,-0.007059764117002487
