time,seconds_elapsed,z,y,x
1772094612928253700,0.088253662109375,-0.11565695703029633,-1.0528348684310913,0.13681478798389435
1772094612938203600,0.09820361328125,-0.17532260715961456,-0.9845185279846191,0.16044984757900238
1772094612948152600,0.108152587890625,-0.2841534912586212,-0.9678537845611572,-0.05693068355321884
1772094612958101800,0.118101806640625,-0.4488140344619751,-0.9710630178451538,-0.4538905918598175
1772094612968051700,0.1280517578125,-0.6504001617431641,-0.9841801524162292,-0.9189861416816711
1772094612978000600,0.138000732421875,-0.8415672779083252,-1.0277620553970337,-1.32035493850708
1772094612987950600,0.14795068359375,-0.971291184425354,-1.0367480516433716,-1.5460256338119507
1772094612997899800,0.157899658203125,-1.02869713306427,-0.9439324140548706,-1.6098239421844482
1772094613007848700,0.1678486328125,-1.0296233892440796,-0.7325272560119629,-1.6039607524871826
1772094613017798700,0.177798583984375,-0.9713155031204224,-0.391539603471756,-1.610795021057129
1772094613027747600,0.18774755859375,-0.8786425590515137,0.03152003139257431,-1.6919622421264648
1772094613037696500,0.197696533203125,-0.8318533897399902,0.47876811027526855,-1.8335820436477661
1772094613047646700,0.207646728515625,-0.8510076999664307,0.7791585922241211,-1.998335361480713
1772094613057595600,0.217595703125,-0.6770181655883789,0.8786904811859131,-2.009329319000244
1772094613067545600,0.227545654296875,-0.571147620677948,0.893702507019043,-1.902344822883606
1772094613077494500,0.23749462890625,-0.5105481147766113,0.6744524240493774,-1.6711350679397583
1772094613087443700,0.247443603515625,-0.4369218349456787,0.34661486744880676,-1.3248341083526611
1772094613097393700,0.2573935546875,-0.32389402389526367,0.03183724358677864,-0.8853821158409119
1772094613107342800,0.2673427734375,-0.17338015139102936,-0.2621975839138031,-0.42125600576400757
1772094613117292500,0.27729248046875,0.015778373926877975,-0.5086302757263184,-0.00035289162769913673
1772094613127241700,0.28724169921875,0.23307260870933533,-0.6920517683029175,0.35395511984825134
1772094613137190700,0.297190673828125,0.46307453513145447,-0.8020880222320557,0.6346629858016968
1772094613147140900,0.307140869140625,0.6876820921897888,-0.7570214867591858,0.8271093964576721
1772094613157089800,0.31708984375,0.862006664276123,-0.5659576058387756,0.8847479224205017
1772094613167038700,0.327038818359375,0.9793705940246582,-0.263725608587265,0.8065146207809448
1772094613176988700,0.33698876953125,0.9907367825508118,0.20853672921657562,0.6174361109733582
1772094613186937600,0.3469375,0.8718116879463196,0.63816237449646,0.3303505778312683
1772094613196887800,0.3568876953125,0.7143399715423584,0.7596569657325745,-0.022659342736005783
1772094613206836700,0.366836669921875,0.5152851939201355,0.5770719647407532,-0.3663352131843567
1772094613216785700,0.37678564453125,0.23881296813488007,0.36349889636039734,-0.5569825768470764
1772094613226735600,0.386735595703125,-0.028698638081550598,0.25185173749923706,-0.4997720420360565
1772094613236684500,0.3966845703125,-0.16266576945781708,0.21867871284484863,-0.26070189476013184
1772094613246634800,0.406634765625,-0.14839603006839752,0.23710724711418152,0.0365322083234787
1772094613256583700,0.416583740234375,-0.020050525665283203,0.2151157259941101,0.2784746587276459
1772094613266532600,0.42653271484375,0.15690907835960388,0.11646770685911179,0.42250826954841614
1772094613276483000,0.436483154296875,0.2704075574874878,0.041037481278181076,0.47658467292785645
1772094613286432000,0.446431884765625,0.30466780066490173,-0.009429419413208961,0.47377318143844604
1772094613296381000,0.456380859375,0.27799803018569946,-0.04093781113624573,0.4724886119365692
1772094613306331100,0.4663310546875,0.278706431388855,-0.05852985382080078,0.49262291193008423
1772094613316280000,0.476280029296875,0.3408637046813965,-0.12650378048419952,0.5297711491584778
1772094613326230000,0.48622998046875,0.46156853437423706,-0.12516047060489655,0.5783618688583374
1772094613336179000,0.496178955078125,0.5956311821937561,-0.039810117334127426,0.623927116394043
1772094613346128100,0.506128173828125,0.6965652704238892,0.04886169731616974,0.6668596863746643
1772094613356078000,0.516078125,0.7680304646492004,0.20671360194683075,0.7150092124938965
1772094613366027000,0.526027099609375,0.8332771062850952,0.44786763191223145,0.7827110290527344
1772094613375976200,0.53597607421875,0.8904851675033569,0.6797429919242859,0.8370572328567505
1772094613385926000,0.54592578125,0.9200183153152466,0.8209696412086487,0.8486241698265076
1772094613395875300,0.555875244140625,0.8835938572883606,0.888539731502533,0.8006075024604797
1772094613405825000,0.565824951171875,0.7559488415718079,0.9240215420722961,0.6586804389953613
1772094613415774200,0.575774169921875,0.5549004077911377,0.7932186126708984,0.4434104263782501
1772094613425723100,0.58572314453125,0.3458067774772644,0.385488897562027,0.26963624358177185
1772094613435673000,0.595673095703125,0.2131875604391098,-0.10788065940141678,0.2728904187679291
1772094613445622300,0.605622314453125,0.1838800013065338,-0.43230879306793213,0.4774089455604553
1772094613455572200,0.615572265625,0.22827544808387756,-0.5601683855056763,0.7356526851654053
1772094613465521200,0.625521240234375,0.3041803240776062,-0.4642210602760315,0.9413480162620544
1772094613475470000,0.635469970703125,0.3647141456604004,-0.2362155169248581,1.0056378841400146
1772094613485420300,0.645420166015625,0.35971060395240784,0.08063167333602905,0.8990874886512756
1772094613495369200,0.655369140625,0.34280192852020264,0.3549334704875946,0.6921107769012451
1772094613505318100,0.665318115234375,0.32636702060699463,0.5738447904586792,0.45930421352386475
1772094613515268000,0.67526806640625,0.31018662452697754,0.7306711077690125,0.2451469600200653
1772094613525217000,0.685217041015625,0.2448851317167282,0.7753240466117859,0.09070518612861633
1772094613535167200,0.695167236328125,0.10232134908437729,0.7472445964813232,-0.0006519895978271961
1772094613545116200,0.7051162109375,-0.12433949112892151,0.49122104048728943,-0.10984452068805695
1772094613555065000,0.715065185546875,-0.38710150122642517,0.042064592242240906,-0.2973713278770447
1772094613565015000,0.72501513671875,-0.5693653225898743,-0.2619141936302185,-0.5024099349975586
1772094613574964000,0.7349638671875,-0.6385447382926941,-0.3361000120639801,-0.670719563961029
1772094613584913000,0.744912841796875,-0.7085709571838379,-0.20013603568077087,-0.7818215489387512
1772094613594863000,0.754863037109375,-0.7807994484901428,-0.048631854355335236,-0.8270801305770874
1772094613604812000,0.76481201171875,-0.8684001564979553,-0.06345286965370178,-0.8913914561271667
1772094613614762000,0.774761962890625,-0.8893084526062012,-0.09593271464109421,-0.9866721034049988
1772094613624711000,0.7847109375,-0.8681866526603699,-0.20698121190071106,-1.0931638479232788
1772094613634660000,0.79466015625,-0.8762121200561523,-0.38246843218803406,-1.134747862815857
1772094613644610000,0.804610107421875,-0.8055563569068909,-0.621544361114502,-1.082812786102295
1772094613654559200,0.814559326171875,-0.6726732850074768,-0.8152404427528381,-0.9130567312240601
1772094613664508200,0.824508056640625,-0.4879452586174011,-0.9010602831840515,-0.598884642124176
1772094613674458000,0.8344580078125,-0.305180162191391,-0.8747913241386414,-0.20524337887763977
1772094613684407000,0.844406982421875,-0.18471311032772064,-0.6928436160087585,0.18805144727230072
1772094613694357200,0.854357177734375,-0.09381826967000961,-0.4244943857192993,0.5206445455551147
1772094613704306200,0.86430615234375,-0.02951624244451523,-0.20204322040081024,0.7151762247085571
1772094613714255000,0.874255126953125,0.005202868953347206,-0.07700839638710022,0.8004319667816162
1772094613724205000,0.884205078125,0.018090438097715378,-0.02181784249842167,0.8133448362350464
1772094613734154200,0.894154296875,-0.0021008020266890526,-0.0075033362954854965,0.7835934162139893
1772094613744104200,0.904104248046875,-0.05333389341831207,0.019511237740516663,0.7087434530258179
1772094613754053000,0.91405322265625,-0.12451530247926712,0.027941275388002396,0.5704798102378845
1772094613764002000,0.924001953125,-0.20099596679210663,0.018127527087926865,0.41123077273368835
1772094613773952000,0.933951904296875,-0.27427300810813904,-0.00161312660202384,0.2645862102508545
1772094613783901200,0.943901123046875,-0.3358660638332367,-0.01714867539703846,0.15960277616977692
1772094613793850000,0.95385009765625,-0.3592586815357208,-0.029932647943496704,0.17487023770809174
1772094613803800000,0.963800048828125,-0.3928786814212799,0.009645387530326843,0.30161434412002563
1772094613813749000,0.9737490234375,-0.418804794549942,0.02266622707247734,0.48502054810523987
1772094613823699000,0.983698974609375,-0.4295743703842163,-0.03481943905353546,0.6709515452384949
1772094613833648000,0.993648193359375,-0.4290088713169098,-0.09331755340099335,0.8291279077529907
1772094613843597000,1.00359716796875,-0.42300477623939514,-0.1478031724691391,0.9282163977622986
1772094613853547000,1.013547119140625,-0.3895284831523895,-0.24002064764499664,0.941725492477417
1772094613863496200,1.02349609375,-0.3453061878681183,-0.3814848065376282,0.893007755279541
1772094613873446100,1.033446044921875,-0.29371488094329834,-0.5306677222251892,0.8043579459190369
1772094613883395000,1.04339501953125,-0.24593722820281982,-0.6998716592788696,0.7018797993659973
1772094613893344300,1.05334423828125,-0.19700460135936737,-0.8749777674674988,0.6099156737327576
1772094613903294200,1.063294189453125,-0.13065087795257568,-1.0095728635787964,0.5418932437896729
1772094613913243100,1.0732431640625,-0.004711107816547155,-1.080810546875,0.5154529809951782
1772094613923192000,1.083192138671875,0.16403770446777344,-1.1152458190917969,0.541250467300415
1772094613933142300,1.093142333984375,0.28771302103996277,-1.1127394437789917,0.6154561042785645
1772094613943091200,1.10309130859375,0.29913902282714844,-1.1231848001480103,0.7169185280799866
1772094613953041200,1.113041259765625,0.19534507393836975,-1.0967613458633423,0.819753885269165
1772094613962990000,1.122989990234375,0.01943502388894558,-1.0210721492767334,0.8481910824775696
1772094613972939000,1.13293896484375,-0.17224499583244324,-0.9053663015365601,0.7605151534080505
1772094613982889200,1.14288916015625,-0.3018815517425537,-0.7894980311393738,0.548959493637085
1772094613992838100,1.152838134765625,-0.37622958421707153,-0.6743754148483276,0.26784735918045044
1772094614002787000,1.162787109375,-0.42488688230514526,-0.5967589020729065,-0.05444813519716263
1772094614012737000,1.172737060546875,-0.4807007908821106,-0.5424607396125793,-0.37065136432647705
1772094614022686000,1.18268603515625,-0.5518487691879272,-0.5337319374084473,-0.6447607278823853
1772094614032636200,1.19263623046875,-0.627726674079895,-0.5368877649307251,-0.8488644361495972
1772094614042585000,1.202585205078125,-0.6951978206634521,-0.48197153210639954,-0.9703951478004456
1772094614052534000,1.212533935546875,-0.7527300715446472,-0.3753575086593628,-1.041243076324463
1772094614062484000,1.22248388671875,-0.8029484748840332,-0.1919245719909668,-1.0582470893859863
1772094614072433000,1.232432861328125,-0.8426433801651001,0.05316086485981941,-1.035285234451294
1772094614082383000,1.242383056640625,-0.8663681745529175,0.2862228751182556,-0.9870492815971375
1772094614092332000,1.25233203125,-0.9056524634361267,0.4715040624141693,-0.9564197659492493
1772094614102281200,1.26228125,-0.9232964515686035,0.52476567029953,-0.8956490755081177
1772094614112231000,1.27223095703125,-0.8794311881065369,0.5067805647850037,-0.7907230854034424
1772094614122180000,1.28218017578125,-0.8481600880622864,0.5148108005523682,-0.7021554112434387
1772094614132129300,1.29212939453125,-0.7960522770881653,0.4880651831626892,-0.6104953289031982
1772094614142079200,1.302079345703125,-0.6825257539749146,0.4171625077724457,-0.4974196255207062
1772094614152028200,1.312028076171875,-0.5389803647994995,0.3425484597682953,-0.3874567151069641
1772094614161978000,1.32197802734375,-0.397550493478775,0.2772213816642761,-0.3017183840274811
1772094614171927300,1.33192724609375,-0.24633151292800903,0.24101094901561737,-0.2466176450252533
1772094614181876200,1.341876220703125,-0.07886581122875214,0.23226326704025269,-0.2014448493719101
1772094614191826200,1.351826171875,0.07517632097005844,0.22755572199821472,-0.1476721614599228
1772094614201775000,1.361775146484375,0.18463090062141418,0.2104766070842743,-0.08750203251838684
1772094614211724000,1.37172412109375,0.2444506138563156,0.18169786036014557,-0.023732837289571762
1772094614221674200,1.38167431640625,0.2676222622394562,0.17436325550079346,0.05084419250488281
1772094614231623200,1.391623046875,0.2658332288265228,0.16888529062271118,0.12043316662311554
1772094614241573000,1.401572998046875,0.258280485868454,0.15537826716899872,0.18466328084468842
1772094614251522000,1.41152197265625,0.23883220553398132,0.15493682026863098,0.22721372544765472
1772094614261471000,1.421470947265625,0.21249274909496307,0.17520800232887268,0.24571417272090912
1772094614271421200,1.431421142578125,0.17885826528072357,0.19836170971393585,0.2945115566253662
1772094614281370600,1.44137060546875,0.13922803103923798,0.26583850383758545,0.434329092502594
1772094614291320600,1.451320556640625,0.08413044363260269,0.36510080099105835,0.6116218566894531
1772094614301269500,1.46126953125,0.009006129577755928,0.3743115961551666,0.7377927899360657
1772094614311218400,1.471218505859375,-0.06557530164718628,0.24526353180408478,0.7500616312026978
1772094614321168600,1.481168701171875,-0.10521885007619858,0.04002835601568222,0.6664007902145386
1772094614331117600,1.49111767578125,-0.09866063296794891,-0.1699678897857666,0.5491633415222168
1772094614341066500,1.50106640625,-0.06574209779500961,-0.32254648208618164,0.4728541970252991
1772094614351016400,1.511016357421875,-0.021976543590426445,-0.3763027489185333,0.4696049988269806
1772094614360965600,1.520965576171875,0.024306533858180046,-0.30757081508636475,0.4983498156070709
1772094614370915600,1.53091552734375,0.08957362920045853,-0.2778976261615753,0.4850315451622009
1772094614380864500,1.540864501953125,0.19388486444950104,-0.4225355088710785,0.3573167324066162
1772094614390813700,1.550813720703125,0.3350127637386322,-0.6932355761528015,0.10634735971689224
1772094614400763400,1.560763427734375,0.45690271258354187,-1.007418155670166,-0.23939858376979828
1772094614410712800,1.570712890625,0.5318000316619873,-1.2350842952728271,-0.6008826494216919
1772094614420662500,1.58066259765625,0.5697987675666809,-1.2337045669555664,-0.8542520403862
1772094614430611700,1.59061181640625,0.586234450340271,-1.0114325284957886,-0.9557328224182129
1772094614440560600,1.600560546875,0.5858567953109741,-0.6708221435546875,-0.9328714609146118
1772094614450510600,1.610510498046875,0.5768696665763855,-0.2805529236793518,-0.8327876925468445
1772094614460459800,1.620459716796875,0.549781858921051,0.1986704021692276,-0.6875538229942322
1772094614470408700,1.63040869140625,0.5115655064582825,0.6916119456291199,-0.5384241342544556
1772094614480358700,1.640358642578125,0.4910133481025696,1.0367056131362915,-0.4527651071548462
1772094614490307600,1.6503076171875,0.5182108879089355,1.1026332378387451,-0.45056241750717163
1772094614500257800,1.6602578125,0.5903269052505493,0.9258121252059937,-0.49744683504104614
1772094614510206700,1.670206787109375,0.6796014308929443,0.5477113723754883,-0.5309306979179382
1772094614520155600,1.68015576171875,0.7416136860847473,0.06128741800785065,-0.4858524203300476
1772094614530105600,1.690105712890625,0.748611569404602,-0.5246590971946716,-0.3255797028541565
1772094614540054500,1.700054443359375,0.6653411388397217,-1.1236838102340698,-0.0549391470849514
1772094614550003500,1.71000341796875,0.45771658420562744,-1.5987460613250732,0.3228974938392639
1772094614559953700,1.71995361328125,0.07553593069314957,-1.7084685564041138,0.7565836310386658
1772094614569902600,1.729902587890625,-0.5089791417121887,-1.4334832429885864,1.1024539470672607
1772094614579852500,1.7398525390625,-0.9885055422782898,-1.0427141189575195,1.2845799922943115
1772094614589801500,1.749801513671875,-1.2246384620666504,-0.5964204668998718,1.241075038909912
1772094614599750400,1.75975048828125,-1.2540626525878906,-0.118770532310009,1.0324699878692627
1772094614609700600,1.76970068359375,-1.0920764207839966,0.28812313079833984,0.7118067145347595
1772094614619649500,1.7796494140625,-0.8050889372825623,0.629503607749939,0.2695147693157196
1772094614629599500,1.789599609375,-0.4751603901386261,0.8714234828948975,-0.19966615736484528
1772094614639548400,1.79954833984375,-0.13364621996879578,0.9754241704940796,-0.6348186731338501
1772094614649497600,1.80949755859375,0.13575807213783264,0.9887547492980957,-1.0030040740966797
1772094614659447600,1.819447509765625,0.2808505594730377,1.003908634185791,-1.2792338132858276
1772094614669396700,1.829396728515625,0.30912843346595764,1.0245236158370972,-1.4766179323196411
1772094614679345700,1.839345703125,0.277310311794281,1.0753122568130493,-1.5901453495025635
1772094614689295600,1.849295654296875,0.23643842339515686,1.2418317794799805,-1.607143759727478
1772094614699244500,1.85924462890625,0.23815244436264038,1.453019380569458,-1.5498838424682617
1772094614709194800,1.86919482421875,0.3083675801753998,1.5939053297042847,-1.4363114833831787
1772094614719143700,1.879143798828125,0.4428521394729614,1.614524006843567,-1.2772265672683716
1772094614729092600,1.889092529296875,0.5981138348579407,1.535007119178772,-1.069447636604309
1772094614739042600,1.89904248046875,0.7112686038017273,1.4084869623184204,-0.8291103839874268
1772094614748991700,1.90899169921875,0.7362208962440491,1.2730506658554077,-0.5908770561218262
1772094614758940700,1.918940673828125,0.672500491142273,1.1269075870513916,-0.3824773132801056
1772094614768890600,1.928890625,0.5358951687812805,0.9225186109542847,-0.21439866721630096
1772094614778839600,1.938839599609375,0.360049843788147,0.646715521812439,-0.08355037868022919
1772094614788789500,1.94878955078125,0.19344541430473328,0.36850571632385254,0.019677195698022842
1772094614798738700,1.95873876953125,0.0793718472123146,0.16808365285396576,0.13808852434158325
1772094614808687600,1.9686875,0.012836288660764694,0.06518838554620743,0.276913583278656
1772094614818637600,1.978637451171875,0.0001908009871840477,0.028184296563267708,0.4300006031990051
1772094614828586500,1.98858642578125,0.03927521035075188,0.01108352281153202,0.5721875429153442
1772094614838536400,1.998536376953125,0.12320180982351303,-0.035216331481933594,0.6984285116195679
1772094614848485600,2.008485595703125,0.23916903138160706,-0.07697541266679764,0.8215758800506592
1772094614858434600,2.0184345703125,0.36120226979255676,-0.08664854615926743,0.939129650592804
1772094614868384500,2.028384521484375,0.47592127323150635,-0.07318996638059616,1.052925705909729
1772094614878333700,2.038333740234375,0.5641142129898071,-0.06812969595193863,1.1391288042068481
1772094614888282600,2.04828271484375,0.6037309169769287,-0.04994190111756325,1.1863255500793457
1772094614898232600,2.058232666015625,0.6016719937324524,-0.0032750647515058517,1.199752926826477
1772094614908181800,2.068181640625,0.5660446286201477,0.04695914685726166,1.1787002086639404
1772094614918131700,2.078131591796875,0.500646710395813,0.05449988692998886,1.1118268966674805
1772094614928080600,2.08808056640625,0.448472261428833,0.04060535132884979,1.0008760690689087
1772094614938029600,2.098029541015625,0.44678062200546265,0.03330695629119873,0.856336236000061
1772094614947979800,2.107979736328125,0.5212072730064392,0.05975444242358208,0.7017083168029785
1772094614957928700,2.1179287109375,0.6590309143066406,0.13487662374973297,0.5597528219223022
1772094614967877600,2.127877685546875,0.8005757927894592,0.2052837312221527,0.4225584864616394
1772094614977827600,2.13782763671875,0.9136123061180115,0.17730110883712769,0.2919701337814331
1772094614987776500,2.147776611328125,0.955921471118927,0.08718842267990112,0.1856556087732315
1772094614997726700,2.157726806640625,0.8987412452697754,0.0037718270905315876,0.11695163697004318
1772094615007675600,2.167675537109375,0.73183274269104,-0.08414369076490402,0.11743322014808655
1772094615017624600,2.17762451171875,0.484816312789917,-0.19942954182624817,0.17253455519676208
1772094615027574500,2.187574462890625,0.2063027024269104,-0.3473281264305115,0.2285470962524414
1772094615037523500,2.1975234375,-0.08441301435232162,-0.6058164238929749,0.19934554398059845
1772094615047473700,2.2074736328125,-0.373576283454895,-0.9595819711685181,0.029466429725289345
1772094615057422600,2.217422607421875,-0.6345407366752625,-1.3042484521865845,-0.2717951238155365
1772094615067371500,2.22737158203125,-0.8492246866226196,-1.548290729522705,-0.6225607991218567
1772094615077321500,2.237321533203125,-0.9985532164573669,-1.6732969284057617,-0.9403395652770996
1772094615087270400,2.2472705078125,-1.0913996696472168,-1.6673412322998047,-1.124991774559021
1772094615097219600,2.257219482421875,-1.107669711112976,-1.4895802736282349,-1.1316595077514648
1772094615107169500,2.26716943359375,-1.0520401000976562,-1.1836146116256714,-1.0078562498092651
1772094615117118700,2.27711865234375,-0.956179141998291,-0.7761328816413879,-0.8535045385360718
1772094615127068400,2.287068359375,-0.8483521342277527,-0.3346649408340454,-0.7551725506782532
1772094615137017600,2.297017578125,-0.7182396650314331,0.09873683750629425,-0.752196729183197
1772094615146966800,2.306966796875,-0.5946087837219238,0.41569629311561584,-0.8319215774536133
1772094615156916700,2.316916748046875,-0.5013986825942993,0.6047735214233398,-0.9548858404159546
1772094615166865700,2.32686572265625,-0.4326002299785614,0.6930974125862122,-1.0468813180923462
1772094615176814600,2.336814697265625,-0.3785942792892456,0.6750179529190063,-1.0765118598937988
1772094615186764800,2.346764892578125,-0.3191576600074768,0.5802531838417053,-1.0314548015594482
1772094615196713700,2.356713623046875,-0.2545408606529236,0.4590068757534027,-0.9207684993743896
1772094615206663700,2.36666357421875,-0.20026624202728271,0.308725506067276,-0.794106662273407
1772094615216612600,2.376612548828125,-0.1615699827671051,0.18345437943935394,-0.6813769340515137
1772094615226561500,2.3865615234375,-0.11692757904529572,0.10781237483024597,-0.5960556268692017
1772094615236511700,2.39651171875,-0.07694288343191147,0.08086837828159332,-0.5190330147743225
1772094615246460700,2.406460693359375,-0.048075638711452484,0.07483063638210297,-0.4474709928035736
1772094615256410600,2.41641064453125,-0.03353504091501236,0.09363149106502533,-0.37966904044151306
1772094615266359600,2.426359619140625,-0.022451847791671753,0.1057940348982811,-0.3275781273841858
1772094615276308500,2.43630859375,-0.01785150356590748,0.06384658813476562,-0.3145081102848053
1772094615286262000,2.446261962890625,-0.0052605802193284035,0.0026248889043927193,-0.32344284653663635
1772094615296211000,2.4562109375,0.010762061923742294,-0.05192676931619644,-0.3289276361465454
1772094615306159900,2.466159912109375,0.030850114300847054,-0.10406531393527985,-0.31471675634384155
1772094615316109800,2.47610986328125,0.06293321400880814,-0.1647813767194748,-0.2689295709133148
1772094615326059000,2.48605908203125,0.11710845679044724,-0.2458343505859375,-0.18358981609344482
1772094615336009000,2.496009033203125,0.19163408875465393,-0.290659099817276,-0.07631343603134155
1772094615345958000,2.5059580078125,0.2615380883216858,-0.22661739587783813,0.0175301656126976
1772094615355907000,2.515906982421875,0.3048461675643921,-0.10705265402793884,0.03817871958017349
1772094615365856800,2.525856689453125,0.3243638575077057,-0.0374763160943985,-0.0354427807033062
1772094615375806200,2.53580615234375,0.3514689803123474,-0.02905779704451561,-0.1391846239566803
1772094615385755100,2.545755126953125,0.40541544556617737,-0.04341572895646095,-0.2213316559791565
1772094615395705000,2.555705078125,0.47063544392585754,-0.03660495951771736,-0.23724138736724854
1772094615405654000,2.565654052734375,0.5308194756507874,0.023747611790895462,-0.1633431613445282
1772094615415604000,2.57560400390625,0.554466724395752,0.11892073601484299,-0.036023564636707306
1772094615425553200,2.58555322265625,0.5211222171783447,0.2518518567085266,0.09829885512590408
1772094615435502000,2.595502197265625,0.4432884156703949,0.35145169496536255,0.19763129949569702
1772094615445452000,2.6054521484375,0.35403355956077576,0.3215962052345276,0.24449650943279266
1772094615455401000,2.61540087890625,0.25274768471717834,0.12937641143798828,0.23476772010326385
1772094615465351200,2.62535107421875,0.16565939784049988,-0.18894509971141815,0.2183929979801178
1772094615475300000,2.635300048828125,0.10201837122440338,-0.5048215985298157,0.24503979086875916
1772094615485249000,2.6452490234375,0.02072114124894142,-0.7159419655799866,0.29147058725357056
1772094615495199000,2.655198974609375,-0.05990526080131531,-0.8125063180923462,0.328085333108902
1772094615505148000,2.66514794921875,-0.11071127653121948,-0.8081086874008179,0.35920947790145874
1772094615515096800,2.675096923828125,-0.12228777259588242,-0.6920353174209595,0.38263729214668274
1772094615525047000,2.685047119140625,-0.11174361407756805,-0.49174490571022034,0.3773544132709503
1772094615534996000,2.694995849609375,-0.09623176604509354,-0.24067777395248413,0.34103289246559143
1772094615544946000,2.70494580078125,-0.061784371733665466,0.025646094232797623,0.29314088821411133
1772094615554894800,2.714894775390625,-0.020387131720781326,0.2975543141365051,0.2573719918727875
1772094615564843800,2.72484375,0.005324138328433037,0.589783251285553,0.2156057506799698
1772094615574794000,2.7347939453125,0.017528075724840164,0.8732184171676636,0.1337234079837799
1772094615584743000,2.744742919921875,0.03701341897249222,1.0937373638153076,-0.010049926117062569
1772094615594692900,2.75469287109375,0.06823179125785828,1.2073369026184082,-0.2199283242225647
1772094615604641800,2.764641845703125,0.11353860795497894,1.1767055988311768,-0.46469831466674805
1772094615614591000,2.774591064453125,0.16199509799480438,1.0186110734939575,-0.7125131487846375
1772094615624541000,2.784541015625,0.22176451981067657,0.7474657893180847,-0.9196158051490784
1772094615634490000,2.794489990234375,0.26523345708847046,0.3930973410606384,-1.05205500125885
1772094615644439000,2.80443896484375,0.24764619767665863,-0.0034043537452816963,-1.0895752906799316
1772094615654389000,2.814388916015625,0.20015405118465424,-0.4151327610015869,-1.0454115867614746
1772094615664338000,2.824337890625,0.14226515591144562,-0.781201958656311,-0.9145792126655579
1772094615674288000,2.8342880859375,0.09266804903745651,-1.0202842950820923,-0.7012887597084045
1772094615684237000,2.844237060546875,0.10990120470523834,-1.0008035898208618,-0.3581181466579437
1772094615694186000,2.85418603515625,0.20432518422603607,-0.7224390506744385,0.1012267917394638
1772094615704136000,2.864135986328125,0.33056870102882385,-0.3694659173488617,0.555124044418335
1772094615714085000,2.874085205078125,0.4291117787361145,-0.015491080470383167,0.8842084407806396
1772094615724034000,2.884033935546875,0.49672994017601013,0.2551405727863312,1.0004358291625977
1772094615733984000,2.89398388671875,0.5028091073036194,0.3813413679599762,0.885200560092926
1772094615743933000,2.903932861328125,0.4792604446411133,0.3361464738845825,0.6144977807998657
1772094615753883000,2.9138828125,0.4316074252128601,0.09834988415241241,0.2947181761264801
1772094615763832000,2.92383203125,0.35966625809669495,-0.4090522229671478,0.019459854811429977
1772094615773781000,2.933781005859375,0.24371863901615143,-1.1191409826278687,-0.18477849662303925
1772094615783731000,2.94373095703125,0.07316461205482483,-1.9754576683044434,-0.3100159466266632
1772094615793680000,2.953679931640625,-0.1582569032907486,-2.9228789806365967,-0.3161372244358063
1772094615803628800,2.96362890625,-0.48264554142951965,-3.5936498641967773,-0.20809783041477203
1772094615813579000,2.9735791015625,-0.7923232316970825,-3.6274843215942383,0.032348595559597015
1772094615823528000,2.98352783203125,-0.9178505539894104,-2.952019453048706,0.43885961174964905
1772094615833478000,2.993477783203125,-0.8159883618354797,-1.8324861526489258,0.9792730212211609
1772094615843426800,3.0034267578125,-0.4792981743812561,-0.5526487231254578,1.5436961650848389
1772094615853376000,3.0133759765625,-0.07775341719388962,0.43602797389030457,1.9348690509796143
1772094615863326000,3.023325927734375,0.11185355484485626,0.8373640775680542,1.985438585281372
1772094615873275100,3.033275146484375,0.028666792437434196,0.7408521771430969,1.7405449151992798
1772094615883225000,3.04322509765625,-0.26224175095558167,0.42927122116088867,1.3115062713623047
1772094615893174000,3.053174072265625,-0.6709125638008118,0.06552843004465103,0.7906625866889954
1772094615903123000,3.063123046875,-1.0344908237457275,-0.2533547580242157,0.2966676652431488
1772094615913073200,3.0730732421875,-1.23246169090271,-0.35066959261894226,-0.06791640818119049
1772094615923022000,3.08302197265625,-1.220189094543457,-0.16223591566085815,-0.23778635263442993
1772094615932971000,3.092970947265625,-1.0610005855560303,0.26389914751052856,-0.24160532653331757
1772094615942921000,3.1029208984375,-0.8793315887451172,0.7086816430091858,-0.1506536453962326
1772094615952870000,3.112869873046875,-0.764053463935852,0.9790244698524475,-0.011522654443979263
1772094615962820000,3.122820068359375,-0.6504467129707336,1.1810994148254395,0.18356437981128693
1772094615972769000,3.13276904296875,-0.5304508209228516,1.347368836402893,0.4113035202026367
1772094615982718000,3.142718017578125,-0.40749022364616394,1.392469048500061,0.610177218914032
1772094615992668000,3.15266796875,-0.30809837579727173,1.2934638261795044,0.706788182258606
1772094616002616800,3.162616943359375,-0.24125877022743225,1.115158200263977,0.6942025423049927
1772094616012567000,3.172567138671875,-0.17776581645011902,0.9357046484947205,0.6031493544578552
1772094616022516000,3.182515869140625,-0.14198468625545502,0.7688891291618347,0.4538011848926544
1772094616032465000,3.19246484375,-0.1465940922498703,0.6269684433937073,0.2919776737689972
1772094616042414800,3.202414794921875,-0.1813257336616516,0.5052978992462158,0.13874374330043793
1772094616052363800,3.21236376953125,-0.20927347242832184,0.42280322313308716,0.00043726805597543716
1772094616062313000,3.22231298828125,-0.2347361147403717,0.405288428068161,-0.0805969163775444
1772094616072263000,3.232262939453125,-0.2391231507062912,0.48632630705833435,-0.11766305565834045
1772094616082212000,3.242212158203125,-0.19228912889957428,0.7823682427406311,-0.09168367832899094
1772094616092161800,3.252161865234375,-0.05627297982573509,1.2812659740447998,0.014530105516314507
1772094616102111000,3.262111083984375,0.10805157572031021,1.48728346824646,0.09940379858016968
1772094616112060200,3.27206005859375,0.2754752039909363,1.375716209411621,0.1355876326560974
1772094616122010000,3.282010009765625,0.43646252155303955,1.0853931903839111,0.1407575160264969
1772094616131959000,3.291958984375,0.6060776710510254,0.7421137690544128,0.12516498565673828
1772094616141908000,3.301907958984375,0.7737669348716736,0.4637112021446228,0.11854709684848785
1772094616151858200,3.311858154296875,0.9138901829719543,0.2287018895149231,0.11025747656822205
1772094616161807000,3.32180712890625,0.9921718239784241,-0.011443580500781536,0.08492622524499893
1772094616171757000,3.331757080078125,1.0084238052368164,-0.23600797355175018,0.008779527619481087
1772094616181706000,3.3417060546875,1.0057241916656494,-0.3871888220310211,-0.1335490494966507
1772094616191655000,3.351655029296875,1.060227394104004,-0.4540514647960663,-0.3614450693130493
1772094616201605000,3.361605224609375,1.1700321435928345,-0.4645768105983734,-0.5892413854598999
1772094616211554000,3.371553955078125,1.265643835067749,-0.3369576036930084,-0.7443845868110657
1772094616221503000,3.3815029296875,1.278404951095581,-0.0850759819149971,-0.820220410823822
1772094616231453000,3.391452880859375,1.1550999879837036,0.1044529378414154,-0.8668451309204102
1772094616241401900,3.40140185546875,0.9144889712333679,0.14108246564865112,-0.9054367542266846
1772094616251352000,3.41135205078125,0.6058147549629211,0.08366045355796814,-0.973407506942749
1772094616261301000,3.421301025390625,0.288086861371994,-0.07818565517663956,-1.1148697137832642
1772094616271250000,3.43125,-0.0030746888369321823,-0.34728768467903137,-1.29657781124115
1772094616281196300,3.4411962890625,-0.23043964803218842,-0.7176902890205383,-1.5133111476898193
1772094616291145200,3.451145263671875,-0.39514872431755066,-1.0616204738616943,-1.6796061992645264
1772094616301095200,3.46109521484375,-0.510192334651947,-1.2346341609954834,-1.71584951877594
1772094616311044000,3.471044189453125,-0.6027329564094543,-1.2024203538894653,-1.608786940574646
1772094616320993300,3.4809931640625,-0.6947388052940369,-0.9915170669555664,-1.407295823097229
1772094616330943200,3.490943115234375,-0.7608621716499329,-0.6184138059616089,-1.1798323392868042
1772094616340892400,3.500892333984375,-0.761375367641449,-0.15053865313529968,-0.9618045091629028
1772094616350841300,3.51084130859375,-0.6714268326759338,0.31410226225852966,-0.7752074003219604
1772094616360791300,3.520791259765625,-0.5132818222045898,0.7037643790245056,-0.6171696782112122
1772094616370740200,3.530740234375,-0.3377413749694824,0.9992769956588745,-0.4936639666557312
1772094616380690400,3.5406904296875,-0.1819959282875061,1.1632845401763916,-0.38628870248794556
1772094616390639400,3.550639404296875,-0.04856596514582634,1.1679213047027588,-0.2737421691417694
1772094616400588300,3.56058837890625,0.0387442521750927,1.0195071697235107,-0.15229856967926025
1772094616410538200,3.570538330078125,0.061537984758615494,0.735035240650177,-0.025068171322345734
1772094616420487200,3.580487060546875,0.025111030787229538,0.3490370810031891,0.08494453877210617
1772094616430437400,3.590437255859375,-0.03529798239469528,-0.02366991713643074,0.1961703896522522
1772094616440386300,3.60038623046875,-0.10400514304637909,-0.2892424464225769,0.2962908446788788
1772094616450335200,3.610335205078125,-0.1598534882068634,-0.43266648054122925,0.3710156977176666
1772094616460285200,3.62028515625,-0.20527411997318268,-0.46326419711112976,0.404605507850647
1772094616470234000,3.630234130859375,-0.23302079737186432,-0.4156697690486908,0.3706616461277008
1772094616480183000,3.64018310546875,-0.24039945006370544,-0.31431835889816284,0.2734187841415405
1772094616490133200,3.65013330078125,-0.20311252772808075,-0.18247723579406738,0.13164114952087402
1772094616500082200,3.660082275390625,-0.11697147786617279,-0.04909679666161537,-0.031056303530931473
1772094616510032100,3.6700322265625,-0.021311797201633453,0.03940803185105324,-0.1751500964164734
1772094616519981000,3.67998095703125,0.04230125993490219,0.12133881449699402,-0.29198431968688965
1772094616529930200,3.68993017578125,0.06974539905786514,0.2518797814846039,-0.37772586941719055
1772094616539880200,3.699880126953125,0.07453005760908127,0.3632105588912964,-0.4238409101963043
1772094616549829000,3.7098291015625,0.08845146745443344,0.3392053544521332,-0.43912532925605774
1772094616559778300,3.7197783203125,0.13430121541023254,0.20275521278381348,-0.42981457710266113
1772094616569728300,3.729728271484375,0.20860899984836578,0.09190058708190918,-0.4088669419288635
1772094616579677400,3.739677490234375,0.29100340604782104,0.018380388617515564,-0.4140188694000244
1772094616589627400,3.74962744140625,0.3661985695362091,-0.07071699947118759,-0.4535604417324066
1772094616599576300,3.759576416015625,0.425068199634552,-0.1873825490474701,-0.5177826285362244
1772094616609525200,3.769525146484375,0.46665799617767334,-0.2997056245803833,-0.5674594044685364
1772094616619475200,3.77947509765625,0.4678828716278076,-0.4275361895561218,-0.5727849006652832
1772094616629424400,3.78942431640625,0.4526485204696655,-0.586146891117096,-0.5223931074142456
1772094616639373300,3.799373291015625,0.4236777424812317,-0.7209295630455017,-0.4215129613876343
1772094616649323300,3.8093232421875,0.37192800641059875,-0.7906663417816162,-0.2953108251094818
1772094616659272200,3.819272216796875,0.30825570225715637,-0.7774677872657776,-0.1956118941307068
1772094616669222400,3.829222412109375,0.2426529824733734,-0.7024063467979431,-0.14322592318058014
1772094616679171300,3.83917138671875,0.20353856682777405,-0.5762306451797485,-0.13244079053401947
1772094616689120300,3.849120361328125,0.1680615246295929,-0.45482853055000305,-0.15599139034748077
1772094616699070200,3.8590703125,0.09939083456993103,-0.4089946150779724,-0.2523956298828125
1772094616709019100,3.86901904296875,0.013488179072737694,-0.42326197028160095,-0.4232792258262634
1772094616718969300,3.87896923828125,-0.047119349241256714,-0.4124900698661804,-0.5934021472930908
1772094616728918300,3.888918212890625,-0.11152683198451996,-0.38820549845695496,-0.6946435570716858
1772094616738867200,3.8988671875,-0.18817992508411407,-0.37845927476882935,-0.6932506561279297
1772094616748817200,3.908817138671875,-0.2541070282459259,-0.3495301306247711,-0.5876688361167908
1772094616758766000,3.91876611328125,-0.2902790307998657,-0.31917625665664673,-0.40704503655433655
1772094616768715300,3.92871533203125,-0.26585516333580017,-0.2934192419052124,-0.1687062382698059
1772094616778665200,3.938665283203125,-0.19287408888339996,-0.22172601521015167,0.12067686766386032
1772094616788614400,3.948614501953125,-0.1180480569601059,-0.10111330449581146,0.3942522406578064
1772094616798564000,3.958564208984375,-0.08864379674196243,0.009736398234963417,0.5985719561576843
1772094616808513300,3.96851318359375,-0.07271915674209595,0.12989823520183563,0.731136679649353
1772094616818462200,3.978462158203125,-0.05714025720953941,0.27806615829467773,0.8035205006599426
1772094616828412400,3.988412353515625,-0.057504311203956604,0.4025723934173584,0.8087781071662903
1772094616838361300,3.998361328125,-0.07383743673563004,0.4685032069683075,0.7643529772758484
1772094616848310300,4.008310302734375,-0.08485546708106995,0.46058404445648193,0.7071679830551147
1772094616858260200,4.01826025390625,-0.07456760853528976,0.35599929094314575,0.6564708352088928
1772094616868209200,4.028209228515625,-0.07750879973173141,0.11880190670490265,0.5761128664016724
1772094616878159400,4.038159423828125,-0.10168823599815369,-0.23585361242294312,0.428116112947464
1772094616888108300,4.0481083984375,-0.13659986853599548,-0.6857483386993408,0.20127522945404053
1772094616898057200,4.05805712890625,-0.15506207942962646,-1.0828301906585693,-0.021138876676559448
1772094616908007200,4.068007080078125,-0.15451133251190186,-1.2875865697860718,-0.09898893535137177
1772094616917956400,4.077956298828125,-0.16482341289520264,-1.2615288496017456,-0.017426015809178352
1772094616927905300,4.0879052734375,-0.20408985018730164,-1.0591381788253784,0.11620873957872391
1772094616937855200,4.097855224609375,-0.2851281762123108,-0.845045268535614,0.19889487326145172
1772094616947804200,4.10780419921875,-0.3909864127635956,-0.5790902376174927,0.22742345929145813
1772094616957754000,4.117754150390625,-0.46971678733825684,-0.23545534908771515,0.24281738698482513
1772094616967703300,4.127703369140625,-0.49818649888038635,0.06054515391588211,0.23581141233444214
1772094616977652200,4.13765234375,-0.4677208662033081,0.26975300908088684,0.2298111468553543
1772094616987602200,4.147602294921875,-0.4058857262134552,0.2791377305984497,0.24284279346466064
1772094616997551000,4.157551025390625,-0.3370882570743561,0.08365391939878464,0.25595083832740784
1772094617007501000,4.1675009765625,-0.3110177516937256,-0.17933882772922516,0.27527526021003723
1772094617017450200,4.1774501953125,-0.33300909399986267,-0.4301066994667053,0.27265408635139465
1772094617027399400,4.1873994140625,-0.39435046911239624,-0.5069993734359741,0.26048076152801514
1772094617037349000,4.19734912109375,-0.47276854515075684,-0.3998088836669922,0.24592439830303192
1772094617047298300,4.20729833984375,-0.5369651317596436,-0.20635125041007996,0.19930364191532135
1772094617057247200,4.217247314453125,-0.5705094337463379,0.055207379162311554,0.1284756362438202
1772094617067197400,4.227197509765625,-0.5833762288093567,0.3444865942001343,0.03506632149219513
1772094617077146400,4.237146484375,-0.5679187774658203,0.6355786323547363,-0.04416999965906143
1772094617087096300,4.247096435546875,-0.5178942084312439,0.8860965967178345,-0.07072225213050842
1772094617097045200,4.257045166015625,-0.44294342398643494,1.0448561906814575,-0.035817623138427734
1772094617106994200,4.266994140625,-0.3729150593280792,1.1025426387786865,0.04406309500336647
1772094617116944400,4.2769443359375,-0.3058317303657532,1.0474342107772827,0.17296674847602844
1772094617126893300,4.286893310546875,-0.2541877031326294,0.9253231883049011,0.3283699154853821
1772094617136842200,4.29684228515625,-0.21512983739376068,0.7722426056861877,0.4629952907562256
1772094617146792200,4.306792236328125,-0.19930879771709442,0.5863171815872192,0.5551379919052124
1772094617156741000,4.3167412109375,-0.19718937575817108,0.3952784836292267,0.6223613023757935
1772094617166691300,4.32669140625,-0.18655617535114288,0.20601105690002441,0.6835362315177917
1772094617176640300,4.33664013671875,-0.1399470865726471,0.067267045378685,0.7309086322784424
1772094617186589200,4.346589111328125,-0.05832678824663162,-0.0008233296684920788,0.7727309465408325
1772094617196539100,4.3565390625,0.0398215651512146,-0.05383037030696869,0.8029323816299438
1772094617206488000,4.366488037109375,0.1541697233915329,-0.11703357100486755,0.8000921010971069
1772094617216437200,4.376437255859375,0.2533588409423828,-0.18862664699554443,0.7870499491691589
1772094617226387200,4.38638720703125,0.3105454444885254,-0.2528229355812073,0.773813784122467
1772094617236336000,4.396336181640625,0.31231406331062317,-0.2751197814941406,0.7821864485740662
1772094617246286000,4.4062861328125,0.2678171694278717,-0.2435096651315689,0.7961632609367371
1772094617256235000,4.416235107421875,0.19118337333202362,-0.15232223272323608,0.7862538695335388
1772094617266184400,4.426184326171875,0.10966640710830688,-0.01189214177429676,0.7452310919761658
1772094617276134100,4.436134033203125,0.04606843739748001,0.15980306267738342,0.7046325206756592
1772094617286083300,4.446083251953125,0.01874599978327751,0.39639511704444885,0.676180899143219
1772094617296033000,4.456032958984375,0.021863963454961777,0.6715103983879089,0.6379215717315674
1772094617305982500,4.465982421875,0.05821637809276581,0.9166325330734253,0.5761159658432007
1772094617315931400,4.475931396484375,0.13827134668827057,1.1081708669662476,0.5163794159889221
1772094617325881300,4.48588134765625,0.25830668210983276,1.161311388015747,0.5033283829689026
1772094617335830300,4.495830322265625,0.363525390625,1.0079138278961182,0.49915099143981934
1772094617345779200,4.505779296875,0.39053571224212646,0.6642715334892273,0.4368745684623718
1772094617355729400,4.5157294921875,0.3193541467189789,0.22016732394695282,0.28284844756126404
1772094617365678300,4.52567822265625,0.1624729186296463,-0.1402694284915924,0.04176073893904686
1772094617375628300,4.535628173828125,-0.03602619469165802,-0.35300391912460327,-0.24493269622325897
1772094617385577200,4.5455771484375,-0.22931629419326782,-0.5080091953277588,-0.5307748317718506
1772094617395526100,4.555526123046875,-0.35657331347465515,-0.67603999376297,-0.7620559334754944
1772094617405476400,4.565476318359375,-0.4053419232368469,-0.8247352242469788,-0.8940664529800415
1772094617415425300,4.57542529296875,-0.4057843089103699,-0.9023589491844177,-0.9038893580436707
1772094617425375200,4.585375244140625,-0.3698979616165161,-0.8724045157432556,-0.7896714806556702
1772094617435324200,4.59532421875,-0.3083069324493408,-0.7246987819671631,-0.5955997109413147
1772094617445273000,4.605273193359375,-0.2611900269985199,-0.4570109248161316,-0.4179426431655884
1772094617455223300,4.615223388671875,-0.23658907413482666,-0.1378534436225891,-0.3379676342010498
1772094617465172200,4.625172119140625,-0.23241856694221497,0.15434539318084717,-0.3791835308074951
1772094617475121200,4.63512109375,-0.25726765394210815,0.39254477620124817,-0.5075412392616272
1772094617485071000,4.645071044921875,-0.29280567169189453,0.5664113759994507,-0.6559703946113586
1772094617495020000,4.65502001953125,-0.34064874053001404,0.6930885314941406,-0.7738593816757202
1772094617504970200,4.66497021484375,-0.3886492848396301,0.760526180267334,-0.851719081401825
1772094617514919200,4.674919189453125,-0.41006219387054443,0.7329082489013672,-0.9105976819992065
1772094617524868400,4.684868408203125,-0.4003773629665375,0.6432417631149292,-0.9516319632530212
1772094617534818000,4.694818115234375,-0.347140371799469,0.5369991660118103,-0.9796333312988281
1772094617544767200,4.704767333984375,-0.29942986369132996,0.450938880443573,-0.9889072775840759
1772094617554716400,4.71471630859375,-0.24575844407081604,0.400309294462204,-0.9751718044281006
1772094617564666400,4.724666259765625,-0.20413589477539062,0.3554249107837677,-0.9469276070594788
1772094617574615300,4.734615234375,-0.16659291088581085,0.2888053357601166,-0.9196319580078125
1772094617584565200,4.744565185546875,-0.12976086139678955,0.21271800994873047,-0.8800592422485352
1772094617594514200,4.75451416015625,-0.101832315325737,0.16286689043045044,-0.8428117036819458
1772094617604463400,4.76446337890625,-0.05476706847548485,0.09584950655698776,-0.8062055110931396
1772094617614413300,4.774413330078125,0.01735880598425865,0.018325358629226685,-0.7535977363586426
1772094617624362200,4.7843623046875,0.10765567421913147,-0.06615863740444183,-0.6881396174430847
1772094617634311200,4.794311279296875,0.19926413893699646,-0.09750042110681534,-0.6221607327461243
1772094617644261000,4.80426123046875,0.28139257431030273,-0.07092713564634323,-0.581519603729248
1772094617654210300,4.814210205078125,0.3611287772655487,-0.06070254370570183,-0.5953356027603149
1772094617664160300,4.82416015625,0.4404853880405426,0.0012071619275957346,-0.6678473949432373
1772094617674109200,4.834109130859375,0.5009915828704834,0.12754668295383453,-0.7919025421142578
1772094617684058000,4.84405810546875,0.5522252321243286,0.2660701870918274,-0.8964880704879761
1772094617694008300,4.85400830078125,0.5921486020088196,0.34366172552108765,-0.8966109752655029
1772094617703957200,4.863957275390625,0.6128925085067749,0.2285202443599701,-0.7809627056121826
1772094617713906200,4.87390625,0.6200351715087891,0.003734613535925746,-0.5500450134277344
1772094617723856100,4.883856201171875,0.6095852255821228,-0.1883770376443863,-0.24792887270450592
1772094617733805000,4.89380517578125,0.5803146362304688,-0.3444138169288635,0.06490597128868103
1772094617743755300,4.90375537109375,0.5272015929222107,-0.4930778741836548,0.3339685797691345
1772094617753704200,4.9137041015625,0.45810773968696594,-0.6949136257171631,0.5346927642822266
1772094617763653400,4.9236533203125,0.3883534073829651,-0.9657410979270935,0.6600182056427002
1772094617773603300,4.933603271484375,0.3518947958946228,-1.243156909942627,0.7106177806854248
1772094617783552300,4.94355224609375,0.3440725803375244,-1.4244199991226196,0.6798194050788879
1772094617793502200,4.953502197265625,0.3193211853504181,-1.4350215196609497,0.6232772469520569
1772094617803451400,4.963451416015625,0.2495034784078598,-1.290021300315857,0.5529679656028748
1772094617813400300,4.973400390625,0.14859092235565186,-1.1635632514953613,0.4631681442260742
1772094617823350300,4.983350341796875,0.039439402520656586,-1.0857677459716797,0.3868454098701477
1772094617833299200,4.99329931640625,-0.0538543164730072,-1.005782127380371,0.34422311186790466
1772094617843248000,5.003248046875,-0.13021381199359894,-0.8653132319450378,0.34591659903526306
1772094617853198300,5.0131982421875,-0.18620020151138306,-0.645796000957489,0.3807350993156433
1772094617863147300,5.023147216796875,-0.2223648726940155,-0.40003979206085205,0.43350857496261597
1772094617873097200,5.03309716796875,-0.21832774579524994,-0.14705000817775726,0.49437397718429565
1772094617883046100,5.043046142578125,-0.1539253294467926,0.10390977561473846,0.5536583065986633
1772094617892995300,5.052995361328125,-0.06121702492237091,0.3296062648296356,0.6162667274475098
1772094617902945300,5.0629453125,0.01966956816613674,0.454021692276001,0.6744690537452698
1772094617912894200,5.072894287109375,0.086863674223423,0.5235326290130615,0.737418532371521
1772094617922843100,5.082843017578125,0.14317966997623444,0.5223032832145691,0.7710779309272766
1772094617932793000,5.09279296875,0.16627489030361176,0.4350399971008301,0.7491792440414429
1772094617942742300,5.1027421875,0.17484228312969208,0.31721562147140503,0.6713331937789917
1772094617952692200,5.112692138671875,0.15503232181072235,0.20337550342082977,0.54544597864151
1772094617962641200,5.12264111328125,0.12525126338005066,0.09282555431127548,0.4228081703186035
1772094617972590300,5.13259033203125,0.0970514640212059,0.03443208709359169,0.32551419734954834
1772094617982540000,5.1425400390625,0.05888090282678604,0.029418684542179108,0.24086962640285492
1772094617992489200,5.1524892578125,0.005776108242571354,0.032472435384988785,0.14938031136989594
1772094618002438400,5.1624384765625,-0.05896906554698944,0.07276979088783264,0.061099179089069366
1772094618012388400,5.172388427734375,-0.10053891688585281,0.18451781570911407,-0.005128206219524145
1772094618022337300,5.182337158203125,-0.12762486934661865,0.28839388489723206,-0.04753558337688446
1772094618032287200,5.192287353515625,-0.13362306356430054,0.3348056674003601,-0.07077310234308243
1772094618042236400,5.202236328125,-0.10088242590427399,0.35946202278137207,-0.06056307256221771
1772094618052185300,5.212185302734375,-0.0469667986035347,0.3703724443912506,-0.005254113581031561
1772094618062135300,5.22213525390625,-0.010773643851280212,0.3193633258342743,0.05966123566031456
1772094618072084200,5.232084228515625,0.005814801435917616,0.23873630166053772,0.11825384944677353
1772094618082033200,5.242033203125,0.022483261302113533,0.11866287887096405,0.15673786401748657
1772094618091983400,5.2519833984375,0.04195842146873474,0.0056593650951981544,0.19248466193675995
1772094618101932300,5.261932373046875,0.051790282130241394,-0.08503618836402893,0.24606959521770477
1772094618111882200,5.27188232421875,0.05861804634332657,-0.10007644444704056,0.3094138205051422
1772094618121831200,5.2818310546875,0.07344679534435272,-0.02594096213579178,0.36297160387039185
1772094618131780000,5.291780029296875,0.09465309232473373,0.06510496139526367,0.38047924637794495
1772094618141730300,5.301730224609375,0.11715919524431229,0.1421446055173874,0.3578658103942871
1772094618151679200,5.31167919921875,0.14470680058002472,0.1693420708179474,0.2971120774745941
1772094618161629200,5.321629150390625,0.17235946655273438,0.09546331316232681,0.22686322033405304
1772094618171578000,5.331578125,0.184418722987175,-0.013341153971850872,0.1879173368215561
1772094618181527000,5.341527099609375,0.18660464882850647,-0.07993749529123306,0.19851191341876984
1772094618191477200,5.351477294921875,0.14941619336605072,-0.1260676085948944,0.23339876532554626
1772094618201426200,5.36142626953125,0.08508247882127762,-0.18698981404304504,0.2548326849937439
1772094618211375400,5.371375244140625,0.006729064043611288,-0.29019173979759216,0.2286088466644287
1772094618221325000,5.381324951171875,-0.07093057781457901,-0.41603222489356995,0.1520586758852005
1772094618231274200,5.391274169921875,-0.14355266094207764,-0.5171653628349304,0.0636606216430664
1772094618241224200,5.40122412109375,-0.20105670392513275,-0.5439549088478088,-0.02820032648742199
1772094618251173400,5.41117333984375,-0.2201925367116928,-0.5287178158760071,-0.10861031711101532
1772094618261122300,5.421122314453125,-0.21637223660945892,-0.48839354515075684,-0.16465574502944946
1772094618271072300,5.431072265625,-0.2181801199913025,-0.43584078550338745,-0.19906504452228546
1772094618281021200,5.441021240234375,-0.24900780618190765,-0.38181349635124207,-0.24954524636268616
1772094618290971100,5.45097119140625,-0.2711816132068634,-0.31888753175735474,-0.317070871591568
1772094618300920000,5.460920166015625,-0.25856250524520874,-0.25050315260887146,-0.37101560831069946
1772094618310869000,5.470868896484375,-0.21572759747505188,-0.23053935170173645,-0.39869269728660583
1772094618320819200,5.480819091796875,-0.17007409036159515,-0.2556106150150299,-0.4167332053184509
1772094618330768100,5.49076806640625,-0.11571997404098511,-0.22970768809318542,-0.4098206162452698
1772094618340717000,5.500717041015625,-0.08162379264831543,-0.2125750333070755,-0.38272374868392944
1772094618350667000,5.5106669921875,-0.11328287422657013,-0.19732682406902313,-0.3536165952682495
1772094618360616000,5.520615966796875,-0.16602757573127747,-0.010738573037087917,-0.3423980474472046
1772094618370564900,5.53056494140625,-0.1791825145483017,0.3459676206111908,-0.34823089838027954
1772094618380515000,5.54051513671875,-0.13717222213745117,0.7170860767364502,-0.37851130962371826
1772094618390464000,5.550464111328125,-0.06239887699484825,0.8849635124206543,-0.41879627108573914
1772094618400414000,5.5604140625,0.04417284205555916,0.9442760944366455,-0.34815725684165955
1772094618410363000,5.57036279296875,0.19394244253635406,1.0012918710708618,-0.14299608767032623
1772094618420311800,5.580311767578125,0.3301708698272705,0.9626493453979492,0.13487812876701355
1772094618430262000,5.590261962890625,0.4148795008659363,0.7825161218643188,0.3980347216129303
1772094618440211000,5.6002109375,0.4272291362285614,0.5260348320007324,0.5632016062736511
1772094618450161000,5.610160888671875,0.3677414655685425,0.259233295917511,0.585645318031311
1772094618460109800,5.62010986328125,0.2921724021434784,0.024086561053991318,0.49475404620170593
1772094618470059000,5.63005908203125,0.23537518084049225,-0.11022437363862991,0.3574009835720062
1772094618480009000,5.640009033203125,0.21623636782169342,-0.10295527428388596,0.240041583776474
1772094618489958100,5.649958251953125,0.21746595203876495,0.022607440128922462,0.17508602142333984
1772094618499907000,5.659906982421875,0.22969678044319153,0.15020215511322021,0.14748822152614594
1772094618509857000,5.66985693359375,0.2633112072944641,0.2644966244697571,0.1574849784374237
1772094618519806200,5.67980615234375,0.32680976390838623,0.39558646082878113,0.18437331914901733
1772094618529756200,5.689756103515625,0.4043334126472473,0.5126032829284668,0.23286405205726624
1772094618539705000,5.699705078125,0.46956783533096313,0.5660499930381775,0.3043563663959503
1772094618549654000,5.709654052734375,0.504577100276947,0.5329088568687439,0.4094490706920624
1772094618559604000,5.71960400390625,0.48799648880958557,0.41116487979888916,0.5290255546569824
1772094618569553200,5.72955322265625,0.4485984146595001,0.2969031035900116,0.6457558274269104
1772094618579502000,5.739502197265625,0.4234027862548828,0.1843952089548111,0.7278121113777161
1772094618589452000,5.7494521484375,0.4095764458179474,0.022979414090514183,0.7641969919204712
1772094618599401000,5.75940087890625,0.40596652030944824,-0.11857185512781143,0.7568109631538391
1772094618609351000,5.769350830078125,0.43459635972976685,-0.1418924629688263,0.7152680158615112
1772094618619300000,5.779300048828125,0.5047738552093506,-0.03548240661621094,0.6449093818664551
1772094618629249000,5.7892490234375,0.5909256339073181,0.17236120998859406,0.5212832093238831
1772094618639199000,5.799198974609375,0.6862433552742004,0.5134895443916321,0.3960326015949249
1772094618649148000,5.80914794921875,0.7748535871505737,0.8211948871612549,0.33982565999031067
1772094618659098000,5.81909814453125,0.8088515400886536,0.9691566228866577,0.3483733534812927
1772094618669047000,5.829047119140625,0.7681778073310852,0.9929163455963135,0.35955721139907837
1772094618678996000,5.838995849609375,0.6456396579742432,0.9435125589370728,0.3134901225566864
1772094618688946000,5.84894580078125,0.44190770387649536,0.8298506736755371,0.30192190408706665
1772094618698895000,5.85889501953125,0.138096421957016,0.352768212556839,0.27803176641464233
1772094618708844000,5.868843994140625,0.03432907909154892,0.0641971006989479,0.1637158989906311
1772094618718794000,5.8787939453125,0.19669774174690247,0.14784379303455353,0.023270906880497932
1772094618728743200,5.8887431640625,0.2731659412384033,0.10050217807292938,-0.12137933820486069
1772094618738693000,5.898693115234375,0.21960069239139557,0.05697627738118172,-0.22218875586986542
1772094618748642000,5.90864208984375,0.02151062712073326,-0.05563707277178764,-0.2693858742713928
1772094618758591000,5.918591064453125,-0.32432109117507935,-0.1393713802099228,-0.3318101167678833
1772094618768541200,5.928541259765625,-0.746871829032898,-0.1851983666419983,-0.48268261551856995
1772094618778490000,5.938489990234375,-1.173030138015747,-0.060611702501773834,-0.7050192356109619
