time,seconds_elapsed,z,y,x
1772045252743617000,0.018616943359375,1.4174813645809887,0.33312691597789523,-1.8943597488895056
1772045252753602000,0.02860205078125,1.7701807037740944,0.15194851105064153,-1.9050163135908542
1772045252763587800,0.038587890625,1.9508944137990474,0.019625322446227073,-1.9576327821433543
1772045252773574000,0.048573974609375,2.000259625470638,-0.004273147274553775,-1.9745874240756034
1772045252783560000,0.058559814453125,1.96327283385694,0.018042729429900647,-1.8671017396077512
1772045252793546000,0.0685458984375,1.8534440933942793,0.13955693925023077,-1.7018519945658743
1772045252803532000,0.078531982421875,1.6939987968474626,0.2989551817849278,-1.5294956323891877
1772045252813517000,0.08851708984375,1.5590969899266958,0.3968348335176706,-1.4309895193211732
1772045252823503000,0.098503173828125,1.5641285543531178,0.44016485667824745,-1.4115356079190968
1772045252833489000,0.108489013671875,1.640447823923826,0.3699301677182317,-1.4535923962734638
1772045252843475200,0.11847509765625,1.7560563168317078,0.19641893641799688,-1.4924807837247847
1772045252853461000,0.1284609375,1.8564725013047456,0.05424129327535629,-1.5139748226523397
1772045252863447000,0.138447021484375,1.9034955337643622,-0.0035357729107141495,-1.5433526005670428
1772045252873433000,0.14843310546875,1.9217419690728186,-0.05380757803320885,-1.4245526181414723
1772045252883418000,0.158418212890625,1.9521295085519552,-0.06735474960952997,-1.2140866708662361
1772045252893404000,0.16840380859375,2.206758934137225,0.15048632954359054,-1.1092232977259904
1772045252903390200,0.17839013671875,2.563732297387719,0.3586564940318465,-1.024671914121881
1772045252913376000,0.1883759765625,2.844109912213683,0.271276316742599,-0.8100668212153017
1772045252923362000,0.198362060546875,3.0662679777830837,-0.019259119482338428,-0.6389132589571178
1772045252933347800,0.208347900390625,3.223355313026905,-0.4029012939497828,-0.5800750663455575
1772045252943333000,0.2183330078125,3.18380773101449,-0.6612745822384953,-0.5236374320697039
1772045252953319200,0.228319091796875,3.0591011548936367,-0.6098153208971023,-0.5448756696052849
1772045252963305000,0.238304931640625,2.881892822641134,-0.3884837692797184,-0.643427448445931
1772045252973291300,0.248291259765625,2.6330723755955696,0.011453121906518935,-0.5837358538754284
1772045252983277000,0.258277099609375,2.4094845694839955,0.5438511488631368,-0.6570603255443275
1772045252993263000,0.26826318359375,2.1154531078368426,0.8308554883524775,-0.8961114390518515
1772045253003249200,0.278249267578125,1.6752631167173384,0.985023429018259,-0.8903891889475285
1772045253013234200,0.288234130859375,1.196507540360093,1.0336261318847537,-0.9042038523536174
1772045253023220000,0.298219970703125,0.7493395269215106,0.5894760049626231,-1.0437050428286194
1772045253033206000,0.3082060546875,0.4256488400697708,-0.032571605519950385,-1.1071498524527996
1772045253043192000,0.318192138671875,0.4484925400406122,-0.3014090046778321,-1.1287253591187298
1772045253053178000,0.32817822265625,0.7693219922423362,-0.2684890241116285,-1.1349798164036125
1772045253063164000,0.338163818359375,1.031303534156084,-0.39767859086543317,-0.9797351133517921
1772045253073150200,0.348150146484375,1.3936451464414596,-0.4924874568507075,-0.7948452136207371
1772045253083135200,0.35813525390625,1.4439543609648942,-0.7519476635932922,-0.44057621395811436
1772045253093121000,0.36812109375,1.561660702934861,-0.9815607213437557,-0.2543424253374338
1772045253103107000,0.378107177734375,1.525511531189084,-1.1701707375764847,-0.18118264271095394
1772045253113093000,0.388093017578125,1.3555898488134146,-1.3141770574510097,-0.16176131840422747
1772045253123079200,0.3980791015625,0.8544447459936142,-1.4511837276965378,-0.0858652426816523
1772045253133065000,0.40806494140625,1.0545651672780514,-1.23510001360476,0.3812064717531204
1772045253143051300,0.41805126953125,1.2217770061731337,-0.6878218129023909,1.0433044992037117
1772045253153036000,0.4280361328125,1.5483552311599253,-0.4987497321158647,1.6361831522166728
1772045253163022000,0.43802197265625,1.8530279138088226,-0.016647183418273925,2.2978429343804714
1772045253173008000,0.4480078125,2.1623224110394714,0.8898544975489378,2.3667627413496373
1772045253182994200,0.457994140625,2.157925637385249,1.499765095514059,2.3393067252777517
1772045253192980000,0.46797998046875,1.9019003735274076,1.7447098701700567,2.4869971404924986
1772045253202966000,0.477966064453125,1.5580197160840032,1.7415020140394568,2.1940447062537074
1772045253212952000,0.4879521484375,0.8978215309053659,1.2061805008515716,1.5384607368722558
1772045253222937000,0.49793701171875,0.5975432838231325,1.3270099432781337,1.1743477310001849
1772045253232923100,0.507923095703125,0.42319618622064586,1.7456372141480445,1.209930208773911
1772045253242909000,0.517908935546875,0.6291986512809992,1.9915955497607587,1.3760302870348096
1772045253252895200,0.527895263671875,0.9285030848950148,2.5223361648991705,1.6413500334605573
1772045253262881000,0.537881103515625,1.0121230328679085,2.767364526185393,1.8853803236201405
1772045253272867000,0.5478671875,-0.2990337999790907,2.81534822037071,1.858663289347291
1772045253282851800,0.557851806640625,0.18356793041229247,2.903213843089342,2.3399124360859394
1772045253292838100,0.567838134765625,0.5938385840862989,2.97197992080152,2.2736434358865023
1772045253302824000,0.577823974609375,0.17449264355301855,2.9769097784191367,1.926918494927883
1772045253312810000,0.58781005859375,0.009610708910226822,3.318173239101469,1.6216817486554382
1772045253322796000,0.597796142578125,-0.38265550151765343,3.4254800598710773,1.4286089077949522
1772045253332782000,0.607781982421875,-0.661375996786356,3.3581261870443817,1.3207839083701371
1772045253342767900,0.617767822265625,-0.7458738966375589,3.310170842170715,0.9924047714412212
1772045253352753200,0.627753173828125,-0.9013286622434854,3.0407717174768445,0.4433873258560896
1772045253362739200,0.6377392578125,-1.0769807049646973,2.772062328612804,-0.16817863810062408
1772045253372725000,0.64772509765625,-1.0454241217061877,2.6154163073956966,-0.637214784476161
1772045253382711000,0.6577109375,-0.7167854570582508,2.640091314446926,-0.8282967437803744
1772045253392697000,0.667697021484375,-0.3260033477082848,2.76738907610476,-0.6701081692963838
1772045253402683100,0.67768310546875,-0.055151393857598305,2.8553847549438474,-0.20415654493272303
1772045253412669000,0.6876689453125,-0.0881888633236289,2.743160643777251,0.3381809844970703
1772045253422655200,0.6976552734375,-0.3378594974577427,2.5543518901020286,0.49054246026277537
1772045253432640000,0.707639892578125,-0.6040010816603899,2.399939619286358,0.15326748469471932
1772045253442626000,0.7176259765625,-0.8900485588163137,2.201299791948497,-0.4805179098546505
1772045253452612000,0.727612060546875,-1.0651016127310693,1.8986917867444455,-1.0432903245478868
1772045253462598100,0.73759814453125,-1.0076092087052761,1.520314400937408,-1.3881155693650244
1772045253472584000,0.747583984375,-0.7771019785940647,1.2621199763469397,-1.578807652568817
1772045253482570000,0.757570068359375,-0.48175242008566854,1.0614116721719502,-1.7026970670878887
1772045253492556000,0.76755615234375,-0.3409411333927885,0.8279136627469211,-1.9372604407221077
1772045253502541000,0.777541015625,-0.37933015648722646,0.6543377687126398,-2.2235931645601985
1772045253512527000,0.787527099609375,-0.47435763365924355,0.5215050962161273,-2.4136095404595137
1772045253522513200,0.79751318359375,-0.567939003676176,0.4181140606507659,-2.6187702939987183
1772045253532499200,0.807499267578125,-0.6863608004391193,0.2974846708409488,-2.8031647383630274
1772045253542485000,0.817485107421875,-0.7044470767498016,0.1338821084842086,-2.874337877216935
1772045253552471000,0.827470947265625,-0.6255810453057289,0.023973726914077995,-2.8228514356076717
1772045253562457000,0.83745703125,-0.49931847191452977,-0.04221928543969988,-2.762940864524245
1772045253572442000,0.847442138671875,-0.346506914293766,-0.05345131194144487,-2.6947721681833268
1772045253582428000,0.857427978515625,-0.15634667294435203,-0.036601007166504856,-2.5194939272105694
1772045253592414200,0.867414306640625,0.06554952681846916,-0.08015227186232805,-2.22221077029109
1772045253602400000,0.87739990234375,0.32818799827098843,-0.19385405436605213,-2.1104186208009716
1772045253612386000,0.887385986328125,0.5499321492772549,-0.2934051464423537,-2.0671867973178624
1772045253622372000,0.8973720703125,0.7100912931818515,-0.37231238667964933,-2.088888926038146
1772045253632358100,0.907358154296875,0.7653682861804961,-0.4955015439748764,-2.2209902885854245
1772045253642343200,0.91734326171875,0.6850643308877945,-0.6430135338827967,-2.441542672523856
1772045253652329000,0.927328857421875,0.6093512105166912,-0.701561292180419,-2.660361949059367
1772045253662315000,0.93731494140625,0.5388204612195492,-0.6479053975775837,-2.8798773911654947
1772045253672301000,0.947301025390625,0.38102410092353817,-0.41615474327653645,-3.035202392911911
1772045253682287000,0.957287109375,0.2191021851301193,-0.2678866743043065,-3.074074267619848
1772045253692273200,0.967273193359375,0.10059380606226623,-0.12625351330190895,-3.145156805580854
1772045253702259000,0.977259033203125,0.00457096117734909,0.09453034130483866,-3.2614953663289543
1772045253712244000,0.987243896484375,-0.10240713909454643,0.194592890034616,-3.3491052607208487
1772045253722230000,0.99722998046875,-0.13478490254282952,0.1475324481740594,-3.4692677636712785
1772045253732216000,1.007216064453125,-0.15638671269379556,0.07520633989274501,-3.7616263236701486
1772045253742202000,1.0172021484375,-0.22580767411813138,-0.08911796086728573,-4.067469803664088
1772045253752188000,1.02718798828125,-0.2194599125266075,-0.2909972085177898,-4.2621085786670445
1772045253762174200,1.03717431640625,-0.11616890326961875,-0.10112170239388941,-4.608993094101548
1772045253772160000,1.047159912109375,0.032788170880079265,0.28807839846163985,-4.830022447901964
1772045253782145300,1.057145263671875,0.07959668380618094,0.6148784495055675,-4.788735328745842
1772045253792131300,1.06713134765625,-0.00218026664853096,0.567515809828043,-4.354066146874428
1772045253802117400,1.077117431640625,-0.11152107746377586,0.2882745055556297,-3.7643379207164047
1772045253812103200,1.087103271484375,-0.21503288986459373,0.0873112037062645,-3.3587422731161114
1772045253822089500,1.09708935546875,-0.22909181035533546,-0.1664391009569168,-3.002700637757778
1772045253832075300,1.1070751953125,-0.23863690668344495,-0.49372635099589823,-2.731521643909812
1772045253842061300,1.117061279296875,-0.2709785028398037,-0.7879384299069643,-2.5507173329919577
1772045253852046300,1.12704638671875,-0.2675159412957728,-1.024119760131836,-2.3335452391415834
1772045253862032400,1.137032470703125,-0.27811785320043564,-1.2744278153866528,-2.0466490362018344
1772045253872018400,1.147018310546875,-0.37220936469659205,-1.5743343065470456,-1.7286960162192582
1772045253882004200,1.157004150390625,-0.4605097986359149,-1.8819412890821694,-1.4199468779116868
1772045253891990500,1.166990478515625,-0.4832778760872781,-2.1234330006748436,-1.1662404123902321
1772045253901976300,1.176976318359375,-0.4194143295943737,-2.2869781337559223,-1.003199721699953
1772045253911962400,1.18696240234375,-0.3201170661486685,-2.3661446094512937,-0.8992547785788774
1772045253921947100,1.196947021484375,-0.19436404971480367,-2.336191954258084,-0.8047685686767101
1772045253931933400,1.206933349609375,-0.05651961347088218,-2.27459854465425,-0.6585626929312944
1772045253941919200,1.216919189453125,0.07665770774483681,-2.1909441098898648,-0.514857401829958
1772045253951905300,1.2269052734375,0.1390074886739254,-2.005484082120657,-0.3661702306628227
1772045253961891300,1.236891357421875,0.2119989289961755,-1.8204460791558026,-0.19974457370936868
1772045253971877400,1.24687744140625,0.27958493007831275,-1.5940069752663373,-0.034221418553590774
1772045253981863200,1.25686328125,0.34566417985931036,-1.2935536638781429,0.12958090415894985
1772045253991848200,1.26684814453125,0.34023967059254645,-0.9827809107884764,0.30730478471815587
1772045254001834500,1.27683447265625,0.2878736696697771,-0.7092126837164163,0.5295651416182517
1772045254011820300,1.2868203125,0.1960708536326885,-0.47567777634710073,0.7607832964777946
1772045254021806300,1.296806396484375,0.06727963854670524,-0.2908648143097758,0.9720476275891065
1772045254031792400,1.30679248046875,-0.045403322303295135,-0.1625546607390046,1.1995593291461466
1772045254041778400,1.3167783203125,-0.11850962117686867,-0.10170563976168633,1.3640256687253713
1772045254051764200,1.32676416015625,-0.17612813580036163,-0.10430442408323287,1.4563953248649835
1772045254061749500,1.33674951171875,-0.2179516999207437,-0.12322685895711183,1.5000696314185857
1772045254071735300,1.3467353515625,-0.2363222000002861,-0.14715776964277028,1.52066993637681
1772045254081721300,1.356721435546875,-0.25759865065440535,-0.1932853145673871,1.5689952836066483
1772045254091707100,1.36670703125,-0.2577273916006088,-0.18653467126339673,1.658316658091545
1772045254101693400,1.376693359375,-0.279061344595626,-0.13669219746887684,1.8090555010914802
1772045254111679200,1.38667919921875,-0.3106137631356716,-0.12144085232317448,1.9893191292613743
1772045254121665300,1.396665283203125,-0.31070838261656464,-0.07146773788630963,2.1567980946600436
1772045254131650600,1.406650634765625,-0.28542320777773855,-0.01227203707396984,2.2425182297825814
1772045254141636400,1.41663623046875,-0.19680501312613485,0.047338966540992254,2.2225433632463214
1772045254151622400,1.426622314453125,-0.0845440770804882,0.10977934836298227,2.12483819129765
1772045254161608400,1.4366083984375,-0.0064577978372573844,0.14994301644712685,1.985416276603937
1772045254171594500,1.446594482421875,0.07248889762759209,0.22313334034234283,1.8232734115362166
1772045254181580300,1.456580322265625,0.1399613553326577,0.29132775564640756,1.6950561969459055
1772045254191566300,1.46656640625,0.18708076083883643,0.2808551692098379,1.5976608215987682
1772045254201551400,1.47655126953125,0.1746819555800408,0.23814853864461183,1.4613076468259096
1772045254211537400,1.486537353515625,0.16155001374110578,0.19400486101359127,1.2937410031437873
1772045254221523200,1.496523193359375,0.14002689484953879,0.10182955840229987,1.0746803190678358
1772045254231509500,1.506509521484375,0.10893836749419569,-0.061550447244942186,0.8759089743047952
1772045254241495300,1.516495361328125,0.07733107696175574,-0.3304562354639172,0.7148322771638631
1772045254251481300,1.5264814453125,0.13684599979110063,-0.6010562603801488,0.551172577792406
1772045254261467400,1.53646728515625,0.2384790857732296,-0.7778340922608971,0.3838935188800096
1772045254271452400,1.546452392578125,0.34243396576642987,-0.8313733747467398,0.26776480149030685
1772045254281438500,1.5564384765625,0.4042226787466556,-0.7965560361266135,0.1891957071661949
1772045254291424300,1.56642431640625,0.4117488364677876,-0.7013865201354026,0.10456745893359183
1772045254301410600,1.57641064453125,0.3817406516950577,-0.5013318575635552,-0.017056348741054533
1772045254311396400,1.586396240234375,0.3762239341001957,-0.2523813543975353,-0.16852935123443602
1772045254321382400,1.59638232421875,0.3810862063743174,-0.008490472708642482,-0.32279519931674
1772045254331367200,1.6063671875,0.41931627604737876,0.1688876631528139,-0.47464580295085906
1772045254341353500,1.616353515625,0.5056066122733056,0.21872224590182304,-0.6287076528936624
1772045254351339300,1.62633935546875,0.6188799402318894,0.11288958933800458,-0.7618085478723049
1772045254361325300,1.6363251953125,0.7775567366242409,-0.03586012567132711,-0.9994663803905248
1772045254371311400,1.646311279296875,1.0320446348469703,0.09722381817251444,-1.4994862785726786
1772045254381297400,1.65629736328125,1.2246563610017298,0.6322545317202806,-2.094288154733181
1772045254391283200,1.666283203125,1.2159985689021646,1.0831249068081379,-2.4655220985263586
1772045254401268200,1.676268310546875,1.0637139577649533,1.284711016730964,-2.629160755109787
1772045254411254500,1.686254638671875,0.8763688469015062,1.3198977731853723,-2.7029034521907565
1772045254421240300,1.696240234375,0.7102525481581687,1.2756769386649132,-2.8018238451480864
1772045254431226400,1.706226318359375,0.5426502486407756,1.1414549307018518,-2.8934903214544057
1772045254441212400,1.71621240234375,0.37541027962975204,0.9189674870476127,-2.9778280623078346
1772045254451198500,1.726198486328125,0.21979089804664254,0.6883104732021689,-3.015755934163928
1772045254461183200,1.736183349609375,0.04135959987044334,0.3497454578235745,-2.9795979945898052
1772045254471169300,1.746169189453125,-0.1860813745379448,-0.08315086915642023,-2.8673469954162836
1772045254481155300,1.7561552734375,-0.40593525481820103,-0.5123834129318595,-2.6356518706947565
1772045254491141400,1.766141357421875,-0.576811899831146,-0.8234642090573906,-2.359180615657568
1772045254501127200,1.776127197265625,-0.706563045990467,-0.9618716860115527,-2.0960399668365715
1772045254511113500,1.786113525390625,-0.8195593836385756,-0.882494782435894,-1.825631957361102
1772045254521099300,1.796099365234375,-0.920243352202326,-0.6980775417178868,-1.5133698424965143
1772045254531084300,1.806084228515625,-1.003435722412914,-0.5168120430290699,-1.165380580690503
1772045254541070300,1.8160703125,-1.020871060534194,-0.3669695643469691,-0.8485492582142352
1772045254551056400,1.826056396484375,-0.9662743048846721,-0.2248126717314124,-0.6072375793635845
1772045254561042400,1.83604248046875,-0.8818354417443275,-0.05038549463003873,-0.5194739557147026
1772045254571028200,1.8460283203125,-0.7910803081292659,0.026248832239210602,-0.5041442846357822
1772045254581014300,1.85601416015625,-0.6936626478850841,-0.016168752251565454,-0.49631402940154073
1772045254590999300,1.865999267578125,-0.6019336277365684,-0.11197335127592087,-0.5102192206352949
1772045254600985300,1.8759853515625,-0.5672935453794896,-0.2555482939958572,-0.49491760660707945
1772045254610971400,1.885971435546875,-0.5718821883440017,-0.398818408550322,-0.4471194981217384
1772045254620957400,1.89595751953125,-0.5507226420678198,-0.5075578924715519,-0.3486544477164745
1772045254630943200,1.905943115234375,-0.48647886408567426,-0.6208098853811621,-0.18572072453200816
1772045254640929500,1.915929443359375,-0.4040461531359702,-0.7049062186941504,-0.0029997663378715515
1772045254650915300,1.925915283203125,-0.3382501042105257,-0.7667726000204682,0.22063655509054658
1772045254660900400,1.935900390625,-0.28530893374830485,-0.7498527371406555,0.4715490059792995
1772045254670886400,1.945886474609375,-0.22848595341667532,-0.6759703393280506,0.7347112821102142
1772045254680872400,1.95587255859375,-0.20207272439599036,-0.565494240872562,1.020221583649516
1772045254690858200,1.965858154296875,-0.2042285872556269,-0.4530228769466281,1.304575700891018
1772045254700844300,1.97584423828125,-0.19491598450914024,-0.3364782722324133,1.553053618109226
1772045254710830300,1.985830322265625,-0.21933511710315942,-0.18631079937964676,1.791951806077361
1772045254720815400,1.9958154296875,-0.28064284163340925,-0.0850774533048272,1.9976538268864155
1772045254730801400,2.005801513671875,-0.37207156366109845,0.034792204178869725,2.160952876251936
1772045254740787200,2.015787109375,-0.4873310970008373,0.15247808788269757,2.2872768244415522
1772045254750773500,2.0257734375,-0.5946471239902079,0.2718397958442569,2.3704390917748213
1772045254760759300,2.03575927734375,-0.7140906650163232,0.3782233642891049,2.4139848035126925
1772045254770745300,2.045745361328125,-0.804691265656799,0.46502515716850756,2.4179344179213045
1772045254780731400,2.0557314453125,-0.8228767645582556,0.526442625683546,2.414545360004902
1772045254790716400,2.06571630859375,-0.8029695564307272,0.5972559913143515,2.372086274459958
1772045254800702200,2.0757021484375,-0.8064242269292473,0.6352776789337397,2.3188071042150256
1772045254810688300,2.085688232421875,-0.7837503305673599,0.6197916482493281,2.272532259774208
1772045254820674300,2.09567431640625,-0.676233520308882,0.5767734675168991,2.123459888681769
1772045254830660400,2.105660400390625,-0.4713058448731899,0.5108583953216672,1.6422522429972886
1772045254840646100,2.115646240234375,-0.28144948184117674,0.40513796696066856,1.004275826498866
1772045254850631200,2.125631103515625,-0.16057634640336035,0.3296571940407157,0.4742161793619394
1772045254860617500,2.135617431640625,-0.11464330113753676,0.36583442283719775,0.0682224723547697
1772045254870603300,2.145603271484375,-0.10770035013183951,0.5559989750355482,-0.22974983587265013
1772045254880589300,2.15558935546875,-0.10812237493619323,0.8956474017366767,-0.4453057266980409
1772045254890575400,2.165575439453125,-0.12796134013310073,1.3235066113322973,-0.5859422778785228
1772045254900561400,2.1755615234375,-0.1744996578156948,1.696993010227382,-0.629058950549364
1772045254910546200,2.185546142578125,-0.30661563341021536,1.9257693248927592,-0.6079051033616065
1772045254920532200,2.1955322265625,-0.47189255871996283,1.9941338360667227,-0.5360071573644876
1772045254930518300,2.205518310546875,-0.6721170249007642,1.923878981101513,-0.42688393482267856
1772045254940504300,2.21550439453125,-0.9075894762039184,1.7750184991940854,-0.28845687638521195
1772045254950490000,2.225489990234375,-1.0938532215714454,1.6343892545372247,-0.15122107355892658
1772045254960476400,2.235476318359375,-1.184964986604452,1.717116637584567,-0.18626023823618887
1772045254970462200,2.245462158203125,-1.1503577836036682,2.1552917817503214,-0.35713176868259905
1772045254980447200,2.255447265625,-1.074306809580326,2.45229670625031,-0.3189057906627655
1772045254990433300,2.265433349609375,-1.0160380143545567,2.5922768393486737,-0.1851531537771225
1772045255000419300,2.27541943359375,-0.9236369401633739,2.8136548604562877,-0.14026304169297218
1772045255010405400,2.2854052734375,-0.8303051609933376,3.018137276342511,-0.1272644439101219
1772045255020391200,2.29539111328125,-0.8506897773742675,3.001946896781027,-0.06784370217025279
1772045255030377500,2.30537744140625,-0.9651743808187544,2.7568475160852075,-0.0009369885891675948
1772045255040362200,2.3153623046875,-1.0864672760386018,2.369355972713232,0.007445055308938026
1772045255050348300,2.325348388671875,-1.1284089866459368,1.877339348244667,-0.054394438010454176
1772045255060334000,2.335333984375,-1.123170574535802,1.2713362791121006,-0.12837445097863673
1772045255070320400,2.3453203125,-1.0946551856040954,0.629251258251071,-0.2249146708011627
1772045255080306200,2.35530615234375,-1.012372039192915,0.11635931127518415,-0.35724165879786013
1772045255090292200,2.365292236328125,-0.8906838610451668,-0.19715309591144323,-0.5346493130147457
1772045255100277200,2.37527734375,-0.7440029151339084,-0.33985154805779455,-0.6672054335922002
1772045255110263300,2.38526318359375,-0.5969675297617912,-0.4208127982154488,-0.6869727948576212
1772045255120249300,2.395249267578125,-0.4730267503816634,-0.5021332370743156,-0.5789882209569216
1772045255130235100,2.405235107421875,-0.3468518552739173,-0.5620967073887586,-0.4627624729335308
1772045255140221400,2.415221435546875,-0.17176884461231529,-0.5820116604313254,-0.3933025677382946
1772045255150207200,2.425207275390625,0.046905470494553445,-0.5215168597191572,-0.3293886062324047
1772045255160192300,2.435192138671875,0.24722820941805837,-0.43331016847789283,-0.18019816171824932
1772045255170178300,2.44517822265625,0.43648711801357565,-0.32891718932837244,0.03433481580018997
1772045255180164400,2.455164306640625,0.6039233402490616,-0.20198416932970284,0.32310850304961203
1772045255190150100,2.465150146484375,0.7221815439481287,-0.06522942801862955,0.6586778437435626
1772045255200136200,2.47513623046875,0.7877917879778892,0.019259996265172958,1.0235013359725476
1772045255210122200,2.485122314453125,0.8334849600732326,0.0372372592434287,1.4150813177019357
1772045255220107300,2.495107177734375,0.8719945042748004,0.012779402074217796,1.7655331702291965
1772045255230093300,2.50509326171875,0.9007353725254535,-0.015923545318841933,2.0418863518446684
1772045255240079400,2.515079345703125,0.9241676129739731,-0.08669277954697609,2.259129757365584
1772045255250065400,2.5250654296875,0.9279588219504803,-0.1447688286796212,2.387000934997201
1772045255260051200,2.53505126953125,0.9030079936325549,-0.18453239153027534,2.4833295578956602
1772045255270037500,2.54503759765625,0.8582406311452389,-0.1847711687222123,2.52560977974236
1772045255280022300,2.555022216796875,0.8171838136136531,-0.1637070456445217,2.517470896950364
1772045255290008300,2.56500830078125,0.78690207259655,-0.16903408588618038,2.46973416326344
1772045255299994000,2.574994140625,0.764443572551012,-0.1431675309628248,2.366526302245259
1772045255309980400,2.58498046875,0.7251835753083229,-0.10813304246068,2.2211188834011555
1772045255319966200,2.59496630859375,0.6530453908145427,-0.07854980510175227,2.064630683094263
1772045255329952300,2.6049521484375,0.5985328793823719,-0.03878682677298784,1.8424363771677017
1772045255339937300,2.614937255859375,0.5749252093017101,-0.010009352838993072,1.595421518239379
1772045255349923300,2.62492333984375,0.5280792504420504,-0.010904255852103233,1.3388994107753038
1772045255359909400,2.634909423828125,0.5231259754162282,-0.062708969630301,1.051115319085121
1772045255369895200,2.644895263671875,0.4817418621590361,-0.19336860893666744,0.6803460701942443
1772045255379881500,2.654881591796875,0.4327285691976547,-0.33199761968702074,0.31156536477208135
1772045255389867300,2.6648671875,0.4105682483810931,-0.5234405212581157,-0.002279050847887993
1772045255399852300,2.674852294921875,0.41137130839228625,-0.751263480721414,-0.3178244251668453
1772045255409838000,2.684838134765625,0.45590128192715346,-0.9451467611819505,-0.5986439385414123
1772045255419824400,2.694824462890625,0.48167299817390735,-1.0854606562793254,-0.7843360215008258
1772045255429810200,2.70481005859375,0.457803462286666,-1.2232535084664822,-0.8442904317259788
1772045255439796200,2.714796142578125,0.43242469088025387,-1.35978525467664,-0.8182306923180818
1772045255449782300,2.7247822265625,0.39920390073657036,-1.41464409532845,-0.8015162888824939
1772045255459767300,2.734767333984375,0.3875204772055149,-1.3587380837112664,-0.8649865982741117
1772045255469753300,2.74475341796875,0.46578554708175357,-1.1982026538401842,-0.9976917719334364
1772045255479739100,2.7547392578125,0.6112463035482912,-1.0036088870227335,-1.1823252857506275
1772045255489725400,2.764725341796875,0.754795381174609,-0.8419622810393571,-1.4083043709129095
1772045255499711200,2.774711181640625,0.8712005774181336,-0.7040650916948914,-1.6416554461479187
1772045255509697300,2.784697265625,1.0051520978767425,-0.6364946535080671,-1.8447189351469278
1772045255519682300,2.794682373046875,1.1304875464856623,-0.6999103101029992,-1.9884727415651082
1772045255529668400,2.80466845703125,1.225953999596834,-0.8914707005739212,-2.0620704772174356
1772045255539654100,2.814654052734375,1.2942144658744335,-1.0377195386782287,-2.1036194621801374
1772045255549640400,2.824640380859375,1.37499422198534,-0.9782336227476596,-2.180149159631133
1772045255559626200,2.834626220703125,1.4603414321422576,-0.469694318023324,-2.3961422728300095
1772045255569611300,2.844611328125,1.4630571208417416,0.1798544628471136,-2.431814474713802
1772045255579597300,2.854597412109375,1.3504291050493717,0.64264382378757,-2.2403975843667983
1772045255589583400,2.864583251953125,1.1869558681607246,1.101741344472766,-2.0860200926035644
1772045255599569400,2.8745693359375,0.9928232891142368,1.495494286327064,-1.9762755232930183
1772045255609555200,2.88455517578125,0.7220692426800728,1.5488438914597034,-1.7962059563905
1772045255619541500,2.89454150390625,0.4359785109043121,1.2429054266586899,-1.6066460920870302
1772045255629526300,2.9045263671875,0.26012042421698567,0.7570081618532538,-1.5492466270416974
1772045255639512300,2.91451220703125,0.18773323339819908,0.15803776783645151,-1.5472358717411756
1772045255649498000,2.924498046875,0.17163791170902548,-0.5016705879986286,-1.467109026581049
1772045255659484400,2.934484375,0.21057401075959203,-1.027946624943614,-1.3719938711255788
1772045255669470200,2.94447021484375,0.25335297590866684,-1.2264210325866938,-1.3521318173140287
1772045255679456300,2.954456298828125,0.2319288604121655,-1.1509238930538297,-1.2806670020371675
1772045255689441300,2.964441162109375,0.0964134516377002,-0.9788210672467946,-1.03707393425107
1772045255699427300,2.97442724609375,-0.056231005787849425,-0.7602148489400744,-0.6631780777722597
1772045255709413400,2.984413330078125,-0.1378781193178147,-0.49193537592589853,-0.3067676091015339
1772045255719399200,2.994399169921875,-0.11112689051441847,-0.18184885153472422,-0.11207798069417475
1772045255729385500,3.004385498046875,-0.011491773416474461,0.09057312811166048,-0.09825053087174891
1772045255739370200,3.014370361328125,0.10744681376218795,0.33701281750053164,-0.22923604113161564
1772045255749356300,3.024356201171875,0.2663678672391921,0.5346592498868703,-0.44126551139652725
1772045255759342000,3.034342041015625,0.43894313286356623,0.6808318078845739,-0.6386848570287227
1772045255769328400,3.044328369140625,0.5728209304988384,0.7568050404965877,-0.7789052286237478
1772045255779314200,3.054314208984375,0.6586696604371071,0.8117600349992513,-0.8531570442706345
1772045255789300000,3.064300048828125,0.69111530148983,0.8689476108595728,-0.8441904784828423
1772045255799285000,3.074284912109375,0.6879938815336674,0.8762696243107319,-0.7453548411995172
1772045255809270800,3.084270751953125,0.6335958633266389,0.8887786850109696,-0.581710339397192
1772045255819257000,3.094257080078125,0.5666403421677648,0.9070131376206875,-0.37119945700168605
1772045255829243000,3.104242919921875,0.5140741424977779,0.9589300796017051,-0.14796820924282073
1772045255839229000,3.11422900390625,0.4669195195477456,1.0359951991036533,0.0864607243567705
1772045255849214000,3.1242138671875,0.41173137387633324,1.117302486220002,0.37766660718917844
1772045255859200000,3.134199951171875,0.40351168093308803,1.1572077956289053,0.6999141094952821
1772045255869186000,3.14418603515625,0.4119476469755172,1.2022305941820144,1.0159335310667752
1772045255879172000,3.154172119140625,0.4006079223155975,1.227642098814249,1.3619096994847057
1772045255889158000,3.164157958984375,0.38445743637308477,1.2486007156908512,1.7391040129870174
1772045255899144000,3.17414404296875,0.34913236742652953,1.3041361404299736,2.1129881790280343
1772045255909129000,3.18412890625,0.2940341650608927,1.3689932280048727,2.4512983428627253
1772045255919115000,3.194114990234375,0.17856208494901657,1.4810744235694409,2.7488877892524
1772045255929101000,3.20410107421875,0.05966814062967896,1.571377502568066,3.005415741935372
1772045255939086800,3.2140869140625,-0.0333716698564589,1.5844287073209882,3.2329239363610744
1772045255949073200,3.2240732421875,-0.08558803317546844,1.552956879736483,3.4027357286214825
1772045255959059000,3.234058837890625,-0.1282803429543972,1.4954150836110114,3.5265409719884393
1772045255969044000,3.2440439453125,-0.14167510044798254,1.3968246532604098,3.6298359267681835
1772045255979030000,3.254030029296875,-0.10528181774802506,1.3143246492281555,3.703021574488282
1772045255989016000,3.26401611328125,-0.062437459212541575,1.2502020134076475,3.7521523928821083
1772045255999001900,3.274001953125,-0.03208689074292779,1.1768526995584367,3.8072839129954574
1772045256008988000,3.28398779296875,0.005889642560482025,1.1216568820372224,3.8457963067412373
1772045256018973000,3.293972900390625,0.011222747216746211,1.1392132892549036,3.811826232600212
1772045256028959000,3.303958984375,0.029918168401718136,1.2334861486673354,3.682555125042796
1772045256038945000,3.313945068359375,0.06091083416715264,1.40131904207021,3.4573774193912743
1772045256048930800,3.323930908203125,0.08922726646065711,1.6549422132223843,3.16907427226305
1772045256058917000,3.333917236328125,0.09963752825073897,1.9419719794139265,2.7539433190762996
1772045256068903000,3.34390283203125,0.1087757242783904,2.2143594722688196,2.259126834756136
1772045256078888000,3.353887939453125,0.08092822467088699,2.375496959686279,1.7722639397889375
1772045256088874000,3.3638740234375,0.013227730363607406,2.466949793241918,1.2971096027940512
1772045256098860000,3.373860107421875,-0.07148468902111053,2.451589727024734,0.8304489533782005
1772045256108845800,3.383845703125,-0.13976853617429733,2.2345219703316688,0.35096564726829527
1772045256118831900,3.393831787109375,-0.10999299111366272,2.0818778782323,-0.2559592128843069
1772045256128817200,3.403817138671875,-0.04054375344291329,2.1850530060246585,-0.9919663800239562
1772045256138803000,3.413802978515625,0.004440174404531717,2.366289863140881,-1.6489362508058547
1772045256148789000,3.4237890625,-0.0801661542572081,2.4462924973994493,-2.117820421490073
1772045256158774800,3.43377490234375,-0.21991934673190117,2.4485809005975723,-2.465970426815748
1772045256168761000,3.443760986328125,-0.3859400761462748,2.4658760265305637,-2.786671868723631
1772045256178747000,3.453746826171875,-0.6075473759651183,2.4341487628802656,-3.059675155389309
1772045256188732000,3.46373193359375,-0.8289348955534398,2.218905883526802,-3.2760517149478194
1772045256198718000,3.473718017578125,-1.0075627392150461,1.7931296176850795,-3.4275235483974216
1772045256208704000,3.4837041015625,-1.1287269665539263,1.1830182364508508,-3.5318086832582947
1772045256218689800,3.493689697265625,-1.2296585532031952,0.382598510633409,-3.546251634630561
1772045256228676000,3.503676025390625,-1.2346388258337975,-0.5561676096007228,-3.4919618260383603
1772045256238661000,3.5136611328125,-1.109116403285414,-1.3709972613036632,-3.511463229843974
1772045256248647000,3.52364697265625,-0.9110964614115655,-1.8943290614902972,-3.564540740036964
1772045256258633000,3.533633056640625,-0.7230312195800245,-2.150314285598695,-3.4982898600161074
1772045256268619000,3.543618896484375,-0.624639818932861,-2.2402263194531202,-3.1350381471484896
1772045256278605000,3.55360498046875,-0.5820787343181669,-2.2047639609277248,-2.500564185813069
1772045256288590000,3.563590087890625,-0.5521931530117988,-2.008930715443194,-1.7725006711542606
1772045256298576000,3.573575927734375,-0.49422509429827327,-1.6658669273406266,-1.1732464917600154
1772045256308562000,3.58356201171875,-0.40634091300964353,-1.2941738416031001,-0.6605600042283535
1772045256318548000,3.5935478515625,-0.24275676309242844,-0.9959966584533453,-0.22277824329435825
1772045256328533800,3.60353369140625,0.0036368951976299283,-0.7676558125957846,0.10543372037410735
1772045256338520000,3.61352001953125,0.29468203451037406,-0.6687292821586132,0.3606938450783491
1772045256348505000,3.623505126953125,0.610910714918375,-0.690451284623146,0.588355184239149
1772045256358491000,3.633490966796875,0.9692940910972654,-0.7540048883840441,0.8228525068998336
1772045256368477000,3.643476806640625,1.3033774310171604,-0.7995324215888977,1.0758148760557174
1772045256378463000,3.653462890625,1.5692577339351177,-0.792713389223814,1.3375316295534372
1772045256388449000,3.663448974609375,1.7401158203780651,-0.7561299177139997,1.6536545114994048
1772045256398434000,3.67343408203125,1.8167793733417987,-0.6765855486169458,1.9763667087078094
1772045256408420000,3.683420166015625,1.879504417324066,-0.5859332177892327,2.265630225300789
1772045256418406000,3.693406005859375,1.8854197788476943,-0.5043526666894554,2.4865672246426342
1772045256428392000,3.703391845703125,1.861329147555679,-0.43535657961368557,2.6213351760506627
1772045256438378000,3.7133779296875,1.8280501244187355,-0.402388083730638,2.688905906498432
1772045256448363000,3.723363037109375,1.8096809395134448,-0.392096991340816,2.668478035497665
1772045256458349000,3.73334912109375,1.8099952661596237,-0.3479673422351479,2.5948639332324266
1772045256468334800,3.7433349609375,1.8165479026734828,-0.2508516606122255,2.5332734462380406
1772045256478321200,3.753321044921875,1.778520077574253,-0.07752981440424919,2.4831185454934834
1772045256488307000,3.763306884765625,1.7138018139481543,0.09432312829494476,2.4217016615003346
1772045256498292000,3.7732919921875,1.6192203269779681,0.2506111298546195,2.3123136505424977
1772045256508278000,3.783278076171875,1.4779554147660732,0.39989568239301443,2.1555191607654094
1772045256518264000,3.79326416015625,1.3312088562726974,0.49065761107504363,2.0042069017916915
1772045256528249900,3.803249755859375,1.2127567374367265,0.5380737345054746,1.8264315833061933
1772045256538236000,3.81323583984375,1.098951494558528,0.54963586974442,1.5987310811787843
1772045256548222000,3.823221923828125,1.040889693146944,0.5500999801248312,1.3588082263380288
1772045256558207000,3.83320703125,0.9970482133328914,0.4995467277124524,1.1406249096184968
1772045256568193000,3.843193115234375,0.915320289651677,0.3883423149824142,0.9187631966471671
1772045256578178800,3.8531787109375,0.7863630703490228,0.16610650800168514,0.7714987517595291
1772045256588165000,3.8631650390625,0.6426128441274166,-0.12232903333455324,0.7022796695828437
1772045256598151000,3.87315087890625,0.5309702591758221,-0.387895155736804,0.6195405960977077
1772045256608136000,3.883135986328125,0.5175836119234561,-0.5600470813825726,0.4572755659550428
1772045256618122000,3.8931220703125,0.5578022981304676,-0.5579720286741853,0.2524386375427246
1772045256628108000,3.90310791015625,0.5859224771995097,-0.45114539263695475,0.014469254857301711
1772045256638093800,3.91309375,0.5996784692209214,-0.34737697512656446,-0.2202922716975212
1772045256648080000,3.923079833984375,0.6919558439671993,-0.22538959483653306,-0.5117676191210746
1772045256658065200,3.933065185546875,0.8162286317806691,-0.10063070400655269,-0.8857523229271173
1772045256668051000,3.943051025390625,0.9560276361584663,-0.1498717047765851,-1.2679255938857794
1772045256678037000,3.953037109375,1.1124702437579632,-0.31330928582996126,-1.6637392676621674
1772045256688022800,3.963022705078125,1.324597913700342,-0.2938409075111151,-2.2734242401778695
1772045256698009000,3.973009033203125,1.4459259532988071,0.08098141616284847,-2.9548469996929168
1772045256707994000,3.982994140625,1.4115221639156341,0.24800503900945184,-3.237382084813714
1772045256717980000,3.99297998046875,1.2814134364902972,0.055496846294403074,-3.1793384766459463
1772045256727966000,4.002966064453125,1.166594559590146,-0.187819158115983,-3.099429073628783
1772045256737952000,4.012951904296875,1.11398649353981,-0.26654490430653094,-3.18280059979856
1772045256747937800,4.022937744140625,1.0441489872038363,-0.22330898917019365,-3.369247300517559
1772045256757922800,4.0329228515625,0.9278303732652217,-0.20333120002448557,-3.404460652717948
1772045256767909000,4.0429091796875,0.8394225334286689,-0.2545294723421335,-3.287555690258741
1772045256777895000,4.05289501953125,0.7827191608887165,-0.2744090618103742,-3.1094471942961213
1772045256787880700,4.062880615234375,0.7657096469640732,-0.3156196085989475,-2.829770421215892
1772045256797866800,4.07286669921875,0.7838145549099892,-0.4620259753525257,-2.457380877646804
1772045256807852800,4.082852783203125,0.835892021214962,-0.6028478199720382,-2.1151059018343688
1772045256817837800,4.092837890625,0.8965268879849463,-0.6758510968625545,-1.8647516693502664
1772045256827823600,4.10282373046875,0.9037526014547794,-0.7119318795472384,-1.70178053676486
1772045256837810000,4.112809814453125,0.8340402558684349,-0.7360393158435821,-1.5742986507117747
1772045256847795700,4.122795654296875,0.7077005255877972,-0.7773281885653733,-1.4141928444296121
1772045256857781800,4.13278173828125,0.554747440604493,-0.8184387821108102,-1.2446516858041285
1772045256867766500,4.1427666015625,0.4309937082290649,-0.8315104451298713,-1.0613713401615619
1772045256877752800,4.1527529296875,0.37135720484666523,-0.8039046453237533,-0.8463947105288505
1772045256887738600,4.162738525390625,0.3326770533185452,-0.7382008777916431,-0.6378162575006484
1772045256897724700,4.172724609375,0.3325028657954186,-0.6204004277974366,-0.4514163185328245
1772045256907710700,4.182710693359375,0.3235539087295532,-0.4901414782464504,-0.2756482482165098
1772045256917695700,4.19269580078125,0.3384706881586462,-0.33344431136399505,-0.14147709365785122
1772045256927681800,4.202681884765625,0.3286988704025745,-0.12133622290492058,-0.07756430119574069
1772045256937667600,4.21266748046875,0.3406990317326039,0.07853489979356527,-0.07935118461251259
1772045256947654000,4.22265380859375,0.3989618356090039,0.22628449784964322,-0.1288297935307026
1772045256957639700,4.2326396484375,0.48843343221955,0.29256957240104675,-0.26388766779601575
1772045256967624700,4.242624755859375,0.5872971996188163,0.3577741582393646,-0.4005874640494585
1772045256977610800,4.25261083984375,0.702879315976426,0.374136971758306,-0.4976397250473499
1772045256987596800,4.2625966796875,0.8276781734906137,0.3761193777471781,-0.5714701004117727
1772045256997582600,4.27258251953125,0.9165466896414757,0.41993689216375346,-0.5872913543999195
1772045257007569000,4.28256884765625,0.9797685041647404,0.45152679316997524,-0.5134896206080913
1772045257017554700,4.2925546875,0.9879834478676318,0.48789136123210186,-0.3026590047389269
1772045257027539700,4.302539794921875,0.9406476231317966,0.5986047755748033,0.0025479309171438217
1772045257037525800,4.31252587890625,0.8590764243822544,0.743894997780025,0.34408231749534607
1772045257047511800,4.32251171875,0.7613712524335831,0.8972823094621301,0.7342775668680668
1772045257057497900,4.332497802734375,0.6152246325947344,1.0508353330999611,1.1761673476427792
1772045257067483600,4.342483642578125,0.5005846924580634,1.1855185288339853,1.6114146216630936
1772045257077468700,4.35246875,0.38081732630506154,1.2968559202939272,2.0438813250541688
1772045257087454700,4.362454833984375,0.2631599380433559,1.3808786038488148,2.4463667316794395
1772045257097440800,4.372440673828125,0.11963643324971199,1.4730349094986914,2.803635863006115
1772045257107426600,4.382426513671875,-0.012062266780808567,1.526697526103258,3.097642190212011
1772045257117412900,4.392412841796875,-0.1648925291020423,1.5541259235158562,3.358118003737926
1772045257127398000,4.40239794921875,-0.2939337003611028,1.5765630885124207,3.614237960141897
1772045257137383700,4.4123837890625,-0.43704007572121917,1.5678092886924744,3.8463761524558064
1772045257147369700,4.42236962890625,-0.5470973642427474,1.51374130615741,4.030251541382074
1772045257157355800,4.432355712890625,-0.6160686091382056,1.4927239448308944,4.095624469524622
1772045257167341800,4.442341796875,-0.6489374440390616,1.4911121257200837,4.016376745286584
1772045257177327600,4.45232763671875,-0.6369827292859553,1.5340575334772466,3.8158214397162196
1772045257187312600,4.462312744140625,-0.5620281721971929,1.4917700051069258,3.6139521289378402
1772045257197298700,4.472298583984375,-0.46492988010048864,1.4497873049020766,3.320749519330263
1772045257207284700,4.48228466796875,-0.35602409970164295,1.5270286577537655,2.970062689003348
1772045257217270500,4.4922705078125,-0.2279916670937091,1.6986349322155117,2.59940742188096
1772045257227256800,4.5022568359375,-0.11188340797014534,1.9462579861700533,2.1952029363781214
1772045257237241900,4.512241943359375,0.00321267843618989,2.2362769973054526,1.7893945228099821
1772045257247227600,4.5222275390625,0.06129515730962157,2.5464430166736243,1.3651087877869605
1772045257257214000,4.5322138671875,0.06469473662003875,2.806787605035305,0.957654360577464
1772045257267199700,4.54219970703125,0.028145898032188414,2.919963025577366,0.5630500625908375
1772045257277185800,4.552185791015625,-0.04530278453826904,2.9487250096812843,0.18071955524384975
1772045257287171600,4.562171630859375,-0.11985270634889603,2.8500857717528936,-0.15144552996456623
1772045257297156900,4.572156982421875,-0.1712031004883349,2.623761234153807,-0.3726017250150442
1772045257307142700,4.582142578125,-0.2524902215994894,2.3305121550559997,-0.5575350985616445
1772045257317128700,4.592128662109375,-0.3494916291929781,2.094504427832365,-0.7609493006944656
1772045257327114800,4.60211474609375,-0.41693376482501626,2.0896464664071797,-1.0024357515901328
1772045257337100800,4.612100830078125,-0.41183205777183174,2.2012857634231446,-1.1674579714864493
1772045257347085800,4.6220859375,-0.3825194540478289,2.350897648219764,-1.1827636771678924
1772045257357071600,4.632071533203125,-0.3446658164717257,2.5537942562192675,-1.1182657782942056
1772045257367058000,4.642057861328125,-0.3282220466710627,2.7454215744465587,-1.0269453389465808
1772045257377043700,4.652043701171875,-0.37507279130369425,2.811826183724403,-0.9330822293788195
1772045257387029800,4.66202978515625,-0.4531412426292896,2.7735987443998456,-0.9449427630424498
1772045257397015800,4.672015869140625,-0.541979071380943,2.5641104830503463,-1.0837836629778146
1772045257407000800,4.682000732421875,-0.600808861490339,2.1431129759177563,-1.2717875300109385
1772045257416986600,4.691986572265625,-0.5537994191646576,1.527861601446569,-1.392158122754097
1772045257426972700,4.70197265625,-0.4107540532767772,0.8264721587017178,-1.4056518105775118
1772045257436958700,4.711958740234375,-0.3315409619607031,0.09139701171517371,-1.3528764982014894
1772045257446944800,4.72194482421875,-0.29288389904722567,-0.6386094537049531,-1.2395575775355099
1772045257456930600,4.7319306640625,-0.2686683262012899,-1.2548489624306558,-1.089279337784648
1772045257466915600,4.74191552734375,-0.21039047088623045,-1.6778697920843957,-0.922172712829709
1772045257476902000,4.75190185546875,-0.08784560284391045,-1.896215021367371,-0.6720709938019513
1772045257486887700,4.7618876953125,0.07641454663872718,-1.8612322630524634,-0.3458884901344776
1772045257496873700,4.771873779296875,0.253336390100047,-1.6179437311708926,-0.015567571488022803
1772045257506859800,4.78185986328125,0.3854243817090988,-1.2300146731644868,0.22455402079522607
1772045257516844800,4.7918447265625,0.4720727375924587,-0.8001949771508574,0.38769641829431056
1772045257526830600,4.80183056640625,0.5877906822241843,-0.3523869122430682,0.5110299524962901
1772045257536817000,4.81181689453125,0.7372738260746001,0.08349719837605953,0.5474041651695967
1772045257546802700,4.821802734375,0.896095291634649,0.4689633734002709,0.522625113222003
1772045257556788700,4.831788818359375,1.0141570229135453,0.7199766543149948,0.4761556229919195
1772045257566774500,4.8417744140625,1.0950327136795968,0.7870783059462905,0.411021179780364
1772045257576759800,4.851759765625,1.1875145249567924,0.7515259310498833,0.37646892183721065
1772045257586745900,4.861745849609375,1.2612063686333597,0.6340177420005202,0.38416239894926546
1772045257596731600,4.871731689453125,1.314851595711708,0.4345148680925369,0.42430794685482975
1772045257606718000,4.881718017578125,1.3571055140733719,0.2163449953764677,0.500742951759696
1772045257616703700,4.891703857421875,1.3711470450378953,-0.012431319288909434,0.6080307755678892
1772045257626689800,4.901689697265625,1.349937083748728,-0.24923165819495915,0.7957529030501842
1772045257636674600,4.911674560546875,1.2918120809078215,-0.5130009603083133,1.0608972929090261
1772045257646660900,4.921660888671875,1.2323685428142548,-0.7623018843472004,1.3161661854416131
1772045257656646700,4.931646728515625,1.218566811954975,-0.9462672896444797,1.5337731635779142
1772045257666632700,4.9416328125,1.2591536738872526,-1.032948671014607,1.667889957600832
1772045257676618800,4.95161865234375,1.2978946156919002,-0.983106197220087,1.713421874719858
1772045257686604800,4.961604736328125,1.3078326568603516,-0.9052373601198196,1.787553863379359
1772045257696589800,4.97158984375,1.3126385958373545,-0.7954512897551059,1.8989146357148885
1772045257706575600,4.98157568359375,1.3281085521697997,-0.6592544745877384,1.975985015913844
1772045257716562000,4.99156201171875,1.3558733419299125,-0.5197483887419104,1.9862077192425727
1772045257726547700,5.001547607421875,1.45117963604331,-0.38725802687704564,1.9458143340557812
1772045257736533800,5.01153369140625,1.5838216813385486,-0.27161709300428627,1.8473644812196492
1772045257746519800,5.021519775390625,1.7183587466001509,-0.19336305597871542,1.7277707180678843
1772045257756504800,5.0315048828125,1.8483985004425048,-0.1415600957661867,1.576187240937352
1772045257766490600,5.04149072265625,1.9074960015773772,-0.09343202467411756,1.412633924549818
1772045257776476700,5.0514765625,1.8872446561872958,-0.1082721586704254,1.2676532066851853
1772045257786463000,5.061462890625,1.827080987125635,-0.13351444421559572,1.0726403376728295
1772045257796449000,5.071448974609375,1.7440321170389652,-0.10564210242778062,0.8549199622899294
1772045257806435000,5.08143505859375,1.642051751989126,-0.10703238774240016,0.6726327193379402
1772045257816420000,5.091420166015625,1.5177788911104202,-0.19205986442565917,0.5635983441233635
1772045257826406000,5.101406005859375,1.401331609290838,-0.2980179009348154,0.47340486297905443
1772045257836392200,5.11139208984375,1.2914777343869208,-0.379830799485743,0.3475134609878063
1772045257846378000,5.1213779296875,1.1729695014495403,-0.4350096658721566,0.18539748392701147
1772045257856364000,5.131364013671875,1.023957263046503,-0.4852490300297737,0.04833353053629398
1772045257866349800,5.141349853515625,0.849476236866042,-0.4994014740228653,-0.09581658172309399
1772045257876335000,5.151335205078125,0.6841722774188965,-0.4439823691397905,-0.2643295663446188
1772045257886321200,5.161321044921875,0.5457973875600844,-0.3363081763625145,-0.43679567250609397
1772045257896307000,5.171306884765625,0.4789174158554524,-0.2342477318137884,-0.6370107863366603
1772045257906293200,5.181293212890625,0.48005606449656185,-0.13984890793412924,-0.8167021675765513
1772045257916279000,5.191279052734375,0.5217910004854202,-0.11304770250916481,-0.9912719680190086
1772045257926265000,5.20126513671875,0.6770599611956626,0.07771247749477625,-1.3384937525838612
1772045257936251100,5.211251220703125,0.9109235159974545,0.7666060112819075,-1.9442828867048023
1772045257946236200,5.221236083984375,1.0583796840649098,1.5926508844822644,-2.4048346978515385
1772045257956222000,5.231221923828125,1.0179015432041139,1.9050819261729717,-2.4621038145154714
1772045257966208000,5.2412080078125,0.8372796031158417,1.8052376963689922,-2.4252906259030103
1772045257976194000,5.251194091796875,0.6264063902139664,1.4672212547838688,-2.4208996974676844
1772045257986180000,5.26118017578125,0.47600335503965613,0.9125199183434247,-2.3666192412257194
1772045257996166000,5.271165771484375,0.3684357644420117,0.2694745280176401,-2.333981876993179
1772045258006151000,5.28115087890625,0.31560652992166577,-0.35456045688986776,-2.3070617213636635
1772045258016137200,5.29113720703125,0.30884266180992126,-0.889654591062665,-2.2381167799532413
1772045258026123000,5.301123046875,0.29044308176636696,-1.2567740852743388,-2.1166671598017213
1772045258036109000,5.311109130859375,0.2571042182009667,-1.4783102195531128,-1.8745985251039265
1772045258046093800,5.32109375,0.2186240462243557,-1.5433078846424817,-1.5134896694839
1772045258056080100,5.331080078125,0.16309424750842152,-1.4774731842070816,-1.0430372265696526
1772045258066066000,5.34106591796875,0.10956848209127783,-1.3481348566323519,-0.4990910928994417
1772045258076052000,5.351052001953125,0.15572715280652044,-1.1684268165186047,-0.04069733656942844
1772045258086038000,5.3610380859375,0.22114567365646362,-0.9194210760340094,0.1586801573932171
1772045258096024000,5.371024169921875,0.26982341452054676,-0.7202046178519725,0.18638240331113337
1772045258106009000,5.381009033203125,0.3497627012193203,-0.5310036499887705,0.10202361966967582
1772045258115995100,5.3909951171875,0.44735330687761304,-0.30956425408273935,-0.03996200803220272
1772045258125981200,5.400981201171875,0.5250852927904576,-0.04447071762830019,-0.17390403001010418
1772045258135967000,5.410967041015625,0.5539806209504604,0.2868567477121949,-0.21626023970246314
1772045258145953000,5.420953125,0.5743406143467873,0.6300377324536443,-0.13279343646466732
1772045258155939000,5.43093896484375,0.5990284808795899,0.9864973009631037,0.030481647503376005
1772045258165925000,5.440925048828125,0.5887725328683853,1.3081786938190458,0.20714111370146274
1772045258175910000,5.450909912109375,0.6129892747581005,1.593119671037793,0.370610258936882
1772045258185896200,5.460896240234375,0.6447451799809932,1.806866466614604,0.4878057287752628
1772045258195882000,5.470882080078125,0.6842051567751913,1.9566323729291557,0.49994741746783256
1772045258205868000,5.480867919921875,0.7116202563147992,1.9965520031243562,0.4017892410546541
1772045258215854000,5.49085400390625,0.7004793421626091,1.8912737655729055,0.2182055285513401
1772045258225840000,5.500840087890625,0.6879752498984336,1.675746808581054,0.02637187409698963
1772045258235826000,5.510825927734375,0.7121592585623264,1.4203230177477002,-0.12692366764843463
1772045258245811000,5.52081103515625,0.7695511248230934,1.2095958622530103,-0.16483926454484463
1772045258255797200,5.53079736328125,0.8139303647756576,1.0528045873463152,-0.04957037885487079
1772045258265783000,5.540782958984375,0.8048865690331906,0.9421969714656472,0.22582886303663252
1772045258275769000,5.55076904296875,0.767015468865633,0.9348036463439464,0.5920552078008652
1772045258285755100,5.560755126953125,0.7331587919712066,0.9950415496855973,0.9950678531706333
1772045258295741200,5.5707412109375,0.7391735222160816,1.1159086937740446,1.38579267937541
1772045258305727000,5.58072705078125,0.7397603091280907,1.2138926826640963,1.7652730579882858
1772045258315712000,5.5907119140625,0.7575018636543304,1.3306646663933992,2.104098185607791
1772045258325698000,5.600697998046875,0.7807575784921645,1.4708815308570862,2.3982383683264255
1772045258335684000,5.61068408203125,0.7963993842601775,1.6377955558493733,2.630080208042264
1772045258345670000,5.620669921875,0.792293702507019,1.8365490726947784,2.85200504937768
1772045258355656200,5.63065625,0.7896540016531943,2.071573341839015,3.0017613110810517
1772045258365642000,5.64064208984375,0.816353719465062,2.363415769009292,3.0472943972438573
1772045258375628000,5.6506279296875,0.7940086897313594,2.601681212031841,3.082511256575584
1772045258385613000,5.660613037109375,0.6974784067809582,2.669824773931503,3.1423990313053127
1772045258395599000,5.67059912109375,0.5448328533768654,2.5997072816103697,3.1793302933394907
1772045258405585200,5.680585205078125,0.4382476248800754,2.431316754324734,3.081516400319338
1772045258415571000,5.690571044921875,0.3656453300058842,2.2040730560541153,2.7901065193474293
1772045258425557200,5.70055712890625,0.29930436054877935,1.895731914025545,2.3501012371450662
1772045258435543000,5.71054296875,0.24357385162897408,1.5654901980951428,1.8813947611153126
1772045258445529000,5.720529052734375,0.2002699858229607,1.2708102094113827,1.442926771482825
1772045258455513900,5.730513916015625,0.1582137089252472,1.080922136066854,1.0721370643258095
1772045258465501200,5.740501220703125,0.16468670433163643,0.9629302551537752,0.7877128044575452
1772045258475487000,5.750487060546875,0.17596804986782372,0.8786687944069504,0.5647948604315519
1772045258485473300,5.760473388671875,0.18864508754611015,0.840011731493473,0.3443856843560934
1772045258495458000,5.7704580078125,0.21357143900990486,0.8132055576324463,0.1008832174628973
1772045258505444000,5.780444091796875,0.25994740573763847,0.8298480648756027,-0.18405951332151888
1772045258515430000,5.790429931640625,0.2837666727423668,0.8473948274821043,-0.4876619363903999
1772045258525416200,5.800416259765625,0.2646411165118217,0.895792363165319,-0.7873240974009037
1772045258535402000,5.810402099609375,0.21496742341294883,0.9691162503123283,-1.063773140606284
1772045258545388000,5.820387939453125,0.16098317363858222,1.0456997237771748,-1.2952677743196486
1772045258555374000,5.8303740234375,0.10607764430083334,1.0881292909666895,-1.4505711487561463
1772045258565360000,5.840360107421875,0.09963979327306151,0.9915078226014972,-1.4997271015912295
1772045258575345200,5.85034521484375,0.11884162961021065,0.782985483674705,-1.3822645052492617
1772045258585331000,5.8603310546875,0.17951580547727644,0.6915446328178048,-1.2478899370729923
1772045258595317200,5.870317138671875,0.20955445845350623,0.7835287967711687,-1.2403817533999681
1772045258605303000,5.880302978515625,0.3124292881250381,1.1275278198972343,-1.3094073588311672
1772045258615289000,5.8902890625,0.5042459914445877,1.768732258531451,-1.4314637127041816
1772045258625275100,5.900275146484375,0.5813352224744855,2.41449216851294,-1.5319856956392526
1772045258635261200,5.91026123046875,0.4624900857329368,2.7797274564132093,-1.5581132395863533
1772045258645246000,5.920245849609375,0.23277999734878538,2.725562735505402,-1.5694570558995007
1772045258655232000,5.93023193359375,0.007255231825262307,2.296803069938719,-1.7372656916439533
1772045258665218000,5.940218017578125,-0.1214822072468698,1.6055921991199253,-2.043532365486026
1772045258675204000,5.9502041015625,-0.052340428090095516,0.787146402746439,-2.346082064631581
1772045258685190000,5.96018994140625,0.12804784937277436,0.02706950097233057,-2.5823236006110903
1772045258695176200,5.97017626953125,0.3540906474210322,-0.6120192606821656,-2.7610195410728453
1772045258705162000,5.980161865234375,0.552527645663172,-1.1022820272207259,-2.8663813652545214
1772045258715147000,5.99014697265625,0.7007391621425747,-1.4294938739359377,-2.815955246353149
1772045258725133000,6.000133056640625,0.8325754440128803,-1.5477707092702389,-2.6153584397286176
1772045258735119000,6.010119140625,0.8991757950585335,-1.533191564297676,-2.3975854573756457
1772045258745105200,6.020105224609375,0.9327624959051608,-1.5013155398264526,-2.128727599951625
1772045258755091000,6.030091064453125,1.004883071677014,-1.4394818917259573,-1.8910890566557645
1772045258765077000,6.040076904296875,1.1645733559608458,-1.250807285824418,-1.8460206653952598
1772045258775063000,6.05006298828125,1.3002864792644977,-0.9812877496212721,-1.9946938080370424
1772045258785047800,6.0600478515625,1.3178233049988746,-0.7854948361471294,-2.175245605498552
1772045258795033600,6.07003369140625,1.3360568808257578,-0.6425555609822273,-2.2086533695816994
1772045258805019600,6.08001953125,1.4550661220878363,-0.4295058077588677,-2.134492154827714
1772045258815005700,6.090005615234375,1.5983739383041857,-0.24355741195082664,-1.955367175298929
1772045258824991700,6.09999169921875,1.6445798091620205,-0.24057839614003895,-1.7128993121504783
1772045258834977500,6.1099775390625,1.4932500145316123,-0.3228793704688549,-1.596141064685583
1772045258844963800,6.1199638671875,1.175399285879731,-0.4437164116799831,-1.636160355862975
1772045258854948900,6.129948974609375,0.7971475722789764,-0.5740291372448205,-1.793261135110259
1772045258864934700,6.1399345703125,0.5282442682780325,-0.6740718122303485,-1.961460231477022
1772045258874920700,6.149920654296875,0.40739509823769327,-0.7438891525611281,-2.0662825419545174
1772045258884906800,6.15990673828125,0.4159446076571941,-0.7492951032578945,-2.101723857691884
1772045258894892800,6.169892822265625,0.48319911176264285,-0.6680293171957135,-2.1432132214218376
1772045258904878600,6.179878662109375,0.48753538740128277,-0.5770104911431669,-2.157965384873748
1772045258914865000,6.189864990234375,0.44639936715364453,-0.5744945627994835,-2.1292308732986447
1772045258924850700,6.1998505859375,0.4540075040698051,-0.577880405845493,-2.111050488963723
1772045258934835700,6.209835693359375,0.5565910957098007,-0.4715884612068534,-2.1631506785571575
1772045258944821500,6.219821533203125,0.7275114337339997,-0.4527208252601325,-2.1283973450839517
1772045258954807800,6.229807861328125,0.931505189320445,-0.41293329701200127,-2.100841229638457
1772045258964793600,6.239793701171875,1.1072563085019589,-0.2311322301417589,-2.2713749064326283
1772045258974779600,6.249779541015625,1.2248843245387078,-0.18406345884427427,-2.3268320052385327
1772045258984765700,6.259765625,1.3839783234298229,-0.1741134349770844,-2.1750778477162123
1772045258994751700,6.269751708984375,1.5909253758639097,-0.09124123663157224,-1.9878607471466063
1772045259004736800,6.27973681640625,1.802460925132036,-0.10969576173275708,-1.6773644729107617
1772045259014722600,6.28972265625,1.960039258763194,-0.1412218037225306,-1.3007809847831726
1772045259024708900,6.299708984375,2.078547564765811,-0.20325798865780234,-0.9548714518606662
1772045259034694700,6.309694580078125,2.17704008769989,-0.39725568927824495,-0.827853676187992
1772045259044680700,6.3196806640625,2.1336662253975867,-1.094663368910551,-0.5439806204617024
1772045259054666800,6.329666748046875,2.035976835539937,-1.3254106913879513,-0.33708909760713573
1772045259064652800,6.33965283203125,2.0937755290359257,-0.8768575802665203,-0.5915308916658163
1772045259074637600,6.349637451171875,2.07422210278213,-0.7802533552970736,-0.9335217898398637
1772045259084623600,6.35962353515625,1.8332248967081308,-1.007244905437529,-1.1094950273394584
1772045259094609700,6.369609619140625,1.5902444078624247,-0.9362918390750884,-1.0319622903257608
1772045259104595700,6.379595703125,1.6825421678096055,-0.39790092837922275,-1.0279542237281798
1772045259114581500,6.38958154296875,1.9644161586731672,0.1099948908098042,-1.1752502327978611
1772045259124567800,6.39956787109375,2.1123200705081224,0.3752927176646888,-1.0544362802013754
1772045259134553600,6.4095537109375,1.9814187314003704,0.41323856356889005,-0.780236477227509
1772045259144538600,6.41953857421875,1.8028531393200158,0.3132372435070574,-0.8395368074581027
1772045259154524700,6.429524658203125,1.552363882279396,0.036180480199493464,-0.9776923554778099
1772045259164510700,6.4395107421875,1.2924088777571916,-0.24552502222936598,-1.143703586411476
1772045259174496800,6.449496826171875,1.1418225949704646,-0.3701013595666736,-1.3323635792657733
1772045259184482600,6.459482666015625,1.0085592029064894,-0.3301520648855716,-1.346526836913824
1772045259194468900,6.46946875,0.9187713799536228,-0.22271537065859884,-1.2898816973671317
1772045259204454700,6.47945458984375,0.9491898990929126,-0.11629039249112828,-1.231064182217419
1772045259214439700,6.489439697265625,1.0944476803332566,-0.04015709221288562,-1.1092302389234303
1772045259224425700,6.49942578125,1.059054879912734,-0.08298855473417788,-1.0077236288651823
1772045259234411800,6.509411865234375,0.9201859229266643,-0.06480517015799414,-0.9772713535867631
1772045259244397600,6.5193974609375,0.7009761857688427,0.004510700623784214,-0.9962614468693732
1772045259254383600,6.529383544921875,0.5240770655959844,0.13687778316885232,-1.0262177553243934
1772045259264369700,6.53936962890625,0.4936562083691358,0.26466749306209386,-0.8481567517653107
1772045259274355700,6.549355712890625,0.5692623612344264,0.3806555598720908,-0.436775944892317
1772045259284340700,6.5593408203125,0.7691630022883414,0.5100814926650374,-0.05312354129180312
1772045259294326800,6.569326904296875,0.9728682963222265,0.607325769103691,0.20286431316509843
1772045259304312800,6.579312744140625,1.2251198868602513,0.6359275942098349,0.4031188822232187
1772045259314298600,6.589298583984375,1.4664087693572043,0.6799949186690152,0.6685489571556449
1772045259324284700,6.59928466796875,1.6226842036962508,0.624329291678965,0.9141312990628182
1772045259334270700,6.609270751953125,1.679212146604061,0.5041976222582161,0.977602631367743
1772045259344256500,6.619256591796875,1.5055921942323445,0.40477819373756646,0.9328066273078321
1772045259354241500,6.629241455078125,1.1858715800553559,0.30656814100667834,0.7515626097984611
1772045259364227800,6.639227783203125,0.8759674264937639,0.18797434867769477,0.4720872045092284
1772045259374213600,6.649213623046875,0.6477770950227976,0.2112906345963478,0.2761613123051822
1772045259384199700,6.65919970703125,0.5349252073466777,0.30506416618451476,0.21872188057564199
1772045259394185700,6.669185791015625,0.5252952092140912,0.398807302634418,0.2786065135002136
1772045259404171800,6.679171875,0.5621253489613532,0.43356136675998563,0.38999315092936154
1772045259414157600,6.689157470703125,0.5939625027269124,0.38411096102297304,0.5147723538950085
1772045259424142600,6.699142578125,0.6743681648284197,0.33680984227433797,0.629724355655536
1772045259434128600,6.709128662109375,0.8073147460281849,0.3007696838609874,0.7229610769532621
1772045259444114700,6.71911474609375,1.0784031389832496,0.3025815555885434,0.8226265161242335
1772045259454100700,6.729100830078125,1.421815009871125,0.3402921314321458,0.8854973983179777
1772045259464086800,6.739086669921875,1.648920468714833,0.2705726985178888,1.064320691486448
1772045259474072600,6.749072509765625,1.720067304083705,0.19203531450629233,1.2473469162374735
1772045259484058600,6.75905859375,1.6785229952961205,0.25006723223626615,1.35839131610021
1772045259494043600,6.769043701171875,1.5171084445029497,0.3582257013991475,1.4177021677248178
1772045259504029700,6.77902978515625,1.3422872996479271,0.5264841267377138,1.4743363474860787
1772045259514015700,6.789015625,1.2110592128038407,0.6889885185942053,1.4218660094060003
1772045259524001500,6.79900146484375,1.0927987440824507,0.7853992668181657,1.3209212710142135
1772045259533987800,6.80898779296875,1.0341817199409007,0.7931962043046951,1.1870979800451547
1772045259543973600,6.8189736328125,1.0170698416203259,0.7068152671858667,1.098594205553457
1772045259553959700,6.828959716796875,1.0474170490890742,0.621533815741539,1.006851814466715
1772045259563944700,6.83894482421875,1.0967477739691733,0.5415265053078532,0.8717378260999917
1772045259573930800,6.8489306640625,1.0718722759097814,0.5059241537898779,0.8428720893606543
1772045259583916500,6.85891650390625,0.9329974737048149,0.5495943686902522,0.9255637435074895
1772045259593902600,6.868902587890625,0.6896417218059301,0.5508826549351215,0.9967796985898166
1772045259603888600,6.878888671875,0.47074119672775266,0.6182417884588242,0.976052113990113
1772045259613874700,6.888874755859375,0.3797743931233883,0.7175766074359416,0.891751709472388
1772045259623860500,6.898860595703125,0.4074240320712328,0.779350634303689,0.8324164540588855
1772045259633845500,6.908845458984375,0.5381272182583808,0.6953785118922591,0.6882987827643752
1772045259643831800,6.918831787109375,0.7034042896986007,0.48520226827859875,0.6200657890155911
1772045259653817600,6.928817626953125,0.8843851262271404,0.3663233753979206,0.592223951963894
1772045259663803600,6.9388037109375,1.0287386521041393,0.17845307161659002,0.5765463442301377
1772045259673789700,6.948789794921875,1.1499568015873431,0.062492696531116956,0.4836931058246642
1772045259683775700,6.958775634765625,1.1616571762531995,0.1739481614127755,0.3371299410741776
1772045259693761500,6.968761474609375,1.0348182642787693,0.04082680816799402,0.48122598505876957
1772045259703746800,6.978746826171875,0.9777776956737041,0.010875029757618903,0.6248281080465763
1772045259713732600,6.988732666015625,0.9802204126507044,0.07133651272207499,0.7451687440428882
1772045259723718700,6.99871875,1.0177794511944056,0.056633449108898636,0.8907808186136186
1772045259733704400,7.008704345703125,1.0684931548655032,-0.08902648319154978,1.0554678152061998
1772045259743690800,7.018690673828125,1.1456173110783099,-0.3088789021670818,1.090271636757627
1772045259753676500,7.028676513671875,1.2930366542667149,-0.4440805688172579,0.9100573276221752
1772045259763662600,7.03866259765625,1.371120595422387,-0.6427882006943225,0.6747883630018681
1772045259773648000,7.04864794921875,1.311839554414153,-0.837908037212491,0.7537712257586419
1772045259783633700,7.058633544921875,1.2655582802325487,-1.0386658796176313,0.9309965822111814
