time,seconds_elapsed,z,y,x
1772045252743617000,0.018616943359375,1.043660283088684,0.6174063682556152,0.5321449637413025
1772045252753602000,0.02860205078125,0.9842485189437866,0.608917772769928,0.4236172139644623
1772045252763587800,0.038587890625,0.9127311706542969,0.5955933928489685,0.3186843991279602
1772045252773574000,0.048573974609375,0.835630476474762,0.5555382966995239,0.23148684203624725
1772045252783560000,0.058559814453125,0.7713500261306763,0.47775909304618835,0.16665057837963104
1772045252793546000,0.0685458984375,0.7249932289123535,0.400363951921463,0.14177516102790833
1772045252803532000,0.078531982421875,0.7103045582771301,0.35876935720443726,0.14666125178337097
1772045252813517000,0.08851708984375,0.7100602984428406,0.35580646991729736,0.1637706607580185
1772045252823503000,0.098503173828125,0.7094533443450928,0.36930498480796814,0.17814160883426666
1772045252833489000,0.108489013671875,0.6860998272895813,0.3534888029098511,0.18495240807533264
1772045252843475200,0.11847509765625,0.632769763469696,0.28914499282836914,0.18362535536289215
1772045252853461000,0.1284609375,0.5472849607467651,0.21388059854507446,0.18617241084575653
1772045252863447000,0.138447021484375,0.4955829083919525,0.17661845684051514,0.1956159770488739
1772045252873433000,0.14843310546875,0.5065191388130188,0.23479802906513214,0.21281170845031738
1772045252883418000,0.158418212890625,0.4843475818634033,0.366035133600235,0.21887917816638947
1772045252893404000,0.16840380859375,0.4400634169578552,0.4281848073005676,0.17039979994297028
1772045252903390200,0.17839013671875,0.42958176136016846,0.4094710350036621,0.07471082359552383
1772045252913376000,0.1883759765625,0.44741109013557434,0.3786991834640503,-0.06897181272506714
1772045252923362000,0.198362060546875,0.461188405752182,0.37063753604888916,-0.24383418262004852
1772045252933347800,0.208347900390625,0.4792625606060028,0.3981395661830902,-0.4412898123264313
1772045252943333000,0.2183330078125,0.5040454268455505,0.4457353353500366,-0.6480645537376404
1772045252953319200,0.228319091796875,0.526373028755188,0.485343337059021,-0.8571987748146057
1772045252963305000,0.238304931640625,0.5452952980995178,0.5558121800422668,-1.0790917873382568
1772045252973291300,0.248291259765625,0.6046309471130371,0.6698636412620544,-1.284139633178711
1772045252983277000,0.258277099609375,0.722166121006012,0.7661081552505493,-1.4246799945831299
1772045252993263000,0.26826318359375,0.8516210913658142,0.8183452486991882,-1.4884971380233765
1772045253003249200,0.278249267578125,0.9913524389266968,0.7350215911865234,-1.449073314666748
1772045253013234200,0.288234130859375,1.109448790550232,0.5441173911094666,-1.3169219493865967
1772045253023220000,0.298219970703125,1.1444389820098877,0.31928718090057373,-1.1337013244628906
1772045253033206000,0.3082060546875,1.091305136680603,0.09226442128419876,-0.922348141670227
1772045253043192000,0.318192138671875,0.971884548664093,-0.19777299463748932,-0.7098654508590698
1772045253053178000,0.32817822265625,0.8157966732978821,-0.5122126936912537,-0.48411911725997925
1772045253063164000,0.338163818359375,0.6260848045349121,-0.8456902503967285,-0.2684725821018219
1772045253073150200,0.348150146484375,0.3943563997745514,-1.1998034715652466,-0.07989955693483353
1772045253083135200,0.35813525390625,0.11336708068847656,-1.5649527311325073,0.053739190101623535
1772045253093121000,0.36812109375,-0.17282575368881226,-1.8802686929702759,0.14258764684200287
1772045253103107000,0.378107177734375,-0.42614856362342834,-2.0915257930755615,0.20143604278564453
1772045253113093000,0.388093017578125,-0.6035721898078918,-1.8231316804885864,0.12324869632720947
1772045253123079200,0.3980791015625,-0.6696446537971497,-1.4228992462158203,-0.053289324045181274
1772045253133065000,0.40806494140625,-0.6209496855735779,-1.2401931285858154,-0.11203964799642563
1772045253143051300,0.41805126953125,-0.4732168912887573,-1.1090689897537231,-0.19423358142375946
1772045253153036000,0.4280361328125,-0.23473550379276276,-1.138476848602295,-0.3080502152442932
1772045253163022000,0.43802197265625,0.09378404915332794,-1.2741174697875977,-0.42173150181770325
1772045253173008000,0.4480078125,0.49107858538627625,-1.575458288192749,-0.5089887976646423
1772045253182994200,0.457994140625,0.8865838050842285,-1.8676984310150146,-0.5616142153739929
1772045253192980000,0.46797998046875,1.204839825630188,-2.187386989593506,-0.5445185899734497
1772045253202966000,0.477966064453125,1.3767361640930176,-2.596035957336426,-0.4406265616416931
1772045253212952000,0.4879521484375,1.387475848197937,-2.9754252433776855,-0.2530163526535034
1772045253222937000,0.49793701171875,1.3449231386184692,-3.238030195236206,-0.027592282742261887
1772045253232923100,0.507923095703125,1.3667714595794678,-3.423518657684326,0.24675218760967255
1772045253242909000,0.517908935546875,1.4269336462020874,-3.6723859310150146,0.5060191750526428
1772045253252895200,0.527895263671875,1.4861091375350952,-3.9769911766052246,0.7419194579124451
1772045253262881000,0.537881103515625,1.6075361967086792,-4.103967189788818,0.9391619563102722
1772045253272867000,0.5478671875,1.8130886554718018,-4.036507606506348,1.0791178941726685
1772045253282851800,0.557851806640625,2.072584629058838,-4.171849250793457,1.1889429092407227
1772045253292838100,0.567838134765625,2.2917494773864746,-4.227383613586426,1.2766722440719604
1772045253302824000,0.577823974609375,2.480883836746216,-4.238214015960693,1.3202623128890991
1772045253312810000,0.58781005859375,2.6668851375579834,-4.230231285095215,1.3621588945388794
1772045253322796000,0.597796142578125,2.8405354022979736,-4.2254791259765625,1.439452052116394
1772045253332782000,0.607781982421875,2.959005832672119,-4.295300483703613,1.5710471868515015
1772045253342767900,0.617767822265625,2.9905261993408203,-4.464197635650635,1.741445779800415
1772045253352753200,0.627753173828125,2.9198036193847656,-4.588086128234863,1.9417929649353027
1772045253362739200,0.6377392578125,2.7892894744873047,-4.574560165405273,2.127272129058838
1772045253372725000,0.64772509765625,2.650480270385742,-4.439666271209717,2.2075045108795166
1772045253382711000,0.6577109375,2.5349597930908203,-4.215885162353516,2.1730480194091797
1772045253392697000,0.667697021484375,2.4964566230773926,-3.991922616958618,2.050747871398926
1772045253402683100,0.67768310546875,2.5577261447906494,-3.797013759613037,1.8835960626602173
1772045253412669000,0.6876689453125,2.678356170654297,-3.5868563652038574,1.7535860538482666
1772045253422655200,0.6976552734375,2.802499771118164,-3.412141799926758,1.691245198249817
1772045253432640000,0.707639892578125,2.874408483505249,-3.340682029724121,1.6880829334259033
1772045253442626000,0.7176259765625,2.8801095485687256,-3.2877025604248047,1.7287120819091797
1772045253452612000,0.727612060546875,2.849421977996826,-3.1584877967834473,1.7481590509414673
1772045253462598100,0.73759814453125,2.817685127258301,-2.9098379611968994,1.6980592012405396
1772045253472584000,0.747583984375,2.7805213928222656,-2.57352876663208,1.562284231185913
1772045253482570000,0.757570068359375,2.735844612121582,-2.2141730785369873,1.3883566856384277
1772045253492556000,0.76755615234375,2.6865196228027344,-1.9151149988174438,1.219221591949463
1772045253502541000,0.777541015625,2.6187210083007812,-1.6677838563919067,1.0919994115829468
1772045253512527000,0.787527099609375,2.532677173614502,-1.4827512502670288,1.014672875404358
1772045253522513200,0.79751318359375,2.4329607486724854,-1.3477787971496582,0.9845715165138245
1772045253532499200,0.807499267578125,2.3123135566711426,-1.2432266473770142,0.986960232257843
1772045253542485000,0.817485107421875,2.177241802215576,-1.156956434249878,1.0013999938964844
1772045253552471000,0.827470947265625,2.0547969341278076,-1.0917259454727173,1.0070075988769531
1772045253562457000,0.83745703125,1.9518260955810547,-1.0242425203323364,0.9986202716827393
1772045253572442000,0.847442138671875,1.868080496788025,-0.9468551278114319,0.9710801243782043
1772045253582428000,0.857427978515625,1.8251875638961792,-0.8446441292762756,0.9037429094314575
1772045253592414200,0.867414306640625,1.8094489574432373,-0.7200232148170471,0.7889894247055054
1772045253602400000,0.87739990234375,1.7921123504638672,-0.5814583897590637,0.6427779197692871
1772045253612386000,0.887385986328125,1.7788176536560059,-0.4608442187309265,0.47176316380500793
1772045253622372000,0.8973720703125,1.7641090154647827,-0.3639104664325714,0.28818029165267944
1772045253632358100,0.907358154296875,1.7239181995391846,-0.28701138496398926,0.11617525666952133
1772045253642343200,0.91734326171875,1.653731107711792,-0.2334195226430893,-0.02825276181101799
1772045253652329000,0.927328857421875,1.5753881931304932,-0.21048347651958466,-0.1518208533525467
1772045253662315000,0.93731494140625,1.4931423664093018,-0.21278870105743408,-0.25024357438087463
1772045253672301000,0.947301025390625,1.4316234588623047,-0.22540616989135742,-0.32185855507850647
1772045253682287000,0.957287109375,1.3838399648666382,-0.25688740611076355,-0.37001994252204895
1772045253692273200,0.967273193359375,1.3511099815368652,-0.2941882908344269,-0.4145093560218811
1772045253702259000,0.977259033203125,1.33223557472229,-0.32640349864959717,-0.4605434238910675
1772045253712244000,0.987243896484375,1.3240643739700317,-0.3175199031829834,-0.5140959620475769
1772045253722230000,0.99722998046875,1.3010503053665161,-0.2609804570674896,-0.5787942409515381
1772045253732216000,1.007216064453125,1.2441540956497192,-0.1592891365289688,-0.6469817757606506
1772045253742202000,1.0172021484375,1.1592539548873901,-0.02831302396953106,-0.7084357738494873
1772045253752188000,1.02718798828125,1.0296977758407593,0.10858313739299774,-0.7594347596168518
1772045253762174200,1.03717431640625,0.8890323042869568,0.244081050157547,-0.8260782361030579
1772045253772160000,1.047159912109375,0.7645599842071533,0.3674541413784027,-0.8998045325279236
1772045253782145300,1.057145263671875,0.6648520231246948,0.4957175552845001,-0.9558893442153931
1772045253792131300,1.06713134765625,0.622694194316864,0.5989338755607605,-0.9944227933883667
1772045253802117400,1.077117431640625,0.5931256413459778,0.6699199080467224,-1.0075947046279907
1772045253812103200,1.087103271484375,0.5692662000656128,0.7201933264732361,-1.0086028575897217
1772045253822089500,1.09708935546875,0.5353508591651917,0.7549883127212524,-1.0039868354797363
1772045253832075300,1.1070751953125,0.48685410618782043,0.7683476805686951,-0.9961217641830444
1772045253842061300,1.117061279296875,0.41516366600990295,0.7689117789268494,-0.9760074615478516
1772045253852046300,1.12704638671875,0.3396383821964264,0.7677657008171082,-0.9547632336616516
1772045253862032400,1.137032470703125,0.2695639729499817,0.7574566006660461,-0.9246727228164673
1772045253872018400,1.147018310546875,0.20578238368034363,0.7413074970245361,-0.8685211539268494
1772045253882004200,1.157004150390625,0.13756631314754486,0.7282175421714783,-0.7960512042045593
1772045253891990500,1.166990478515625,0.061510901898145676,0.6948127150535583,-0.7096999883651733
1772045253901976300,1.176976318359375,-0.026088986545801163,0.642303466796875,-0.6328624486923218
1772045253911962400,1.18696240234375,-0.12607912719249725,0.590004026889801,-0.5587387681007385
1772045253921947100,1.196947021484375,-0.2297317534685135,0.5344760417938232,-0.5020118355751038
1772045253931933400,1.206933349609375,-0.33435526490211487,0.4921227991580963,-0.45779141783714294
1772045253941919200,1.216919189453125,-0.4317641258239746,0.44025880098342896,-0.42324063181877136
1772045253951905300,1.2269052734375,-0.5166028738021851,0.40206247568130493,-0.39772143959999084
1772045253961891300,1.236891357421875,-0.5968023538589478,0.35620391368865967,-0.38755351305007935
1772045253971877400,1.24687744140625,-0.6625367999076843,0.31812453269958496,-0.3931127190589905
1772045253981863200,1.25686328125,-0.7134596705436707,0.287780225276947,-0.4128563404083252
1772045253991848200,1.26684814453125,-0.737242579460144,0.2692679464817047,-0.4356713593006134
1772045254001834500,1.27683447265625,-0.733573853969574,0.27721214294433594,-0.4643397629261017
1772045254011820300,1.2868203125,-0.7096439599990845,0.2955892086029053,-0.48545321822166443
1772045254021806300,1.296806396484375,-0.6681905388832092,0.3207472860813141,-0.49992725253105164
1772045254031792400,1.30679248046875,-0.6132034659385681,0.35230565071105957,-0.5003836154937744
1772045254041778400,1.3167783203125,-0.5599604845046997,0.3649234473705292,-0.4922884702682495
1772045254051764200,1.32676416015625,-0.5133883357048035,0.36660036444664,-0.48062363266944885
1772045254061749500,1.33674951171875,-0.4809904396533966,0.36455586552619934,-0.4607788324356079
1772045254071735300,1.3467353515625,-0.4654780626296997,0.348492830991745,-0.4318374693393707
1772045254081721300,1.356721435546875,-0.4586784839630127,0.34099283814430237,-0.3997402787208557
1772045254091707100,1.36670703125,-0.44495487213134766,0.33805328607559204,-0.3749135434627533
1772045254101693400,1.376693359375,-0.41165950894355774,0.32896870374679565,-0.34467068314552307
1772045254111679200,1.38667919921875,-0.36691197752952576,0.3366657495498657,-0.3117508590221405
1772045254121665300,1.396665283203125,-0.3006274998188019,0.34315428137779236,-0.2772621214389801
1772045254131650600,1.406650634765625,-0.2214108109474182,0.34512466192245483,-0.24439379572868347
1772045254141636400,1.41663623046875,-0.14370882511138916,0.35214313864707947,-0.2122877836227417
1772045254151622400,1.426622314453125,-0.07359150797128677,0.32361555099487305,-0.17425590753555298
1772045254161608400,1.4366083984375,-0.009671379812061787,0.26828277111053467,-0.116218701004982
1772045254171594500,1.446594482421875,0.05252865329384804,0.19261404871940613,-0.05870329588651657
1772045254181580300,1.456580322265625,0.11299784481525421,0.09646354615688324,0.005332411266863346
1772045254191566300,1.46656640625,0.17207443714141846,-0.010853162966668606,0.07707392424345016
1772045254201551400,1.47655126953125,0.2362464964389801,-0.11730583757162094,0.14286863803863525
1772045254211537400,1.486537353515625,0.2910715341567993,-0.218117356300354,0.20996679365634918
1772045254221523200,1.496523193359375,0.32810357213020325,-0.2925473749637604,0.2703057527542114
1772045254231509500,1.506509521484375,0.3532106578350067,-0.3430326282978058,0.33717644214630127
1772045254241495300,1.516495361328125,0.35723763704299927,-0.37028369307518005,0.385839581489563
1772045254251481300,1.5264814453125,0.33257558941841125,-0.3932270109653473,0.4169921875
1772045254261467400,1.53646728515625,0.3001505136489868,-0.401765376329422,0.4247422516345978
1772045254271452400,1.546452392578125,0.2600359320640564,-0.39739757776260376,0.4099099040031433
1772045254281438500,1.5564384765625,0.2299826741218567,-0.3819326162338257,0.3876541256904602
1772045254291424300,1.56642431640625,0.21559932827949524,-0.3533157706260681,0.3656880259513855
1772045254301410600,1.57641064453125,0.2083430141210556,-0.32292723655700684,0.3633732199668884
1772045254311396400,1.586396240234375,0.2162928283214569,-0.30217090249061584,0.368691623210907
1772045254321382400,1.59638232421875,0.24554073810577393,-0.2879435122013092,0.37852296233177185
1772045254331367200,1.6063671875,0.28429463505744934,-0.28028810024261475,0.38961362838745117
1772045254341353500,1.616353515625,0.33117133378982544,-0.24443158507347107,0.3845517635345459
1772045254351339300,1.62633935546875,0.36646386981010437,-0.21739408373832703,0.3660812973976135
1772045254361325300,1.6363251953125,0.36548304557800293,-0.2423790544271469,0.32114896178245544
1772045254371311400,1.646311279296875,0.32955408096313477,-0.2666393220424652,0.23480938374996185
1772045254381297400,1.65629736328125,0.3013847768306732,-0.27082446217536926,0.12919454276561737
1772045254391283200,1.666283203125,0.2988153398036957,-0.2503974735736847,0.030196502804756165
1772045254401268200,1.676268310546875,0.31870993971824646,-0.21289564669132233,-0.043936848640441895
1772045254411254500,1.686254638671875,0.34897345304489136,-0.19870227575302124,-0.10383527725934982
1772045254421240300,1.696240234375,0.3757363557815552,-0.17762203514575958,-0.16360487043857574
1772045254431226400,1.706226318359375,0.3953019976615906,-0.13283763825893402,-0.2119171917438507
1772045254441212400,1.71621240234375,0.39757925271987915,-0.08424346148967743,-0.25890281796455383
1772045254451198500,1.726198486328125,0.3753639757633209,-0.023319749161601067,-0.3024774491786957
1772045254461183200,1.736183349609375,0.3262251913547516,0.04808865115046501,-0.3403337597846985
1772045254471169300,1.746169189453125,0.2441731095314026,0.1299048513174057,-0.35829854011535645
1772045254481155300,1.7561552734375,0.1393130123615265,0.21026787161827087,-0.3625265955924988
1772045254491141400,1.766141357421875,0.01896803267300129,0.27834025025367737,-0.34982314705848694
1772045254501127200,1.776127197265625,-0.10004837065935135,0.31554272770881653,-0.3150923252105713
1772045254511113500,1.786113525390625,-0.1987297236919403,0.3318086862564087,-0.25215309858322144
1772045254521099300,1.796099365234375,-0.2714710235595703,0.3277071416378021,-0.14990366995334625
1772045254531084300,1.806084228515625,-0.3222256302833557,0.24765828251838684,-0.008112837560474873
1772045254541070300,1.8160703125,-0.34592029452323914,0.09515422582626343,0.15447793900966644
1772045254551056400,1.826056396484375,-0.34781622886657715,-0.08586830645799637,0.33009496331214905
1772045254561042400,1.83604248046875,-0.3470790684223175,-0.27330026030540466,0.49922245740890503
1772045254571028200,1.8460283203125,-0.3531079590320587,-0.47257882356643677,0.6481998562812805
1772045254581014300,1.85601416015625,-0.36897215247154236,-0.6360141038894653,0.7590076327323914
1772045254590999300,1.865999267578125,-0.4010278284549713,-0.7585112452507019,0.8287566304206848
1772045254600985300,1.8759853515625,-0.43624547123908997,-0.8126668930053711,0.8626384139060974
1772045254610971400,1.885971435546875,-0.4767877757549286,-0.7887632250785828,0.8578447699546814
1772045254620957400,1.89595751953125,-0.5232794284820557,-0.725823163986206,0.8155556321144104
1772045254630943200,1.905943115234375,-0.5772148370742798,-0.6365114450454712,0.7536125183105469
1772045254640929500,1.915929443359375,-0.6284668445587158,-0.5298225283622742,0.6669447422027588
1772045254650915300,1.925915283203125,-0.675480306148529,-0.4170376658439636,0.5712811350822449
1772045254660900400,1.935900390625,-0.7128382921218872,-0.3072965145111084,0.47423502802848816
1772045254670886400,1.945886474609375,-0.7383500933647156,-0.20794810354709625,0.37642985582351685
1772045254680872400,1.95587255859375,-0.7408502697944641,-0.13676661252975464,0.28775298595428467
1772045254690858200,1.965858154296875,-0.7299794554710388,-0.07671576738357544,0.21402297914028168
1772045254700844300,1.97584423828125,-0.713456392288208,-0.03592466190457344,0.14405454695224762
1772045254710830300,1.985830322265625,-0.6825889348983765,-0.038945190608501434,0.08337351679801941
1772045254720815400,1.9958154296875,-0.6390880346298218,-0.029674194753170013,0.0371604785323143
1772045254730801400,2.005801513671875,-0.5904052257537842,-0.034486182034015656,0.0049705407582223415
1772045254740787200,2.015787109375,-0.5383244156837463,-0.06244644150137901,-0.010656621307134628
1772045254750773500,2.0257734375,-0.4807951748371124,-0.09279682487249374,-0.008333912119269371
1772045254760759300,2.03575927734375,-0.425388365983963,-0.12770527601242065,0.006332115735858679
1772045254770745300,2.045745361328125,-0.3665158748626709,-0.16719777882099152,0.031871248036623
1772045254780731400,2.0557314453125,-0.3042951226234436,-0.20332860946655273,0.048872336745262146
1772045254790716400,2.06571630859375,-0.23738183081150055,-0.242228165268898,0.06461460888385773
1772045254800702200,2.0757021484375,-0.161887064576149,-0.2725493013858795,0.08047586679458618
1772045254810688300,2.085688232421875,-0.059731531888246536,-0.2721478343009949,0.07088956981897354
1772045254820674300,2.09567431640625,0.043531738221645355,-0.2275305837392807,0.01428621169179678
1772045254830660400,2.105660400390625,0.10234422981739044,-0.13397984206676483,-0.09941496700048447
1772045254840646100,2.115646240234375,0.11418516933917999,-0.01894831843674183,-0.25064709782600403
1772045254850631200,2.125631103515625,0.08023946732282639,0.10806360095739365,-0.4285252094268799
1772045254860617500,2.135617431640625,0.031316135078668594,0.24844148755073547,-0.6114614605903625
1772045254870603300,2.145603271484375,-0.014917614869773388,0.3979248106479645,-0.798550009727478
1772045254880589300,2.15558935546875,-0.04308027774095535,0.5379453301429749,-0.9733372330665588
1772045254890575400,2.165575439453125,-0.04660986363887787,0.65775066614151,-1.133832573890686
1772045254900561400,2.1755615234375,-0.02669474482536316,0.7508225440979004,-1.2720320224761963
1772045254910546200,2.185546142578125,0.008943194523453712,0.8237243890762329,-1.3808761835098267
1772045254920532200,2.1955322265625,0.03941694647073746,0.8777742981910706,-1.470589518547058
1772045254930518300,2.205518310546875,0.05843165144324303,0.9300002455711365,-1.5325535535812378
1772045254940504300,2.21550439453125,0.06690529733896255,0.9828214049339294,-1.5706119537353516
1772045254950490000,2.225489990234375,0.07226637005805969,1.0362788438796997,-1.57415771484375
1772045254960476400,2.235476318359375,0.0669909119606018,1.068339228630066,-1.5551635026931763
1772045254970462200,2.245462158203125,0.07834172993898392,1.0920500755310059,-1.5277485847473145
1772045254980447200,2.255447265625,0.11231061816215515,1.0903711318969727,-1.477800965309143
1772045254990433300,2.265433349609375,0.16357800364494324,1.0366042852401733,-1.4117176532745361
1772045255000419300,2.27541943359375,0.23232725262641907,0.9427712559700012,-1.3373247385025024
1772045255010405400,2.2854052734375,0.3125341236591339,0.8245283961296082,-1.2584811449050903
1772045255020391200,2.29539111328125,0.40798261761665344,0.7037582993507385,-1.1644119024276733
1772045255030377500,2.30537744140625,0.4992687404155731,0.595284640789032,-1.04769766330719
1772045255040362200,2.3153623046875,0.5878376960754395,0.5240517854690552,-0.9294441342353821
1772045255050348300,2.325348388671875,0.6409881711006165,0.488239049911499,-0.8205514550209045
1772045255060334000,2.335333984375,0.6481935977935791,0.46883127093315125,-0.7204243540763855
1772045255070320400,2.3453203125,0.6256274580955505,0.45584261417388916,-0.618096649646759
1772045255080306200,2.35530615234375,0.5566726326942444,0.4467574954032898,-0.5202973484992981
1772045255090292200,2.365292236328125,0.4654430150985718,0.4354216456413269,-0.430388480424881
1772045255100277200,2.37527734375,0.36149024963378906,0.4220222234725952,-0.342191219329834
1772045255110263300,2.38526318359375,0.26559460163116455,0.41102078557014465,-0.24649672210216522
1772045255120249300,2.395249267578125,0.18502333760261536,0.3753405511379242,-0.14373332262039185
1772045255130235100,2.405235107421875,0.1047372967004776,0.32309722900390625,-0.03983696177601814
1772045255140221400,2.415221435546875,0.02296040579676628,0.26689842343330383,0.05165727064013481
1772045255150207200,2.425207275390625,-0.06623772531747818,0.2120404690504074,0.12545941770076752
1772045255160192300,2.435192138671875,-0.1416136920452118,0.15354865789413452,0.17665442824363708
1772045255170178300,2.44517822265625,-0.20886528491973877,0.11225844919681549,0.20757487416267395
1772045255180164400,2.455164306640625,-0.2528764009475708,0.07907918840646744,0.21092192828655243
1772045255190150100,2.465150146484375,-0.2695698142051697,0.06668069958686829,0.19863910973072052
1772045255200136200,2.47513623046875,-0.26711544394493103,0.08027800172567368,0.16887696087360382
1772045255210122200,2.485122314453125,-0.23733402788639069,0.1026892364025116,0.12634478509426117
1772045255220107300,2.495107177734375,-0.19103790819644928,0.13187402486801147,0.07217182219028473
1772045255230093300,2.50509326171875,-0.13430118560791016,0.17500682175159454,0.013621070422232151
1772045255240079400,2.515079345703125,-0.07957296073436737,0.219244584441185,-0.049126997590065
1772045255250065400,2.5250654296875,-0.023953501135110855,0.24613085389137268,-0.10291779041290283
1772045255260051200,2.53505126953125,0.03263866901397705,0.25557655096054077,-0.1359979808330536
1772045255270037500,2.54503759765625,0.09059066325426102,0.24205239117145538,-0.15522891283035278
1772045255280022300,2.555022216796875,0.15528284013271332,0.20320220291614532,-0.15928570926189423
1772045255290008300,2.56500830078125,0.22175480425357819,0.15108254551887512,-0.16221944987773895
1772045255299994000,2.574994140625,0.28508639335632324,0.09508558362722397,-0.16152861714363098
1772045255309980400,2.58498046875,0.35072946548461914,0.03593452647328377,-0.14739596843719482
1772045255319966200,2.59496630859375,0.42426440119743347,-0.021922379732131958,-0.12358331680297852
1772045255329952300,2.6049521484375,0.5000612139701843,-0.07120905071496964,-0.1032271608710289
1772045255339937300,2.614937255859375,0.5702322721481323,-0.12218435108661652,-0.06616581231355667
1772045255349923300,2.62492333984375,0.635098934173584,-0.18566957116127014,-0.031721197068691254
1772045255359909400,2.634909423828125,0.6869160532951355,-0.24116958677768707,-0.0012144194915890694
1772045255369895200,2.644895263671875,0.7218741774559021,-0.2773243188858032,0.03328482061624527
1772045255379881500,2.654881591796875,0.7372904419898987,-0.3055298626422882,0.06079607456922531
1772045255389867300,2.6648671875,0.7324657440185547,-0.31303489208221436,0.08686894923448563
1772045255399852300,2.674852294921875,0.7001530528068542,-0.2969163656234741,0.09893493354320526
1772045255409838000,2.684838134765625,0.6513773202896118,-0.2612168788909912,0.09163288027048111
1772045255419824400,2.694824462890625,0.5915592908859253,-0.2014525979757309,0.06743966042995453
1772045255429810200,2.70481005859375,0.5276631712913513,-0.1299823820590973,0.0354568287730217
1772045255439796200,2.714796142578125,0.4752204716205597,-0.05247427150607109,0.011351490393280983
1772045255449782300,2.7247822265625,0.42620691657066345,0.011019590310752392,0.003620981704443693
1772045255459767300,2.734767333984375,0.39123988151550293,0.05190710350871086,0.013013151474297047
1772045255469753300,2.74475341796875,0.35596373677253723,0.052896756678819656,0.03848029300570488
1772045255479739100,2.7547392578125,0.3265211582183838,0.013069450855255127,0.06620592623949051
1772045255489725400,2.764725341796875,0.29239723086357117,-0.051483456045389175,0.1078803613781929
1772045255499711200,2.774711181640625,0.2563428282737732,-0.1337471604347229,0.1411384493112564
1772045255509697300,2.784697265625,0.21993303298950195,-0.20631691813468933,0.15415064990520477
1772045255519682300,2.794682373046875,0.16461065411567688,-0.25877267122268677,0.1368694007396698
1772045255529668400,2.80466845703125,0.09082107245922089,-0.2625356614589691,0.07298649102449417
1772045255539654100,2.814654052734375,0.003970056772232056,-0.21054382622241974,-0.03603053838014603
1772045255549640400,2.824640380859375,-0.08869904279708862,-0.11956682801246643,-0.1871393918991089
1772045255559626200,2.834626220703125,-0.1670878529548645,0.01013683620840311,-0.36932945251464844
1772045255569611300,2.844611328125,-0.20159822702407837,0.18404069542884827,-0.5550768375396729
1772045255579597300,2.854597412109375,-0.1866416484117508,0.3416108787059784,-0.7158606648445129
1772045255589583400,2.864583251953125,-0.12892992794513702,0.46689078211784363,-0.8399541974067688
1772045255599569400,2.8745693359375,-0.04946998879313469,0.5683662295341492,-0.9178345799446106
1772045255609555200,2.88455517578125,0.04604761302471161,0.6286752820014954,-0.9310265779495239
1772045255619541500,2.89454150390625,0.12659411132335663,0.6367353200912476,-0.894124448299408
1772045255629526300,2.9045263671875,0.15471547842025757,0.6094133853912354,-0.8306185603141785
1772045255639512300,2.91451220703125,0.12856855988502502,0.5669295787811279,-0.756975531578064
1772045255649498000,2.924498046875,0.05395609885454178,0.4948887228965759,-0.6921411156654358
1772045255659484400,2.934484375,-0.06496362388134003,0.403583824634552,-0.6445813179016113
1772045255669470200,2.94447021484375,-0.2115471363067627,0.32384711503982544,-0.610745370388031
1772045255679456300,2.954456298828125,-0.3521774709224701,0.2622801661491394,-0.5743681788444519
1772045255689441300,2.964441162109375,-0.4531782865524292,0.22585462033748627,-0.5195910334587097
1772045255699427300,2.97442724609375,-0.5074532628059387,0.18770644068717957,-0.4415292739868164
1772045255709413400,2.984413330078125,-0.5251704454421997,0.12874653935432434,-0.34365490078926086
1772045255719399200,2.994399169921875,-0.5247331857681274,0.03786616399884224,-0.2411687672138214
1772045255729385500,3.004385498046875,-0.515388011932373,-0.07504862546920776,-0.13557636737823486
1772045255739370200,3.014370361328125,-0.5112031698226929,-0.19702939689159393,-0.03816087916493416
1772045255749356300,3.024356201171875,-0.51972496509552,-0.31640326976776123,0.033827174454927444
1772045255759342000,3.034342041015625,-0.5531100630760193,-0.4266546964645386,0.07484570890665054
1772045255769328400,3.044328369140625,-0.5861368775367737,-0.49933281540870667,0.08572231978178024
1772045255779314200,3.054314208984375,-0.6294323801994324,-0.543413519859314,0.06526471674442291
1772045255789300000,3.064300048828125,-0.6705140471458435,-0.5431454181671143,0.0071851834654808044
1772045255799285000,3.074284912109375,-0.7115650773048401,-0.49230509996414185,-0.06903582066297531
1772045255809270800,3.084270751953125,-0.7443251609802246,-0.4026753306388855,-0.1651182323694229
1772045255819257000,3.094257080078125,-0.7713927626609802,-0.2826938033103943,-0.2760750949382782
1772045255829243000,3.104242919921875,-0.8004782199859619,-0.14918406307697296,-0.3848206102848053
1772045255839229000,3.11422900390625,-0.8111037015914917,-0.005392282269895077,-0.49024689197540283
1772045255849214000,3.1242138671875,-0.8104414939880371,0.13899609446525574,-0.584240734577179
1772045255859200000,3.134199951171875,-0.8074382543563843,0.2690129578113556,-0.6772870421409607
1772045255869186000,3.14418603515625,-0.8006160259246826,0.37723246216773987,-0.75998854637146
1772045255879172000,3.154172119140625,-0.7890669703483582,0.4587230682373047,-0.8278709053993225
1772045255889158000,3.164157958984375,-0.7568861246109009,0.514962375164032,-0.8820709586143494
1772045255899144000,3.17414404296875,-0.7105345726013184,0.5472108721733093,-0.9284752011299133
1772045255909129000,3.18412890625,-0.6528415679931641,0.5578703880310059,-0.9495062232017517
1772045255919115000,3.194114990234375,-0.57610684633255,0.563694179058075,-0.9499962329864502
1772045255929101000,3.20410107421875,-0.486068993806839,0.5574072003364563,-0.9331672191619873
1772045255939086800,3.2140869140625,-0.39423760771751404,0.5354443788528442,-0.901954710483551
1772045255949073200,3.2240732421875,-0.30008161067962646,0.4954071044921875,-0.8562688827514648
1772045255959059000,3.234058837890625,-0.213723823428154,0.44000110030174255,-0.8016338348388672
1772045255969044000,3.2440439453125,-0.14026346802711487,0.37079283595085144,-0.7467471957206726
1772045255979030000,3.254030029296875,-0.06274284422397614,0.2839021384716034,-0.6922309398651123
1772045255989016000,3.26401611328125,0.01521594449877739,0.20323359966278076,-0.6491492986679077
1772045255999001900,3.274001953125,0.09543648362159729,0.12788425385951996,-0.615645170211792
1772045256008988000,3.28398779296875,0.18088632822036743,0.044623784720897675,-0.5891106724739075
1772045256018973000,3.293972900390625,0.27486875653266907,-0.02652309648692608,-0.5712670087814331
1772045256028959000,3.303958984375,0.3762910068035126,-0.0958714410662651,-0.5642936825752258
1772045256038945000,3.313945068359375,0.4819106459617615,-0.15236002206802368,-0.5763642191886902
1772045256048930800,3.323930908203125,0.5985016226768494,-0.19768989086151123,-0.5979865789413452
1772045256058917000,3.333917236328125,0.7155864238739014,-0.21657569706439972,-0.6275713443756104
1772045256068903000,3.34390283203125,0.8329991698265076,-0.22583115100860596,-0.6660276055335999
1772045256078888000,3.353887939453125,0.9560624957084656,-0.22185663878917694,-0.7148289680480957
1772045256088874000,3.3638740234375,1.0779798030853271,-0.19038037955760956,-0.7624770998954773
1772045256098860000,3.373860107421875,1.1860674619674683,-0.14290712773799896,-0.8107649683952332
1772045256108845800,3.383845703125,1.2637170553207397,-0.08909980207681656,-0.8678373098373413
1772045256118831900,3.393831787109375,1.3039158582687378,-0.04645061120390892,-0.9383929967880249
1772045256128817200,3.403817138671875,1.3102589845657349,0.0009423860465176404,-1.0337790250778198
1772045256138803000,3.413802978515625,1.3106722831726074,0.06254609674215317,-1.1373211145401
1772045256148789000,3.4237890625,1.3122462034225464,0.13193465769290924,-1.2370837926864624
1772045256158774800,3.43377490234375,1.3147189617156982,0.20524989068508148,-1.3237922191619873
1772045256168761000,3.443760986328125,1.324112892150879,0.2849113941192627,-1.3974981307983398
1772045256178747000,3.453746826171875,1.3401845693588257,0.383032888174057,-1.441123366355896
1772045256188732000,3.46373193359375,1.341178059577942,0.49009230732917786,-1.4592807292938232
1772045256198718000,3.473718017578125,1.3300007581710815,0.607883632183075,-1.4585545063018799
1772045256208704000,3.4837041015625,1.291458249092102,0.7343336939811707,-1.4417046308517456
1772045256218689800,3.493689697265625,1.2094526290893555,0.8643848896026611,-1.418291449546814
1772045256228676000,3.503676025390625,1.0721752643585205,0.9953078627586365,-1.4001649618148804
1772045256238661000,3.5136611328125,0.8632899522781372,1.1176923513412476,-1.4019207954406738
1772045256248647000,3.52364697265625,0.6051132678985596,1.2373167276382446,-1.4167250394821167
1772045256258633000,3.533633056640625,0.317742258310318,1.3542182445526123,-1.4331494569778442
1772045256268619000,3.543618896484375,0.050526753067970276,1.4483119249343872,-1.4216638803482056
1772045256278605000,3.55360498046875,-0.16467663645744324,1.4862843751907349,-1.3530685901641846
1772045256288590000,3.563590087890625,-0.3220513164997101,1.4696226119995117,-1.243610143661499
1772045256298576000,3.573575927734375,-0.42767494916915894,1.399057388305664,-1.0882997512817383
1772045256308562000,3.58356201171875,-0.4813176691532135,1.2895519733428955,-0.9060414433479309
1772045256318548000,3.5935478515625,-0.5093852281570435,1.1447774171829224,-0.7060468196868896
1772045256328533800,3.60353369140625,-0.5267916321754456,0.9752428531646729,-0.517763078212738
1772045256338520000,3.61352001953125,-0.5470553040504456,0.7868050336837769,-0.3529731035232544
1772045256348505000,3.623505126953125,-0.5770326852798462,0.6159301996231079,-0.2331799417734146
1772045256358491000,3.633490966796875,-0.6098716259002686,0.4690435528755188,-0.16465386748313904
1772045256368477000,3.643476806640625,-0.635623037815094,0.3597813546657562,-0.15187527239322662
1772045256378463000,3.653462890625,-0.650181233882904,0.30373379588127136,-0.18481937050819397
1772045256388449000,3.663448974609375,-0.6351522207260132,0.29877424240112305,-0.25052860379219055
1772045256398434000,3.67343408203125,-0.5894107818603516,0.3457217812538147,-0.3401724696159363
1772045256408420000,3.683420166015625,-0.5223534107208252,0.42452821135520935,-0.4464550316333771
1772045256418406000,3.693406005859375,-0.4420258700847626,0.5077580809593201,-0.5438034534454346
1772045256428392000,3.703391845703125,-0.3597136437892914,0.5844967365264893,-0.6314669251441956
1772045256438378000,3.7133779296875,-0.2839725613594055,0.6318884491920471,-0.6994134783744812
1772045256448363000,3.723363037109375,-0.22861728072166443,0.6456248760223389,-0.7418429255485535
1772045256458349000,3.73334912109375,-0.17980927228927612,0.6255478262901306,-0.7715587615966797
1772045256468334800,3.7433349609375,-0.13008174300193787,0.5832553505897522,-0.7894756197929382
1772045256478321200,3.753321044921875,-0.06432616710662842,0.5200915932655334,-0.7950515151023865
1772045256488307000,3.763306884765625,0.013002926483750343,0.4427449405193329,-0.7887274026870728
1772045256498292000,3.7732919921875,0.09918414801359177,0.3677263557910919,-0.7718594670295715
1772045256508278000,3.783278076171875,0.1959587186574936,0.30710217356681824,-0.74922114610672
1772045256518264000,3.79326416015625,0.29490286111831665,0.26965999603271484,-0.7238004803657532
1772045256528249900,3.803249755859375,0.3896102011203766,0.24695654213428497,-0.7035287618637085
1772045256538236000,3.81323583984375,0.4738891124725342,0.24166616797447205,-0.6874411702156067
1772045256548222000,3.823221923828125,0.5473856329917908,0.2533329427242279,-0.6774397492408752
1772045256558207000,3.83320703125,0.6106905937194824,0.26484283804893494,-0.6747190952301025
1772045256568193000,3.843193115234375,0.6496861577033997,0.2886301875114441,-0.6705743074417114
1772045256578178800,3.8531787109375,0.6836339831352234,0.3312878906726837,-0.6542291641235352
1772045256588165000,3.8631650390625,0.7046827077865601,0.37160226702690125,-0.6251240372657776
1772045256598151000,3.87315087890625,0.7128402590751648,0.40410587191581726,-0.5815626978874207
1772045256608136000,3.883135986328125,0.7088277339935303,0.42143404483795166,-0.5454456806182861
1772045256618122000,3.8931220703125,0.6992509961128235,0.41552767157554626,-0.49603739380836487
1772045256628108000,3.90310791015625,0.7022457718849182,0.3909347355365753,-0.4281843900680542
1772045256638093800,3.91309375,0.7214298844337463,0.3342893123626709,-0.3434330224990845
1772045256648080000,3.923079833984375,0.7421789765357971,0.23751239478588104,-0.24489004909992218
1772045256658065200,3.933065185546875,0.7547834515571594,0.11579366773366928,-0.13933725655078888
1772045256668051000,3.943051025390625,0.7484284043312073,-0.020326517522335052,-0.0464625358581543
1772045256678037000,3.953037109375,0.7075933814048767,-0.1739504188299179,0.01909729838371277
1772045256688022800,3.963022705078125,0.6340429186820984,-0.3249906301498413,0.05007658526301384
1772045256698009000,3.973009033203125,0.5531246662139893,-0.4164201617240906,0.030917005613446236
1772045256707994000,3.982994140625,0.4948906898498535,-0.43080174922943115,-0.022907664999365807
1772045256717980000,3.99297998046875,0.4532151520252228,-0.37567538022994995,-0.10131938010454178
1772045256727966000,4.002966064453125,0.40805214643478394,-0.26980969309806824,-0.21171702444553375
1772045256737952000,4.012951904296875,0.3485483229160309,-0.12779155373573303,-0.3354243338108063
1772045256747937800,4.022937744140625,0.2692467272281647,0.04582866281270981,-0.4574098289012909
1772045256757922800,4.0329228515625,0.1877894401550293,0.2361149787902832,-0.5594477653503418
1772045256767909000,4.0429091796875,0.10995246469974518,0.4092669188976288,-0.6462777256965637
1772045256777895000,4.05289501953125,0.04170310124754906,0.5500551462173462,-0.7138291001319885
1772045256787880700,4.062880615234375,-0.01889517903327942,0.6462001204490662,-0.7582542300224304
1772045256797866800,4.07286669921875,-0.0673319548368454,0.6921294927597046,-0.7796204686164856
1772045256807852800,4.082852783203125,-0.1079731434583664,0.688838541507721,-0.79372638463974
1772045256817837800,4.092837890625,-0.15294380486011505,0.6491982340812683,-0.7981669306755066
1772045256827823600,4.10282373046875,-0.20260226726531982,0.5935750007629395,-0.788142204284668
1772045256837810000,4.112809814453125,-0.257957398891449,0.5288098454475403,-0.7667264342308044
1772045256847795700,4.122795654296875,-0.3132343888282776,0.45945829153060913,-0.7238431572914124
1772045256857781800,4.13278173828125,-0.374847412109375,0.3902163803577423,-0.665058434009552
1772045256867766500,4.1427666015625,-0.4315096139907837,0.32705196738243103,-0.5970463156700134
1772045256877752800,4.1527529296875,-0.4859635531902313,0.2559894919395447,-0.526992678642273
1772045256887738600,4.162738525390625,-0.5357235670089722,0.1854923516511917,-0.4639676809310913
1772045256897724700,4.172724609375,-0.5745894908905029,0.12344469875097275,-0.4043770730495453
1772045256907710700,4.182710693359375,-0.6000414490699768,0.05870567634701729,-0.3507813811302185
1772045256917695700,4.19269580078125,-0.612339437007904,-0.004440532997250557,-0.2971564829349518
1772045256927681800,4.202681884765625,-0.6134132742881775,-0.0665951743721962,-0.24541527032852173
1772045256937667600,4.21266748046875,-0.6104419827461243,-0.11893720924854279,-0.1974022090435028
1772045256947654000,4.22265380859375,-0.6145941615104675,-0.16983982920646667,-0.16112209856510162
1772045256957639700,4.2326396484375,-0.6283538937568665,-0.2105339914560318,-0.14397932589054108
1772045256967624700,4.242624755859375,-0.654588520526886,-0.22186525166034698,-0.14216315746307373
1772045256977610800,4.25261083984375,-0.6945649981498718,-0.22669009864330292,-0.16995137929916382
1772045256987596800,4.2625966796875,-0.7445705533027649,-0.20900215208530426,-0.22289615869522095
1772045256997582600,4.27258251953125,-0.8150948286056519,-0.16332387924194336,-0.30224984884262085
1772045257007569000,4.28256884765625,-0.8789334297180176,-0.10059693455696106,-0.39808154106140137
1772045257017554700,4.2925546875,-0.9416042566299438,-0.01678273268043995,-0.4996446371078491
1772045257027539700,4.302539794921875,-0.989584743976593,0.0675719678401947,-0.6079390645027161
1772045257037525800,4.31252587890625,-1.0197423696517944,0.16461248695850372,-0.7125248908996582
1772045257047511800,4.32251171875,-1.0274910926818848,0.2506655156612396,-0.7986631989479065
1772045257057497900,4.332497802734375,-1.0164222717285156,0.32847777009010315,-0.8685392141342163
1772045257067483600,4.342483642578125,-0.9885525703430176,0.3868274986743927,-0.9231929779052734
1772045257077468700,4.35246875,-0.9382630586624146,0.42142221331596375,-0.9625509977340698
1772045257087454700,4.362454833984375,-0.8747647404670715,0.4379151165485382,-0.988358736038208
1772045257097440800,4.372440673828125,-0.8019546866416931,0.4318103492259979,-0.9923601746559143
1772045257107426600,4.382426513671875,-0.7184536457061768,0.4145205020904541,-0.9823863506317139
1772045257117412900,4.392412841796875,-0.62482088804245,0.3893296420574188,-0.9533613324165344
1772045257127398000,4.40239794921875,-0.5232385993003845,0.34591659903526306,-0.9121603965759277
1772045257137383700,4.4123837890625,-0.40939027070999146,0.29319533705711365,-0.860816240310669
1772045257147369700,4.42236962890625,-0.2912690043449402,0.2367851287126541,-0.8013850450515747
1772045257157355800,4.432355712890625,-0.1665038913488388,0.1695336550474167,-0.7384332418441772
1772045257167341800,4.442341796875,-0.05209575966000557,0.09586843103170395,-0.6651582717895508
1772045257177327600,4.45232763671875,0.05437449365854263,0.024106625467538834,-0.5940545201301575
1772045257187312600,4.462312744140625,0.14282387495040894,-0.049404360353946686,-0.5313377976417542
1772045257197298700,4.472298583984375,0.20908279716968536,-0.13607987761497498,-0.4866656959056854
1772045257207284700,4.48228466796875,0.27806413173675537,-0.20102375745773315,-0.46018895506858826
1772045257217270500,4.4922705078125,0.3399794101715088,-0.2410300225019455,-0.45494839549064636
1772045257227256800,4.5022568359375,0.4078707695007324,-0.2638081908226013,-0.47741395235061646
1772045257237241900,4.512241943359375,0.48170238733291626,-0.26839679479599,-0.5175943970680237
1772045257247227600,4.5222275390625,0.5607379078865051,-0.2667914628982544,-0.5627901554107666
1772045257257214000,4.5322138671875,0.6458855867385864,-0.25579848885536194,-0.6179194450378418
1772045257267199700,4.54219970703125,0.7231003046035767,-0.22395354509353638,-0.6789708733558655
1772045257277185800,4.552185791015625,0.7865716814994812,-0.1733340471982956,-0.7467605471611023
1772045257287171600,4.562171630859375,0.8235416412353516,-0.10343582928180695,-0.8246008157730103
1772045257297156900,4.572156982421875,0.8468805551528931,-0.018722541630268097,-0.9141743779182434
1772045257307142700,4.582142578125,0.8453168272972107,0.09062564373016357,-1.0009796619415283
1772045257317128700,4.592128662109375,0.8161181807518005,0.22189897298812866,-1.0813214778900146
1772045257327114800,4.60211474609375,0.7793562412261963,0.3613995313644409,-1.1493576765060425
1772045257337100800,4.612100830078125,0.7483037710189819,0.49386170506477356,-1.2120304107666016
1772045257347085800,4.6220859375,0.7367990016937256,0.5876618027687073,-1.2576199769973755
1772045257357071600,4.632071533203125,0.7573346495628357,0.6350492835044861,-1.2888476848602295
1772045257367058000,4.642057861328125,0.8071056604385376,0.6406450867652893,-1.294701099395752
1772045257377043700,4.652043701171875,0.8726332783699036,0.6091649532318115,-1.2830530405044556
1772045257387029800,4.66202978515625,0.9424837231636047,0.584120512008667,-1.2533138990402222
1772045257397015800,4.672015869140625,1.0005877017974854,0.5812339186668396,-1.2163442373275757
1772045257407000800,4.682000732421875,1.0260720252990723,0.6082273721694946,-1.188127040863037
1772045257416986600,4.691986572265625,1.0166676044464111,0.6552630662918091,-1.1797312498092651
1772045257426972700,4.70197265625,0.9734518527984619,0.740955114364624,-1.208446979522705
1772045257436958700,4.711958740234375,0.8920976519584656,0.8562918305397034,-1.247704029083252
1772045257446944800,4.72194482421875,0.7729445099830627,0.9838287830352783,-1.2860685586929321
1772045257456930600,4.7319306640625,0.617294192314148,1.1115003824234009,-1.3117494583129883
1772045257466915600,4.74191552734375,0.44389888644218445,1.2222414016723633,-1.3200616836547852
1772045257476902000,4.75190185546875,0.27199265360832214,1.2922894954681396,-1.312846064567566
1772045257486887700,4.7618876953125,0.12588559091091156,1.3024111986160278,-1.2813774347305298
1772045257496873700,4.771873779296875,0.010857275687158108,1.2449390888214111,-1.2220416069030762
1772045257506859800,4.78185986328125,-0.07133623957633972,1.1438835859298706,-1.1378498077392578
1772045257516844800,4.7918447265625,-0.12231021374464035,1.0037754774093628,-1.0314618349075317
1772045257526830600,4.80183056640625,-0.13547971844673157,0.8533980846405029,-0.9303528070449829
1772045257536817000,4.81181689453125,-0.11803334951400757,0.7061753869056702,-0.8378583192825317
1772045257546802700,4.821802734375,-0.08219189196825027,0.5753381848335266,-0.7665384411811829
1772045257556788700,4.831788818359375,-0.04583628475666046,0.4733944833278656,-0.7149093151092529
1772045257566774500,4.8417744140625,-0.009426644071936607,0.39709535241127014,-0.6832364201545715
1772045257576759800,4.851759765625,0.02076028659939766,0.3597882091999054,-0.6776165962219238
1772045257586745900,4.861745849609375,0.04605640098452568,0.3664926588535309,-0.7021949887275696
1772045257596731600,4.871731689453125,0.06103188917040825,0.4143483340740204,-0.7489997744560242
1772045257606718000,4.881718017578125,0.05981769040226936,0.4898059368133545,-0.8087420463562012
1772045257616703700,4.891703857421875,0.05792711302638054,0.5777408480644226,-0.8741673827171326
1772045257626689800,4.901689697265625,0.04644608497619629,0.6612016558647156,-0.9238350987434387
1772045257636674600,4.911674560546875,0.03818975389003754,0.7238125801086426,-0.9514715075492859
1772045257646660900,4.921660888671875,0.025975791737437248,0.7639475464820862,-0.9545590281486511
1772045257656646700,4.931646728515625,0.013901552185416222,0.7722185254096985,-0.9360899925231934
1772045257666632700,4.9416328125,-0.005732712801545858,0.7499547600746155,-0.904238224029541
1772045257676618800,4.95161865234375,-0.022015279158949852,0.705753743648529,-0.8571130633354187
1772045257686604800,4.961604736328125,-0.022398769855499268,0.6417436003684998,-0.7980433702468872
1772045257696589800,4.97158984375,-0.009496819227933884,0.56321120262146,-0.7262107133865356
1772045257706575600,4.98157568359375,0.020050659775733948,0.4641769528388977,-0.6486291885375977
1772045257716562000,4.99156201171875,0.06567700207233429,0.3594127297401428,-0.5632615685462952
1772045257726547700,5.001547607421875,0.10950789600610733,0.25754159688949585,-0.4926423728466034
1772045257736533800,5.01153369140625,0.16239400207996368,0.15607942640781403,-0.4543842077255249
1772045257746519800,5.021519775390625,0.21612636744976044,0.07527757436037064,-0.4472714066505432
1772045257756504800,5.0315048828125,0.27542537450790405,0.022185862064361572,-0.47277170419692993
1772045257766490600,5.04149072265625,0.3309759199619293,-0.009388238191604614,-0.5192372798919678
1772045257776476700,5.0514765625,0.377282977104187,-0.0037692345213145018,-0.5833025574684143
1772045257786463000,5.061462890625,0.42025408148765564,0.03650528937578201,-0.6667919754981995
1772045257796449000,5.071448974609375,0.4555388391017914,0.12044014036655426,-0.761485755443573
1772045257806435000,5.08143505859375,0.4896582067012787,0.21842776238918304,-0.8630449175834656
1772045257816420000,5.091420166015625,0.5173470377922058,0.32908502221107483,-0.9617813229560852
1772045257826406000,5.101406005859375,0.5366023182868958,0.43313494324684143,-1.0505785942077637
1772045257836392200,5.11139208984375,0.547484278678894,0.5218994617462158,-1.1275367736816406
1772045257846378000,5.1213779296875,0.5402428507804871,0.5838623642921448,-1.1807128190994263
1772045257856364000,5.131364013671875,0.5200622081756592,0.6134492754936218,-1.2034833431243896
1772045257866349800,5.141349853515625,0.49808448553085327,0.6197361350059509,-1.1956405639648438
1772045257876335000,5.151335205078125,0.47943034768104553,0.6009531021118164,-1.155340552330017
1772045257886321200,5.161321044921875,0.46246397495269775,0.562861979007721,-1.0914350748062134
1772045257896307000,5.171306884765625,0.4452511668205261,0.5163972973823547,-1.009950876235962
1772045257906293200,5.181293212890625,0.42560097575187683,0.46554073691368103,-0.9323500394821167
1772045257916279000,5.191279052734375,0.4025159180164337,0.3942843973636627,-0.8625749349594116
1772045257926265000,5.20126513671875,0.3670632839202881,0.30194714665412903,-0.8131130337715149
1772045257936251100,5.211251220703125,0.3457891643047333,0.20222587883472443,-0.7905709743499756
1772045257946236200,5.221236083984375,0.36368101835250854,0.1241971105337143,-0.7888557314872742
1772045257956222000,5.231221923828125,0.4151258170604706,0.06946195662021637,-0.792006254196167
1772045257966208000,5.2412080078125,0.4769466519355774,0.03718758001923561,-0.7899895906448364
1772045257976194000,5.251194091796875,0.5222160816192627,0.04998007416725159,-0.7943768501281738
1772045257986180000,5.26118017578125,0.5379670858383179,0.0986977219581604,-0.8214796185493469
1772045257996166000,5.271165771484375,0.5063633322715759,0.20349016785621643,-0.8723471164703369
1772045258006151000,5.28115087890625,0.4258238971233368,0.3578709065914154,-0.9595328569412231
1772045258016137200,5.29113720703125,0.3098192512989044,0.5571973323822021,-1.0643823146820068
1772045258026123000,5.301123046875,0.16671507060527802,0.7776612639427185,-1.1898170709609985
1772045258036109000,5.311109130859375,0.013572655618190765,1.0051201581954956,-1.309854507446289
1772045258046093800,5.32109375,-0.11703965067863464,1.2150293588638306,-1.407770037651062
1772045258056080100,5.331080078125,-0.20994402468204498,1.373847246170044,-1.4642903804779053
1772045258066066000,5.34106591796875,-0.2606963813304901,1.4775882959365845,-1.4859888553619385
1772045258076052000,5.351052001953125,-0.2788258194923401,1.5231057405471802,-1.4680426120758057
1772045258086038000,5.3610380859375,-0.29111403226852417,1.4972189664840698,-1.4213624000549316
1772045258096024000,5.371024169921875,-0.3180583119392395,1.409561038017273,-1.3429698944091797
1772045258106009000,5.381009033203125,-0.3647422194480896,1.2626813650131226,-1.2554877996444702
1772045258115995100,5.3909951171875,-0.4345170259475708,1.0971406698226929,-1.1753290891647339
1772045258125981200,5.400981201171875,-0.5102958679199219,0.9490074515342712,-1.1000810861587524
1772045258135967000,5.410967041015625,-0.5713595151901245,0.8112309575080872,-1.0329324007034302
1772045258145953000,5.420953125,-0.6007722616195679,0.6986404657363892,-0.9820444583892822
1772045258155939000,5.43093896484375,-0.6024604439735413,0.6111561059951782,-0.9479328393936157
1772045258165925000,5.440925048828125,-0.5730761289596558,0.544310986995697,-0.9242763519287109
1772045258175910000,5.450909912109375,-0.5126825571060181,0.4989214241504669,-0.9207726716995239
1772045258185896200,5.460896240234375,-0.4312434196472168,0.46923044323921204,-0.9341964721679688
1772045258195882000,5.470882080078125,-0.3456856310367584,0.4583391845226288,-0.9588118195533752
1772045258205868000,5.480867919921875,-0.2812500298023224,0.469107449054718,-0.9967148303985596
1772045258215854000,5.49085400390625,-0.24613037705421448,0.493167519569397,-1.0278304815292358
1772045258225840000,5.500840087890625,-0.25669994950294495,0.5300586819648743,-1.0588533878326416
1772045258235826000,5.510825927734375,-0.3042069971561432,0.5739510655403137,-1.0902315378189087
1772045258245811000,5.52081103515625,-0.38178685307502747,0.6286212205886841,-1.1293147802352905
1772045258255797200,5.53079736328125,-0.4693419933319092,0.676213264465332,-1.168062686920166
1772045258265783000,5.540782958984375,-0.5468020439147949,0.7189356088638306,-1.1919134855270386
1772045258275769000,5.55076904296875,-0.6114193797111511,0.7396589517593384,-1.198970913887024
1772045258285755100,5.560755126953125,-0.6502525806427002,0.7646884322166443,-1.191246509552002
1772045258295741200,5.5707412109375,-0.6629976630210876,0.7724587321281433,-1.1783459186553955
1772045258305727000,5.58072705078125,-0.666603147983551,0.7543848752975464,-1.1556118726730347
1772045258315712000,5.5907119140625,-0.656894326210022,0.7085771560668945,-1.1312223672866821
1772045258325698000,5.600697998046875,-0.6344845294952393,0.649696409702301,-1.1083217859268188
1772045258335684000,5.61068408203125,-0.5930705070495605,0.580588698387146,-1.0890933275222778
1772045258345670000,5.620669921875,-0.5202535390853882,0.49813804030418396,-1.0754534006118774
1772045258355656200,5.63065625,-0.4231397807598114,0.41169795393943787,-1.063612937927246
1772045258365642000,5.64064208984375,-0.29245156049728394,0.3170146048069,-1.0574431419372559
1772045258375628000,5.6506279296875,-0.1376989781856537,0.2299201786518097,-1.0604064464569092
1772045258385613000,5.660613037109375,0.041375815868377686,0.15467038750648499,-1.0557929277420044
1772045258395599000,5.67059912109375,0.23471225798130035,0.10007531195878983,-1.0477328300476074
1772045258405585200,5.680585205078125,0.40438219904899597,0.054054100066423416,-1.052695393562317
1772045258415571000,5.690571044921875,0.5344291925430298,0.01929238997399807,-1.0636279582977295
1772045258425557200,5.70055712890625,0.6084640026092529,-0.021632852032780647,-1.0793299674987793
1772045258435543000,5.71054296875,0.6494132876396179,-0.04909669980406761,-1.101824402809143
1772045258445529000,5.720529052734375,0.6436014771461487,-0.058668799698352814,-1.131815791130066
1772045258455513900,5.730513916015625,0.6378504037857056,-0.044481873512268066,-1.1815407276153564
1772045258465501200,5.740501220703125,0.623142659664154,0.001024395227432251,-1.2412002086639404
1772045258475487000,5.750487060546875,0.609771728515625,0.053993869572877884,-1.3128024339675903
1772045258485473300,5.760473388671875,0.6102491021156311,0.10929073393344879,-1.4004584550857544
1772045258495458000,5.7704580078125,0.6070170998573303,0.18383288383483887,-1.4998379945755005
1772045258505444000,5.780444091796875,0.5978570580482483,0.27387166023254395,-1.6234058141708374
1772045258515430000,5.790429931640625,0.5760220885276794,0.3689124286174774,-1.7548027038574219
1772045258525416200,5.800416259765625,0.5500515103340149,0.4707205593585968,-1.89145028591156
1772045258535402000,5.810402099609375,0.5119422078132629,0.5831754803657532,-2.0217950344085693
1772045258545388000,5.820387939453125,0.47694137692451477,0.700437068939209,-2.1389946937561035
1772045258555374000,5.8303740234375,0.4270976781845093,0.8187242746353149,-2.247615337371826
1772045258565360000,5.840360107421875,0.3640308082103729,0.9291737675666809,-2.341897487640381
1772045258575345200,5.85034521484375,0.29853835701942444,0.9970598220825195,-2.426391839981079
1772045258585331000,5.8603310546875,0.2274456024169922,1.0333153009414673,-2.502523422241211
1772045258595317200,5.870317138671875,0.1677979975938797,1.0611379146575928,-2.576887845993042
1772045258605303000,5.880302978515625,0.13610157370567322,1.0822824239730835,-2.6713006496429443
1772045258615289000,5.8902890625,0.1419871598482132,1.10897958278656,-2.794320583343506
1772045258625275100,5.900275146484375,0.19613870978355408,1.1578736305236816,-2.9119279384613037
1772045258635261200,5.91026123046875,0.2913757264614105,1.209547758102417,-2.9953103065490723
1772045258645246000,5.920245849609375,0.3896421790122986,1.2435557842254639,-3.0249435901641846
1772045258655232000,5.93023193359375,0.44895291328430176,1.2482881546020508,-3.0041344165802
1772045258665218000,5.940218017578125,0.4397004246711731,1.2441781759262085,-2.9734909534454346
1772045258675204000,5.9502041015625,0.38053297996520996,1.27741539478302,-2.9856133460998535
1772045258685190000,5.96018994140625,0.2891443967819214,1.3949917554855347,-3.079958915710449
1772045258695176200,5.97017626953125,0.1528637707233429,1.6376590728759766,-3.2555413246154785
1772045258705162000,5.980161865234375,-0.00512484647333622,1.9946966171264648,-3.4830121994018555
1772045258715147000,5.99014697265625,-0.15491673350334167,2.435211181640625,-3.742453098297119
1772045258725133000,6.000133056640625,-0.3019741475582123,2.887723922729492,-3.9826090335845947
1772045258735119000,6.010119140625,-0.4406907558441162,3.276848793029785,-4.161448955535889
1772045258745105200,6.020105224609375,-0.5672404170036316,3.5703072547912598,-4.265273571014404
1772045258755091000,6.030091064453125,-0.6775192618370056,3.7733917236328125,-4.311892032623291
1772045258765077000,6.040076904296875,-0.7934014797210693,3.893533229827881,-4.331117630004883
1772045258775063000,6.05006298828125,-0.9274852871894836,3.9501118659973145,-4.305607318878174
1772045258785047800,6.0600478515625,-1.0679656267166138,3.9774506092071533,-4.24908447265625
1772045258795033600,6.07003369140625,-1.1952359676361084,4.007232189178467,-4.187868118286133
1772045258805019600,6.08001953125,-1.2782326936721802,4.035431385040283,-4.152572154998779
1772045258815005700,6.090005615234375,-1.3252828121185303,4.043211460113525,-4.129450798034668
1772045258824991700,6.09999169921875,-1.3580200672149658,4.021157741546631,-4.113521099090576
1772045258834977500,6.1099775390625,-1.3977676630020142,3.98122239112854,-4.065968036651611
1772045258844963800,6.1199638671875,-1.4581180810928345,3.9619548320770264,-3.977754592895508
1772045258854948900,6.129948974609375,-1.5353798866271973,3.982421875,-3.853093147277832
1772045258864934700,6.1399345703125,-1.6250274181365967,4.060342311859131,-3.7117321491241455
1772045258874920700,6.149920654296875,-1.7101870775222778,4.1868767738342285,-3.5769503116607666
1772045258884906800,6.15990673828125,-1.7850730419158936,4.354940891265869,-3.457221031188965
1772045258894892800,6.169892822265625,-1.8584479093551636,4.498457908630371,-3.3270277976989746
1772045258904878600,6.179878662109375,-1.9206368923187256,4.559492588043213,-3.142155647277832
1772045258914865000,6.189864990234375,-1.9685288667678833,4.521188259124756,-2.9028732776641846
1772045258924850700,6.1998505859375,-2.0184166431427,4.429730415344238,-2.6491243839263916
1772045258934835700,6.209835693359375,-2.070127010345459,4.324388027191162,-2.3989274501800537
1772045258944821500,6.219821533203125,-2.0976693630218506,4.199995040893555,-2.18575119972229
1772045258954807800,6.229807861328125,-2.1444919109344482,4.149325847625732,-1.999969244003296
1772045258964793600,6.239793701171875,-2.2040834426879883,4.1473069190979,-1.8447943925857544
1772045258974779600,6.249779541015625,-2.2614452838897705,4.171037673950195,-1.6979697942733765
1772045258984765700,6.259765625,-2.3000402450561523,4.188090801239014,-1.5621118545532227
1772045258994751700,6.269751708984375,-2.2930030822753906,4.144059181213379,-1.445974588394165
1772045259004736800,6.27973681640625,-2.2815887928009033,4.058685779571533,-1.3069087266921997
1772045259014722600,6.28972265625,-2.231898307800293,3.88519549369812,-1.1521668434143066
1772045259024708900,6.299708984375,-2.151339292526245,3.6584067344665527,-1.0049296617507935
1772045259034694700,6.309694580078125,-2.0606014728546143,3.484377861022949,-0.8711647391319275
1772045259044680700,6.3196806640625,-1.9174286127090454,3.337212562561035,-0.756705641746521
1772045259054666800,6.329666748046875,-1.8028128147125244,3.1754984855651855,-0.6967887878417969
1772045259064652800,6.33965283203125,-1.7161881923675537,3.038844347000122,-0.6516211032867432
1772045259074637600,6.349637451171875,-1.6648863554000854,2.8841562271118164,-0.5846673846244812
1772045259084623600,6.35962353515625,-1.6370723247528076,2.810725450515747,-0.47679781913757324
1772045259094609700,6.369609619140625,-1.588104248046875,2.7731900215148926,-0.35363009572029114
1772045259104595700,6.379595703125,-1.525940179824829,2.7521979808807373,-0.2336447834968567
1772045259114581500,6.38958154296875,-1.4717332124710083,2.668015480041504,-0.1394335925579071
1772045259124567800,6.39956787109375,-1.4443703889846802,2.5743188858032227,-0.053020279854536057
1772045259134553600,6.4095537109375,-1.427209496498108,2.5288808345794678,0.019452322274446487
1772045259144538600,6.41953857421875,-1.4108083248138428,2.559091329574585,0.05663266405463219
1772045259154524700,6.429524658203125,-1.4029881954193115,2.6157495975494385,0.08887076377868652
1772045259164510700,6.4395107421875,-1.3947833776474,2.6346991062164307,0.14433911442756653
1772045259174496800,6.449496826171875,-1.3917551040649414,2.6026787757873535,0.21249686181545258
1772045259184482600,6.459482666015625,-1.3889156579971313,2.5315303802490234,0.27730464935302734
1772045259194468900,6.46946875,-1.4004040956497192,2.3888049125671387,0.3431260287761688
1772045259204454700,6.47945458984375,-1.4357799291610718,2.163407564163208,0.4246644377708435
1772045259214439700,6.489439697265625,-1.4796054363250732,1.8814064264297485,0.5250243544578552
1772045259224425700,6.49942578125,-1.5321831703186035,1.6169335842132568,0.657329261302948
1772045259234411800,6.509411865234375,-1.5706591606140137,1.4407750368118286,0.8074383735656738
1772045259244397600,6.5193974609375,-1.5913976430892944,1.3395123481750488,0.9624423980712891
1772045259254383600,6.529383544921875,-1.5976842641830444,1.218996286392212,1.1152466535568237
1772045259264369700,6.53936962890625,-1.5757590532302856,1.0558874607086182,1.2683019638061523
1772045259274355700,6.549355712890625,-1.5005372762680054,0.8933199048042297,1.4117428064346313
1772045259284340700,6.5593408203125,-1.3831839561462402,0.7564532160758972,1.5341647863388062
1772045259294326800,6.569326904296875,-1.2264153957366943,0.5915987491607666,1.6167683601379395
1772045259304312800,6.579312744140625,-1.0444231033325195,0.4236373007297516,1.6213772296905518
1772045259314298600,6.589298583984375,-0.8883163928985596,0.35981863737106323,1.5306379795074463
1772045259324284700,6.59928466796875,-0.7572136521339417,0.34888675808906555,1.3413374423980713
1772045259334270700,6.609270751953125,-0.6429608464241028,0.34462276101112366,1.0929385423660278
1772045259344256500,6.619256591796875,-0.5528417229652405,0.39404749870300293,0.8476583957672119
1772045259354241500,6.629241455078125,-0.47877442836761475,0.5553413033485413,0.6311591267585754
1772045259364227800,6.639227783203125,-0.41620028018951416,0.7796634435653687,0.4658430218696594
1772045259374213600,6.649213623046875,-0.3652300238609314,0.9775232672691345,0.3529609441757202
1772045259384199700,6.65919970703125,-0.36001649498939514,1.0950216054916382,0.2987629175186157
1772045259394185700,6.669185791015625,-0.4043477475643158,1.1070339679718018,0.2939585745334625
1772045259404171800,6.679171875,-0.4592738151550293,1.0552796125411987,0.33489227294921875
1772045259414157600,6.689157470703125,-0.5006023645401001,0.974638044834137,0.40196770429611206
1772045259424142600,6.699142578125,-0.542077362537384,0.912379801273346,0.4742528796195984
1772045259434128600,6.709128662109375,-0.5756425261497498,0.8711647391319275,0.5422604084014893
1772045259444114700,6.71911474609375,-0.6335082054138184,0.8354556560516357,0.5925933718681335
1772045259454100700,6.729100830078125,-0.6876923441886902,0.7645257711410522,0.5978128910064697
1772045259464086800,6.739086669921875,-0.7014028429985046,0.6453937888145447,0.5512338280677795
1772045259474072600,6.749072509765625,-0.6991077065467834,0.48737701773643494,0.4782043695449829
1772045259484058600,6.75905859375,-0.6901646256446838,0.3104768693447113,0.40886780619621277
1772045259494043600,6.769043701171875,-0.6634456515312195,0.2071230560541153,0.35941025614738464
1772045259504029700,6.77902978515625,-0.6205028295516968,0.20238712430000305,0.3276723623275757
1772045259514015700,6.789015625,-0.5639692544937134,0.26026374101638794,0.30738121271133423
1772045259524001500,6.79900146484375,-0.5151845812797546,0.34457820653915405,0.28396424651145935
1772045259533987800,6.80898779296875,-0.47148367762565613,0.4346577525138855,0.2529357373714447
1772045259543973600,6.8189736328125,-0.4296096861362457,0.5125452876091003,0.21360516548156738
1772045259553959700,6.828959716796875,-0.412627249956131,0.5428839921951294,0.18079714477062225
1772045259563944700,6.83894482421875,-0.4110700786113739,0.5026626586914062,0.1572141796350479
1772045259573930800,6.8489306640625,-0.41288262605667114,0.424483984708786,0.15151101350784302
1772045259583916500,6.85891650390625,-0.4009301960468292,0.33846190571784973,0.18175096809864044
1772045259593902600,6.868902587890625,-0.3731566071510315,0.2959887385368347,0.23935113847255707
1772045259603888600,6.878888671875,-0.35550656914711,0.32661524415016174,0.3113754391670227
1772045259613874700,6.888874755859375,-0.3137756288051605,0.40003034472465515,0.3689090609550476
1772045259623860500,6.898860595703125,-0.2865816652774811,0.49744731187820435,0.4242035746574402
1772045259633845500,6.908845458984375,-0.2811618745326996,0.5300419926643372,0.47347816824913025
1772045259643831800,6.918831787109375,-0.29543402791023254,0.4727891981601715,0.5009912848472595
1772045259653817600,6.928817626953125,-0.31673532724380493,0.38837897777557373,0.5043527483940125
1772045259663803600,6.9388037109375,-0.3452761173248291,0.3033161163330078,0.49356746673583984
1772045259673789700,6.948789794921875,-0.4085528254508972,0.2881366014480591,0.5093887448310852
1772045259683775700,6.958775634765625,-0.4631986618041992,0.19822293519973755,0.5152551531791687
1772045259693761500,6.968761474609375,-0.48040106892585754,0.10891994833946228,0.5075114369392395
1772045259703746800,6.978746826171875,-0.47488176822662354,0.03200896829366684,0.49485135078430176
1772045259713732600,6.988732666015625,-0.43221741914749146,0.024834681302309036,0.46718674898147583
1772045259723718700,6.99871875,-0.35842132568359375,0.05099567398428917,0.4292151629924774
1772045259733704400,7.008704345703125,-0.2769453823566437,0.07283332943916321,0.38607141375541687
1772045259743690800,7.018690673828125,-0.20423270761966705,0.07229310274124146,0.32506611943244934
1772045259753676500,7.028676513671875,-0.17279835045337677,0.11472631245851517,0.27743440866470337
1772045259763662600,7.03866259765625,-0.1807113140821457,0.10058947652578354,0.23420821130275726
1772045259773648000,7.04864794921875,-0.17442946135997772,0.04378212243318558,0.19890694320201874
1772045259783633700,7.058633544921875,-0.1670341044664383,-0.02135310508310795,0.168077751994133
