time,seconds_elapsed,z,y,x
1772044430950592300,0.06859228515625,0.04784077858328819,0.03806698806583881,-0.09926660344596021
1772044430960578300,0.078578369140625,0.005438391661643982,-0.0074118836916983125,-0.11538417349955998
1772044430970564000,0.088564208984375,0.05490355657637119,-0.026752836238592863,-0.15106339877918362
1772044430980550400,0.09855029296875,0.11280921757817268,-0.02390913724526763,-0.21964580875383688
1772044430990535200,0.10853515625,0.1270563541173935,0.022831278880685566,-0.2615523567162454
1772044431000521200,0.118521240234375,0.1751093141466379,0.13707885869890452,-0.24677926007416098
1772044431010507000,0.128507080078125,0.2587017895907163,0.2962688653104007,-0.24565138855539262
1772044431020493300,0.138493408203125,0.2314198149114847,0.34379487885609267,-0.13567695601172744
1772044431030478600,0.148478515625,0.07163315758109093,0.2434904841944575,0.05059367575431242
1772044431040463600,0.158463623046875,-0.11348726297020911,0.23828838550671932,0.24755859214989467
1772044431050449700,0.16844970703125,-0.19694471385776996,0.34488559670224783,0.31983627644591034
1772044431060435700,0.178435791015625,-0.1033750342786312,0.4749157059334218,0.23285311738392336
1772044431070421800,0.188421875,0.08891980794668197,0.5576094789721071,0.05104567557182163
1772044431080406800,0.19840673828125,0.30615561468303204,0.5348011425755917,-0.1705184244261123
1772044431090392600,0.208392578125,0.4221282647281885,0.32403160924389957,-0.32080855554416776
1772044431100378600,0.218378662109375,0.42726270500719543,0.07406520703360438,-0.38630364876165985
1772044431110364700,0.22836474609375,0.3075239804267883,-0.09089081575870514,-0.38107115493565796
1772044431120350700,0.238350830078125,0.09910568639636039,-0.09173091984465717,-0.5436443011794239
1772044431130335500,0.24833544921875,-0.10167875175476074,-0.35915596798658367,-1.0035450280062854
1772044431140321800,0.25832177734375,-0.35197745465934277,-0.23742650798037646,-1.307990185509622
1772044431150307600,0.2683076171875,-0.6745061119943857,0.17293357754275201,-1.172778143595904
1772044431160293600,0.278293701171875,-0.79661857996881,0.3783830848954618,-1.2361777258388698
1772044431170279700,0.28827978515625,-0.7823837183892727,0.5583472917273641,-1.135095843998715
1772044431180264700,0.2982646484375,-0.6807640033453702,0.6349101607955991,-0.9456188356731087
1772044431190250800,0.308250732421875,-0.7027151383906602,0.7372406544573604,-0.7258462039355188
1772044431200236500,0.318236572265625,-0.7450339386820792,0.54461891836524,-0.5028527835205197
1772044431210222800,0.328222900390625,-0.7144803949862718,0.24632030079290268,-0.21219006765410303
1772044431220207600,0.33820751953125,-0.5654869343489408,-0.06383183618038893,0.04117056183805689
1772044431230193700,0.348193603515625,-0.3338338952034712,-0.21494871871247886,0.279310533583723
1772044431240179700,0.3581796875,-0.08816109853386879,-0.3029049423240125,0.5710566242400557
1772044431250165800,0.368165771484375,0.14279986669421196,-0.5295869150586426,0.8969540273558347
1772044431260151600,0.378151611328125,0.3345926046162844,-0.675071490792185,1.166640006167069
1772044431270136600,0.388136474609375,0.4963309805363416,-0.6736855893917382,1.453024094866216
1772044431280123000,0.398122802734375,0.7622159596294165,-1.2799135533213615,1.1615893717139958
1772044431290108700,0.408108642578125,1.063088665473461,-1.8214663621142506,0.4875436437729746
1772044431300094700,0.4180947265625,1.1410118631094694,-1.4390791561439633,0.12489402498435229
1772044431310079500,0.42807958984375,1.260830082666874,-0.6833972744584084,-0.15456908707888797
1772044431320065800,0.438065673828125,1.5899340267390012,0.5658256647840142,-0.5971514349613338
1772044431330051600,0.448051513671875,1.503476224991679,0.7210854923397302,-0.47460802822373804
1772044431340037600,0.45803759765625,0.9014040655672549,0.3808662800133228,0.07300232247586827
1772044431350023700,0.468023681640625,0.7005640978366137,-0.2073468654066324,0.10492276604413055
1772044431360008700,0.4780087890625,0.20049919146895406,-0.676142042633146,0.24053468486247584
1772044431369994800,0.487994873046875,-0.2666945419102907,-0.9103282535180449,0.1497990231328644
1772044431379980500,0.49798046875,-0.3828179986029863,-0.7328580554589629,-0.04668722463399171
1772044431389966800,0.507966796875,-0.5136112011611461,-0.4086326772086322,-0.26974432140234855
1772044431399951600,0.51795166015625,-0.6068307521283626,-0.0880038621455431,-0.4947572649462148
1772044431409937700,0.527937744140625,-0.4551332932293415,0.1808649550639093,-0.5528855191901326
1772044431419923700,0.537923828125,-0.1293786595851183,0.5130756329797208,-0.36403657963499425
1772044431429909800,0.54790966796875,0.20142390509843824,0.6390984062656759,-0.020123079367913306
1772044431439895600,0.5578955078125,0.4245265580415725,0.7040199373789131,0.2030693707505241
1772044431449880600,0.567880615234375,0.36110710205435753,0.6708036042146385,0.33726470990236845
1772044431459867000,0.577866943359375,0.28208441874384876,0.5916917813159525,0.38390367494784294
1772044431469852700,0.587852783203125,0.12952712814509867,0.4316698539249599,0.4916624042034149
1772044431479838700,0.597838623046875,0.020498013627529142,0.266254835318774,0.575211478897184
1772044431489823500,0.607823486328125,0.015029811349511146,0.18966347080841658,0.5330494766026735
1772044431499809800,0.617809814453125,0.06827098767161369,0.2087839124724269,0.22507548738606273
1772044431509795600,0.627795654296875,0.19330664961636065,0.178519268720597,0.17850361449373886
1772044431519781600,0.63778173828125,0.2794698523312807,0.24619725893512368,-0.0455451967257075
1772044431529767700,0.647767578125,0.33772505742311476,0.6534250377818942,-0.7152566400557756
1772044431539752700,0.657752685546875,0.4950514621198177,0.28964696295261383,-0.23744501175144686
1772044431549738800,0.66773876953125,0.2666325825899839,0.0495339923672378,0.04529960620049387
1772044431559724500,0.677724609375,0.16078092906475067,-0.08567527306750417,0.17334402150716632
1772044431569710800,0.6877109375,0.0182429281771183,-0.06278232712745666,0.19483943040790036
1772044431579695600,0.697695556640625,-0.09799743289351463,-0.09904796485975384,0.18325438921740278
1772044431589681700,0.707681640625,-0.0600005874544382,-0.175897103523463,0.10894914461653679
1772044431599667500,0.71766748046875,-0.058573184999823565,-0.21126608467698096,0.023019220934528857
1772044431609653800,0.72765380859375,-0.04965221191942692,-0.21866028658151626,-0.08245525157507509
1772044431619638800,0.737638671875,-0.061986208313703536,-0.22692937162443994,-0.16340800789901985
1772044431629624600,0.74762451171875,-0.21469372103810308,-0.2668704829990864,-0.2038727230226621
1772044431639611000,0.75761083984375,-0.38767771359384057,-0.2915542578786611,-0.2039432127092965
1772044431649596700,0.7675966796875,-0.4153583322018385,-0.5662532425463199,-0.1811097784041427
1772044431659582700,0.777582763671875,-0.2627425894141197,-0.9214385533362627,0.012573001915076747
1772044431669567500,0.7875673828125,-0.021697452545166016,-1.005472196676582,0.16836579470317808
1772044431679553800,0.7975537109375,0.2160182476401329,-0.8370403144672512,0.10622171981348655
1772044431689539600,0.80753955078125,0.30146658008396626,-0.628680472625792,0.07549249075721018
1772044431699525600,0.817525634765625,0.14024842864573,-0.42070363875254985,-0.05984342413134872
1772044431709510700,0.8275107421875,0.1822328824162483,-0.2015713507451117,-0.13753189969602972
1772044431719496700,0.83749658203125,0.40285540898144245,-0.04400061589851975,-0.24192000174103304
1772044431729482800,0.847482666015625,0.5153595061331987,0.07681918191686272,-0.5262985775703564
1772044431739468500,0.857468505859375,0.42293022876083847,0.11672025354206561,-0.8296607256099581
1772044431749453800,0.867453857421875,0.1901028851389885,0.2876369383044541,-0.9508505257815122
1772044431759439600,0.877439697265625,0.03502572067379951,0.35133901062533257,-0.5743908832293003
1772044431769425700,0.88742578125,0.07610299647152423,0.31488252649605275,-0.2376865836886689
1772044431779411500,0.897411376953125,0.08243453758060931,0.3634114334739744,-0.196554490697477
1772044431789397800,0.907397705078125,0.09445347667634486,0.19076880170181393,0.13328187756873666
1772044431799382800,0.9173828125,0.19071312599182128,0.21468319964408875,0.40999121567811814
1772044431809368600,0.92736865234375,0.2886480150431394,0.33673794608190655,0.46372945480216293
1772044431819355000,0.93735498046875,0.25542145274579525,0.35447219408452507,0.4793399521164596
1772044431829340700,0.947340576171875,0.18721476248204708,0.4166033638268709,0.5191540395779535
1772044431839325700,0.95732568359375,0.12489186955988406,0.5339627920553088,0.5546229009093716
1772044431849311500,0.9673115234375,0.04884907884299755,0.8267778636500239,0.5898092920375988
1772044431859297800,0.9772978515625,-0.0300637143522501,0.8640684605158865,0.7515821912817656
1772044431869283600,0.98728369140625,-0.38894612609446044,-0.039989042169600725,0.7163957270883023
1772044431879268600,0.9972685546875,-0.9177560654312371,-0.3504091824293136,0.5607663721004501
1772044431889254700,1.007254638671875,-0.9974357513457536,-0.057404068155214184,0.4227511458668858
1772044431899240700,1.01724072265625,-0.5774322236865759,0.12078377665393054,0.49108230276051906
1772044431909226800,1.027226806640625,-0.1682955424785614,0.20001637638807296,0.5383082739137113
1772044431919211500,1.03721142578125,0.03877484407424926,0.17432649320587515,0.41947168580479915
1772044431929197600,1.047197509765625,-0.07408405786454678,0.14484642396047712,0.3373072338698432
1772044431939183600,1.05718359375,-0.31324820329248904,0.13373590494655072,0.38384219055157154
1772044431949169700,1.067169677734375,-0.46712125266492366,0.14739062855057417,0.6080940135298296
1772044431959155500,1.077155517578125,-0.565941692379117,0.14173384489789603,0.8430182928983122
1772044431969140700,1.087140625,-0.6550023701012134,0.1064695662278682,0.8427093730796128
1772044431979126800,1.097126708984375,-0.653072863343358,0.09814400175735354,0.6383132472373545
1772044431989112600,1.107112548828125,-0.5059662393659353,0.08603431563824415,0.376739372809045
1772044431999099000,1.117098876953125,-0.31911914115250106,0.04733480182252824,0.22396295956689863
1772044432009083600,1.127083740234375,-0.2118921076208353,-0.15723777656517923,-0.0602016492847586
1772044432019069700,1.137069580078125,-0.0542494765818119,-0.031742168958485126,-0.21774532716106623
1772044432029055500,1.147055419921875,0.13945873957276345,0.12292648777104913,-0.2576422706004232
1772044432039041800,1.157041748046875,0.21325871979892252,-0.03201265646293759,-0.2823757298406213
1772044432049026800,1.16702685546875,0.12890052067935465,-0.564919290528819,-0.4461016263160854
1772044432059012600,1.1770126953125,0.05273030419051647,-0.9970949020188301,-0.7524788478605449
1772044432068998700,1.18699853515625,0.38382337625324725,0.1760995672930032,-0.011716028892714529
1772044432078984700,1.196984619140625,0.5038771581321955,0.36913171081691976,0.24450811853809282
1772044432088969700,1.2069697265625,0.5111117855608462,-0.06146313428767025,0.3839006792731583
1772044432098955500,1.21695556640625,0.43320261645019054,-0.22864932728484272,0.34534959748480465
1772044432108941600,1.226941650390625,0.29642040261030195,-0.24366138378195462,0.04992295515220612
1772044432118927600,1.236927734375,0.12390168947875499,-0.2524399527169764,-0.18337165892152116
1772044432128913700,1.24691357421875,-0.03294423822462558,-0.23086539589911698,-0.2299190914923325
1772044432138898700,1.256898681640625,-0.1373684892952442,-0.16714556872583924,-0.22839297790359706
1772044432148884700,1.266884765625,-0.21027473555207252,-0.045074236479401585,-0.15213535712594164
1772044432158870800,1.276870849609375,-0.16190204204916953,0.0773867526717484,-0.0178432613350451
1772044432168856600,1.286856689453125,-0.06607026275694369,0.15426964747458696,0.12759093591812998
1772044432178841600,1.296841552734375,0.03532031970620155,0.20195465097427368,0.2519436571000144
1772044432188827600,1.30682763671875,0.10467091930806637,0.22356135649606584,0.2592373577721417
1772044432198813700,1.316813720703125,0.13549275855123996,0.23072766792885957,0.246681535320729
1772044432208799500,1.326799560546875,0.13802490737736225,0.24447796086184678,0.21773191969022154
1772044432218784500,1.336784423828125,0.098477909886837,0.22224749741852282,0.16974522983022033
1772044432228770800,1.346770751953125,0.09517945286333561,0.1869111764255911,0.12353983389642088
1772044432238756600,1.356756591796875,0.07601765627563,0.162639708673954,0.14448986560776828
1772044432248742700,1.36674267578125,0.09800912333130836,0.051408554067462676,0.07015767820104957
1772044432258727400,1.3767275390625,0.1116582939773798,-0.02104921776950359,-0.020715857629291713
1772044432268713700,1.386713623046875,0.1140238540649414,-0.10143595597483217,-0.11119575449954718
1772044432278699500,1.396699462890625,0.10779518880844116,-0.16218750792704523,-0.1876010218532756
1772044432288685600,1.406685546875,0.16006664331555365,-0.26203553712330757,-0.3019004414565861
1772044432298671600,1.416671630859375,0.17121230670809745,-0.23767500284872947,-0.33306210711337625
1772044432308656600,1.42665673828125,0.13748130201995373,-0.24364947414845226,-0.3492369237795472
1772044432318642700,1.436642578125,0.11399228988289832,-0.28488858944438394,-0.3515665357708931
1772044432328628700,1.446628662109375,0.11731880395710467,-0.2822841790996492,-0.24521650426946578
1772044432338614800,1.45661474609375,0.11078034209907055,-0.260505916403234,-0.15229133313894272
1772044432348599600,1.466599609375,0.09093757750988006,-0.25112514379136264,-0.09992018111702054
1772044432358585600,1.476585693359375,-0.0013584288716316222,-0.2341276125654578,-0.06315543475616722
1772044432368571600,1.486571533203125,-0.21979367452561854,-0.1556769569892436,-0.04990235075559467
1772044432378557700,1.4965576171875,-0.404564550986886,-0.03099675741866231,-0.020368761224672197
1772044432388542700,1.506542724609375,-0.44431203948557374,0.030596359924226997,0.04474617356881499
1772044432398528500,1.516528564453125,-0.36347149309813975,0.08948884000629186,0.14772439054958522
1772044432408514800,1.526514892578125,-0.2022574333131313,0.13861637046448885,0.2451916620891541
1772044432418500600,1.53650048828125,-0.06407178241610527,0.13696027382053433,0.33939025068897755
1772044432428486700,1.546486572265625,0.06511456946730614,0.08984254881478845,0.3198591458648443
1772044432438471700,1.5564716796875,0.11201017615497112,0.08946860093586147,0.2977060585066676
1772044432448457700,1.566457763671875,0.07551555197238921,0.057874681341648096,0.2366179680764675
1772044432458443500,1.576443603515625,0.03693360012173653,0.02824928534142673,0.21482991463840007
1772044432468429600,1.5864296875,0.029477438896894453,0.008650266380235552,0.22287333769928663
1772044432478414800,1.596414794921875,-0.0008539864808320999,0.028441885304078457,0.23638786738133055
1772044432488400600,1.606400634765625,-0.06689443862140178,0.03879566766656935,0.20437720194607972
1772044432498386700,1.61638671875,-0.09723696991503238,0.05391710282228887,0.163747012328729
1772044432508372700,1.626372802734375,-0.090064886328578,0.03191584502495825,0.08589651460275054
1772044432518357800,1.636357666015625,-0.05626490805745125,-0.01684840507879853,0.030589984982367605
1772044432528343600,1.646343505859375,-0.008930909952521323,-0.037703415450453755,0.058839891378302124
1772044432538329600,1.65632958984375,0.059651627886295314,-0.051092108529433605,0.14066152122495695
1772044432548315600,1.666315673828125,0.09345628233253955,-0.07591704544536769,0.21400966603038832
1772044432558301700,1.6763017578125,0.0860603268623352,-0.09797120247371494,0.28683371389647944
1772044432568286700,1.68628662109375,0.06841536457836628,-0.07735328879356383,0.3476483759464696
1772044432578272500,1.6962724609375,0.041976854985952376,-0.07147204873524605,0.37578919594474136
1772044432588258800,1.7062587890625,-0.022090835776925086,-0.0745271254569292,0.3337456323981285
1772044432598244600,1.71624462890625,-0.037836686441302295,-0.039467356383055444,0.2655469062451273
1772044432608229600,1.726229736328125,0.011512158617377281,0.001457286136224866,0.13119999326076356
1772044432618215700,1.736215576171875,0.11464812344312666,0.04361176271140575,-0.0012346015625633298
1772044432628201700,1.74620166015625,0.21761866857409476,0.09193469878844916,-0.07085062890127301
1772044432638187500,1.7561875,0.2996644990980625,0.14505312551371752,-0.105486619605124
1772044432648173600,1.766173583984375,0.3403250107884407,0.16090046379119158,-0.1335245272181928
1772044432658158800,1.776158935546875,0.2869605003476143,0.1803406389288604,-0.12164101453777403
1772044432668144600,1.78614453125,0.23093057008981704,0.19164134675264358,-0.08594835438784211
1772044432678130700,1.796130615234375,0.20924597702622413,0.19773074966892598,-0.07821100160144269
1772044432688116500,1.806116455078125,0.11626198838055134,0.1491115340590477,-0.025460202612169084
1772044432698101800,1.816101806640625,0.048478491964936254,0.06509769139774144,-0.09896724604004993
1772044432708087800,1.826087890625,0.014100421544909477,-0.006933817851170897,-0.22331722727557643
1772044432718073600,1.836073486328125,0.06041968964934349,-0.3470370025824755,-0.5932398144755512
1772044432728059600,1.8460595703125,0.25546587640941143,-0.22701332358084617,-0.5032584417119622
1772044432738045700,1.856045654296875,0.22471242622733115,0.11137838105745614,-0.2858258337618783
1772044432748030700,1.86603076171875,0.17692951531112194,-0.006847893133386969,-0.5583107956418767
1772044432758016500,1.8760166015625,0.07861760964095592,-0.18087459967508912,-0.5056446061961353
1772044432768002800,1.8860029296875,-0.02323825224637985,-0.25208872812651095,-0.3193792899260297
1772044432777988600,1.895988525390625,-0.07996317903101444,-0.22286212218552826,-0.2453865636067465
1772044432787973600,1.9059736328125,-0.18937398634254932,-0.14835998503938316,-0.19378078820044173
1772044432797959700,1.915959716796875,-0.27008301530480383,-0.10943513803519309,-0.18000004533026367
1772044432807945700,1.92594580078125,-0.3016314152568578,-0.06775975021384656,-0.10701613072734326
1772044432817931800,1.935931884765625,-0.2784673972904682,-0.061559361203759905,-0.01425295892523136
1772044432827916500,1.94591650390625,-0.20801497392654417,-0.07349054895080626,0.03986081724662799
1772044432837902600,1.955902587890625,-0.08707096520960331,-0.05653809897564351,0.05263942473640199
1772044432847888600,1.965888671875,0.038516485399007795,-0.007928308781236409,0.05208931200639345
1772044432857874700,1.975874755859375,0.09205869049429893,0.013897154057770967,0.04754896972959395
1772044432867860500,1.985860595703125,0.08733516910374164,0.0403871746417135,0.05014660327367019
1772044432877845800,1.995845703125,0.06109948860704899,0.04451857535801828,0.07295803124299273
1772044432887831800,2.005831787109375,-0.003178630036115646,0.061338923386111854,0.13559590839846059
1772044432897817600,2.015817626953125,-0.020883213552832604,0.12162753400169313,0.1921362541301176
1772044432907803600,2.0258037109375,0.012758943808078765,0.144516096027568,0.1859863166656345
1772044432917789700,2.035789794921875,0.09209376180768013,0.13707052926197646,0.1809597572078928
1772044432927774700,2.045774658203125,0.16587971350848674,0.13365575238242744,0.19555735115259884
1772044432937760500,2.055760498046875,0.23281097700893877,0.12073387309759855,0.20928820873275397
1772044432947746800,2.065746826171875,0.2780956413686275,0.09327961059138179,0.20841765470961107
1772044432957732600,2.075732666015625,0.29490765995979307,0.06182926418632269,0.21489015692565588
1772044432967717600,2.085717529296875,0.2997609452098608,-0.0015386808093637227,0.18069792793393133
1772044432977703700,2.09570361328125,0.26467911043465137,-0.0640119419876486,0.11453992296145298
1772044432987689700,2.105689697265625,0.1945417443692684,-0.08264525772184134,0.05274238735395483
1772044432997675800,2.11567578125,0.11264379788339138,-0.08890621781274675,-0.011915332590788603
1772044433007661600,2.12566162109375,0.04708440725803375,-0.09539112285263836,-0.039790231661871074
1772044433017646600,2.135646484375,-0.0311965177744627,-0.09679675186686217,-0.06044602053384296
1772044433027633700,2.145633544921875,-0.09841010534763335,-0.11713716377988458,-0.07094255410158075
1772044433037619700,2.15561962890625,-0.15818623639643192,-0.10936828334406018,-0.060426530382083725
1772044433047605500,2.16560546875,-0.21417115846872328,-0.10414338830262422,-0.045642062962614
1772044433057591600,2.175591552734375,-0.24496727874875068,-0.10256780954897403,-0.0602579140832182
1772044433067576600,2.18557666015625,-0.24534195728003977,-0.10293518155664205,-0.10678028527800924
1772044433077562600,2.195562744140625,-0.2087462108105421,-0.0791123343553394,-0.15524912349861114
1772044433087548400,2.20554833984375,-0.17882804240882397,-0.05191453082822263,-0.18053513858765363
1772044433097534700,2.21553466796875,-0.15525836625099182,-0.040350422827899454,-0.16018058855142445
1772044433107520500,2.2255205078125,-0.12264379837214946,-0.021849062910303474,-0.11819682890065014
1772044433117505500,2.235505615234375,-0.07646656908690928,0.023138299003243445,-0.06758701486228964
1772044433127491600,2.24549169921875,-0.027925533279776572,0.034978666661679744,-0.0392525354554411
1772044433137477600,2.2554775390625,0.028511808735132215,0.025834552349895238,-0.02579034788198769
1772044433147463700,2.265463623046875,0.08644494226574898,0.030140652045980095,-0.04214495982816443
1772044433157449500,2.275449462890625,0.15026011957228183,0.0321720117431134,-0.07478953925278037
1772044433167434800,2.285434814453125,0.1774754587560892,0.02163600468151271,-0.09900759631674737
1772044433177420500,2.295420654296875,0.20371639994978905,0.03900141937173903,-0.13062928070072083
1772044433187406600,2.305406494140625,0.22896949914991854,0.038423473353311415,-0.12708695018505678
1772044433197392400,2.315392333984375,0.2372270398855209,0.03890497325994074,-0.10495167247820646
1772044433207377700,2.325377685546875,0.20887539014816284,0.051585006612911814,-0.08264876485317944
1772044433217363700,2.33536376953125,0.1847901656836271,0.039547947338595985,-0.06400324722453951
1772044433227349500,2.345349609375,0.1584703140348196,0.061328913448750966,-0.0023923567629419266
1772044433237335800,2.355335693359375,0.10854454587101936,0.05725289618149399,0.06261513560069724
1772044433247321600,2.365321533203125,0.04906593646407127,0.020740663276985285,0.06751215039463714
1772044433257306600,2.375306640625,0.02458031450510025,0.01243541094213724,0.024880247299745677
1772044433267292400,2.38529248046875,0.04971475576162338,0.0292455298371613,-0.013024919534195213
1772044433277278700,2.39527880859375,0.08846212730705738,0.0013389935187995434,-0.05988561930526048
1772044433287264500,2.405264404296875,0.09221125070750713,-0.027339111693948506,-0.09171791423261165
1772044433297250600,2.41525048828125,0.09224456845521926,-0.02919993712976575,-0.12498038809355348
1772044433307235600,2.425235595703125,0.09186579827070236,-0.052043856296315784,-0.14856436677137388
1772044433317221600,2.4352216796875,0.09663198975920677,-0.06466551052555441,-0.13105320520121602
1772044433327207700,2.445207763671875,0.09309446328282356,-0.05777348598949611,-0.07829193961685522
1772044433337193500,2.455193359375,0.025258944419026375,-0.04628982281424105,-0.0435155357953161
1772044433347179800,2.4651796875,-0.031081951484084127,-0.02229980235248804,-0.029919848902150988
1772044433357164500,2.47516455078125,-0.05203472314178943,-0.02408748948685825,-0.015096720839571207
1772044433367150600,2.485150634765625,-0.04417933346629142,-0.03372603625208139,-0.02747875762665644
1772044433377136400,2.495136474609375,-0.02944879732429981,-0.04083550293110311,-0.027364812390785663
1772044433387122700,2.505122802734375,-0.025474632996320724,-0.026929654110223054,0.0033543519292026755
1772044433397108500,2.5151083984375,-0.0008534019589424133,-0.01778546673320234,0.013201262481790035
1772044433407094500,2.525094482421875,-0.005876198557019234,-0.0362185106549412,0.018727551622595637
1772044433417079800,2.535079833984375,-0.01768178716301918,-0.03962875748984515,0.023469156659115104
1772044433427065600,2.545065673828125,0.0012958850294351577,-0.041518662889674304,0.02314169653672725
1772044433437051600,2.5550517578125,0.04136895222067833,-0.040048151945695276,0.027442060611769556
1772044433447037700,2.56503759765625,0.06381926895976066,-0.03456964746937156,0.059821212299540634
1772044433457023700,2.575023681640625,0.07257248425781726,-0.014518646956980227,0.09640879372889176
1772044433467008500,2.585008544921875,0.044131987193226814,0.008196750459074973,0.12694120330512523
1772044433476994600,2.59499462890625,0.006413374173641204,0.00936192178092897,0.11402124198274687
1772044433486980600,2.604980712890625,-0.03645721478164196,0.018036811145767568,0.08601685304678976
1772044433496966700,2.614966552734375,-0.03426584221720695,0.02548588504269719,0.04798767624069005
1772044433506952400,2.624952392578125,0.04341477883458137,0.010309504829347133,0.036799708076380194
1772044433516937500,2.6349375,0.11064473302066326,0.00037979309782385824,0.0321322277219966
1772044433526923800,2.644923828125,0.15297347018420696,-0.023187398841977118,0.02554252886706963
1772044433536909600,2.65490966796875,0.16667992397546766,-0.021701251937448977,0.05324276549099013
1772044433546895600,2.6648955078125,0.16041969453692434,-0.008533581198006868,0.07195822481699288
1772044433556881700,2.674881591796875,0.14302256953418255,-0.014567235339060425,0.06064630147945135
1772044433566866700,2.68486669921875,0.10068681810796261,-0.001308159989118576,0.04575277506178245
1772044433576852500,2.6948525390625,0.04130640837848186,0.009799874806776642,0.019452230901643632
1772044433586838500,2.704838623046875,-0.0002747252881526947,0.016490969943255183,-0.015602460138313472
1772044433596824600,2.714824462890625,-0.03744914842844009,0.00872026287652552,-0.03558684342158958
1772044433606810600,2.724810546875,-0.04928162504136562,0.0053594812065362925,-0.04102264126734808
1772044433616795600,2.734795654296875,-0.03318564576506614,-0.00025901626236736773,-0.01644057319657877
1772044433626781400,2.744781494140625,-0.00904606076478958,0.005183028661087155,0.009288655615318567
1772044433636767700,2.754767822265625,0.019424831438064574,-0.006966331881284714,0.016077219776902348
1772044433646753500,2.76475341796875,0.030875615257024765,-0.011820566979423165,0.003908917072042823
1772044433656739600,2.774739501953125,0.04009703258872032,-0.02875708873309195,-0.009104677350539714
1772044433666724600,2.784724609375,0.04560907400846481,-0.028298896636813876,-0.009344970646128058
1772044433676710700,2.794710693359375,0.054125557941198346,-0.02910268730036914,-0.0020517266317270693
1772044433686696400,2.804696533203125,0.05696925693452358,-0.015036825612187384,0.010629146971460432
1772044433696682800,2.814682861328125,0.06341594885587692,-0.006833353151381016,0.005244074665941297
1772044433706668500,2.82466845703125,0.05127659825086593,-0.00944368178024888,-0.012925696943420916
1772044433716654600,2.834654541015625,0.0412000253945589,0.005752645242586732,-0.014276161704305559
1772044433726639600,2.8446396484375,0.0511649545699358,-0.006565057604014873,-0.004461783448141068
1772044433736625700,2.854625732421875,0.051120530906319614,-0.028199381785094735,0.021680866736546157
1772044433746611700,2.86461181640625,0.05439852966368198,-0.01601904158256948,0.02754451633924618
1772044433756597500,2.874597412109375,0.05964928979873657,-0.014809738858044147,0.04025132810128852
1772044433766583800,2.884583740234375,0.07224924365282058,-0.02340681374631822,0.03644013578267768
1772044433776568600,2.894568603515625,0.0716951169013977,-0.019070684238150715,0.04633446567356586
1772044433786554600,2.9045546875,0.06175766025483608,-0.014017054110392927,0.04705353719573468
1772044433796540400,2.91454052734375,0.049130818393826485,-0.01583645155727863,0.047088243182934815
1772044433806526700,2.924526611328125,0.04219488165080547,-0.015619155544787645,0.053880351008474825
1772044433816512500,2.934512451171875,0.0408037195533514,-0.021098025347292423,0.029651388958003372
1772044433826497500,2.94449755859375,0.03763736447691917,-0.004431625771895051,0.01465840248754248
1772044433836483600,2.954483642578125,0.018134791627526282,0.01432458568960428,0.007835315001849084
1772044433846469600,2.9644697265625,0.009804770177602767,0.01591331618577242,-0.020059275150392204
1772044433856455700,2.97445556640625,0.0005360065728425979,0.024100348968431353,-0.015789470610395075
1772044433866441500,2.98444140625,0.01696457880437374,0.011051847629249096,0.028636823354288934
1772044433876427800,2.994427734375,0.04628302774727344,-0.04341865129210055,0.04229302652934566
1772044433886412500,3.00441259765625,0.051718496799468994,-0.0648301265027374,0.041821390429604796
1772044433896398600,3.014398681640625,0.04370762430131435,-0.052574382976442575,0.017367442250531166
1772044433906384400,3.02438427734375,0.04454465964734554,-0.040093890783563256,-0.01695707135135308
1772044433916370700,3.03437060546875,0.028166940820217132,-0.027049846423789856,-0.045732134132552886
1772044433926356500,3.0443564453125,0.0030500352203845977,-0.00048639527745544906,-0.04393045500544831
1772044433936341500,3.054341552734375,-0.014184008175134658,0.02213029100447893,-0.02669295927751809
1772044433946327800,3.064327880859375,0.013425883284211158,0.00023125147260725498,-0.009407441423088312
1772044433956313600,3.074313720703125,0.025302783560752867,-0.012664616588130593,0.013524831880349666
1772044433966299600,3.084299560546875,0.03377309026420116,-0.017505773008987306,0.04076875783782452
1772044433976285700,3.09428564453125,0.05124620311260223,-0.020068828430026768,0.050338550215773284
1772044433986270700,3.104270751953125,0.049018005669116974,-0.025413331263139844,0.02453914224449545
1772044433996256500,3.114256591796875,0.05802607251107692,-0.023409078768640755,-0.0007476765621453524
1772044434006242600,3.12424267578125,0.06525076306760311,-0.01898161771520972,-0.009073131434805691
1772044434016228600,3.134228515625,0.06981821711361408,-0.019351766201853752,-0.0070152490569278594
1772044434026214100,3.144214111328125,0.07113105327785015,-0.03076872081644833,-0.008675327756255865
1772044434036199200,3.15419921875,0.058981181278824804,-0.025078181024640798,-0.016449761150032282
1772044434046185000,3.16418505859375,0.04744622630774974,-0.023163360379263757,-0.028792306176945566
1772044434056171000,3.1741708984375,0.04172083439826965,-0.021761530757322907,-0.042283363651856774
1772044434066157000,3.184156982421875,0.02475976272523403,-0.01026749231852591,-0.05260587409324944
1772044434076143000,3.19414306640625,0.009262333863973618,-0.012323036608844994,-0.03969853479042649
1772044434086129000,3.20412890625,0.0016746552139520643,0.0004643295761197805,-0.03119133014269173
1772044434096114200,3.2141142578125,0.0014198036700487136,-0.004682166466861963,-0.01679196218382567
1772044434106100000,3.224099853515625,-0.027442718198895454,-0.003263458775356412,0.004357793350704014
1772044434116086000,3.2340859375,-0.047369653940200804,0.0024071342069655654,-0.00028886341135948894
1772044434126071800,3.24407177734375,-0.04912438865303993,0.030549013651162384,-0.007906827601790428
1772044434136058000,3.25405810546875,-0.004549333867430686,0.053101840916648504,0.007144574525021016
1772044434146043100,3.264043212890625,0.03720248019099235,0.030815336437150835,0.04357230748385191
1772044434156029000,3.27402880859375,0.06284428644776344,0.008539718677848578,0.049244654031842944
1772044434166015200,3.28401513671875,0.08631400936245917,-0.006666252956166863,0.031728542291931804
1772044434176001000,3.2940009765625,0.0918634601831436,-0.008190832174941896,0.01905208913553506
1772044434185987000,3.303987060546875,0.10102817889153957,0.0025838059481233357,0.002072678088210523
1772044434195973000,3.31397314453125,0.1048088664740324,0.0017456746235489844,-0.019724106645584105
1772044434205958100,3.323958251953125,0.11022095465064048,-0.010136559415236114,-0.011558116650953888
1772044434215944000,3.33394384765625,0.11819441774785518,-0.019430384396016596,0.013083974511362612
1772044434225930000,3.343929931640625,0.1003378585398197,-0.025931802179291842,0.031130393735691902
1772044434235916000,3.353916015625,0.06653261957168578,-0.03909538126550614,0.04884118779748678
1772044434245902000,3.363902099609375,0.007496493235230445,-0.05046301684565842,0.034834143624454736
1772044434255887000,3.37388720703125,-0.03764262517392635,-0.046461087727919216,-0.005563369748182594
1772044434265873000,3.383872802734375,-0.0665367112249136,-0.027822072905302045,-0.02842643200661987
1772044434275859200,3.393859130859375,-0.0739741677492857,-0.025613968401774764,-0.04754764085561037
1772044434285845000,3.403844970703125,-0.03490472464263439,-0.028291297852247953,-0.046029016453586515
1772044434295831000,3.4138310546875,-0.0035860417932271956,-0.03081489804573357,-0.040169586368277665
1772044434305817000,3.423817138671875,0.01621463721990585,-0.03845021522976458,-0.028466398690827188
1772044434315802000,3.433802001953125,0.027934885630011556,-0.0400307624194771,-0.021616605861298738
1772044434325788000,3.443787841796875,0.007001403194665908,-0.01372881175354123,0.0039860739614814514
1772044434335774000,3.45377392578125,-0.005887304472923278,-0.01482237914390862,-0.009016104017943144
1772044434345760000,3.463760009765625,0.014080547800660132,-0.017246610616147517,-0.027417218431457877
1772044434355746000,3.47374609375,0.027250995019078253,-0.0017592647574841975,-0.01931936176959425
1772044434365731000,3.48373095703125,0.05463116937577724,-0.020670228389278053,-0.02236428242344409
1772044434375716900,3.493716796875,0.1046644895672798,0.0075927201513200995,0.0330051015663892
1772044434385703200,3.503703125,0.12861059782207013,0.024460779778659344,0.08074249284043908
1772044434395689000,3.51368896484375,0.11327975769937038,0.01213628186509013,0.07512019597925246
1772044434405675000,3.523675048828125,0.06250058757662773,0.029877178804203867,0.04905117728635668
1772044434415660000,3.533659912109375,0.046509822240471836,0.049261459036171434,0.031242329677566884
1772044434425646000,3.54364599609375,0.05648702637553215,0.03070310823433101,0.00797488786932081
1772044434435631900,3.5536318359375,0.07303542559444903,0.004465820302441716,-0.004774447860196232
1772044434445618200,3.5636181640625,0.08986907149553298,-0.008315189206972717,0.005739639630541205
1772044434455604000,3.57360400390625,0.10796236206889152,-0.013081380695477127,0.02648150848392397
1772044434465589000,3.583589111328125,0.0957850175410509,-0.023397607526555658,0.055073031391762194
1772044434475575000,3.593574951171875,0.05947977845072746,-0.03409275067262351,0.04562332172952592
1772044434485561000,3.60356103515625,0.01333294430375099,-0.031499957700446245,0.0006202142575755714
1772044434495547100,3.613547119140625,-0.03210544931292534,0.001460866332799196,-0.033090186033956706
1772044434505533000,3.623532958984375,-0.043945524710416795,0.02550634330883622,-0.03637823126129806
1772044434515519200,3.633519287109375,-0.024563363370299338,0.01653670878112316,-0.03574135812986642
1772044434525504000,3.64350390625,-0.001460135680437088,0.00582622193545103,-0.006619162411428988
1772044434535490000,3.653489990234375,0.004607201534509659,0.0053073126278817655,0.02655453718751669
1772044434545475800,3.663475830078125,-0.010250760379433631,-0.02677329450473189,0.027568244274705646
1772044434555462100,3.673462158203125,-0.044286885493993754,-0.04125014814659953,0.015153328131325541
1772044434565448000,3.683447998046875,-0.05969312894046306,-0.0303222922232002,-0.03854804958105087
1772044434575433000,3.693432861328125,-0.044966684451699254,-0.018910598305612803,-0.07224770928286016
1772044434585419000,3.7034189453125,-0.0011257891595363616,-0.016748013444244862,-0.06888933876566589
1772044434595405000,3.713405029296875,0.05198036260604858,-0.027302652141079305,-0.036941125841066236
1772044434605391000,3.72339111328125,0.08465396719574927,-0.025853622376546263,0.011584712396934628
1772044434615377000,3.733376953125,0.08930442335009574,-0.03729278882294893,0.05033895207457244
1772044434625362200,3.743362060546875,0.09525953236222266,-0.03677168755829334,0.06661481796242297
1772044434635348000,3.753347900390625,0.08107786227464675,-0.011451222210377454,0.041623401905782516
1772044434645334000,3.763333984375,0.061792731568217275,-0.011970423778891563,0.005564575324580073
1772044434655319800,3.77331982421875,0.07299217097461223,-0.0032953882835805412,-0.007888670890592038
1772044434665306000,3.78330615234375,0.059441200006008145,0.006805734492093324,-0.018959442416019736
1772044434675292000,3.7932919921875,0.03102174572944641,0.0034489714100956917,-0.02538881787639111
1772044434685277000,3.80327685546875,0.04776829786896705,-0.0053449412245303385,-0.0006394304146990179
1772044434695263200,3.81326318359375,0.06420914506018162,-0.016063319115713237,0.0075252444056794045
1772044434705249000,3.8232490234375,0.060032736158370965,-0.025331279002875087,0.009088840460591018
1772044434715235000,3.833235107421875,0.06753682817816734,-0.02849441920891404,0.002289462644048035
1772044434725221000,3.84322119140625,0.04287818773984909,-0.027907340035960078,0.004588825627602637
1772044434735206100,3.8532060546875,0.023161095356941223,-0.023777327559143302,0.0342702261313796
1772044434745192000,3.86319189453125,0.0010468787044286727,-0.015253683233261107,0.061155529643222684
1772044434755178000,3.873177978515625,-0.015244330883026121,0.0018237082958221435,0.07860942633450031
1772044434765164000,3.8831640625,-0.021838906842470168,-0.006197685596346855,0.06022577451243996
1772044434775150000,3.893150146484375,0.006401683735847472,-0.01377140878625214,0.019670367164351044
1772044434785135000,3.903135009765625,0.03464402787983417,-0.017638240282237528,-0.007881437432207167
1772044434795121000,3.913120849609375,0.059788406008481974,-0.02706438640579581,-0.02432520723287016
1772044434805107200,3.923107177734375,0.056815527677536004,-0.00905935863777995,-0.031008155595511195
1772044434815093000,3.933093017578125,0.015557050094008444,-0.008519406542181968,-0.027619755266234277
1772044434825079000,3.9430791015625,-0.012844284003973007,-0.0004906330611556769,-0.040243455322086806
1772044434835063800,3.953063720703125,-0.015416764840483665,0.01095985849685967,-0.03644077510349452
1772044434845050000,3.963050048828125,0.013986439776420593,0.018940774248167872,-0.029357063920237122
1772044434855036000,3.973035888671875,0.04817220249474048,0.006228299930319189,-0.02906641041059047
1772044434865022000,3.98302197265625,0.06757073044776916,0.00011222820281982422,-0.0007035086268559098
1772044434875008000,3.993008056640625,0.06051672028303146,-0.0011604951467365026,0.007805887977965176
1772044434884994000,4.002994140625,0.0551385343760252,0.009682166711241006,0.010314290602318942
1772044434894979000,4.01297900390625,0.025236732587218282,0.001003039562702179,0.04450666572451591
1772044434904964900,4.02296484375,0.021546645897626875,-0.0409846290782094,0.06279043736867607
1772044434914951200,4.032951171875,0.01233867256939411,-0.03237374486029148,0.050998329298757014
1772044434924937000,4.04293701171875,0.005082417830824851,-0.018004662441834806,0.02616097129266709
1772044434934923000,4.052923095703125,-0.016560089656710623,-0.011153042981401086,-0.002880889198556542
1772044434944908000,4.062907958984375,-0.02403203297257423,-0.020437954003363845,-0.018166794200986623
1772044434954894000,4.07289404296875,0.014687866044044495,-0.030160964181646703,-0.021237726078927516
1772044434964880000,4.0828798828125,0.040539515659213064,-0.017869637885317206,-0.018380583082139492
1772044434974866200,4.0928662109375,0.035462943047285075,-0.023862083233147858,-0.00780625330414623
1772044434984852000,4.10285205078125,0.011851765835285187,-0.02993533873222768,-0.00826707574892789
1772044434994837000,4.1128369140625,0.01049742861688137,-0.020197130984812975,-0.03342909913212061
1772044435004823000,4.122822998046875,0.012091419810056686,0.0009478753093630075,-0.04121905888859182
1772044435014809000,4.13280908203125,0.018837971460819242,0.016379691588506103,-0.0025067221239209172
1772044435024795100,4.142795166015625,0.045291678622364995,0.018082330787926912,0.062275948507897555
1772044435034781400,4.152781494140625,0.08194003206193447,0.020966873248293993,0.0961259399332106
1772044435044766500,4.162766357421875,0.09826689748466014,0.013030892617255449,0.10023549414388835
1772044435054752300,4.172752197265625,0.12377835536003112,-0.010665405594930052,0.06241418793480843
1772044435064738600,4.182738525390625,0.13816753071844576,-0.026857904048264027,0.027101868871971965
1772044435074724400,4.192724365234375,0.11970482231080531,-0.033541546530649065,0.007825031069852412
1772044435084710400,4.20271044921875,0.08275544009804725,-0.03632072892040014,0.010605967025272547
1772044435094695400,4.2126953125,0.0582318242162466,-0.03066241089776158,0.008565583771467208
1772044435104681500,4.222681396484375,0.03728606682121754,-0.013930837131664157,0.0038036300666630268
1772044435114667500,4.23266748046875,0.0142214175760746,-0.013883344728127122,0.010487747473083436
1772044435124653300,4.2426533203125,-0.03836450970768928,-0.02119118352346122,-0.0006548471795395016
1772044435134639600,4.2526396484375,-0.05961246491968632,-0.010043035912886262,-0.02143759603258222
1772044435144624400,4.262624267578125,-0.06461889490485191,-0.008880421874299644,-0.033392347318306564
1772044435154610400,4.2726103515625,-0.04844809682667255,-0.01777319177351892,-0.03972337697073817
1772044435164596200,4.28259619140625,-0.02344926464855671,-0.01818966361992061,-0.04620707643423229
1772044435174582500,4.29258251953125,0.012661913174390792,-0.006825169844925403,-0.05016940419394523
1772044435184568300,4.302568359375,0.04044306954741478,-0.025730872779712078,-0.04642123064156622
1772044435194553300,4.31255322265625,0.05945289044380188,-0.010329451638832688,-0.03293503200486302
1772044435204539400,4.322539306640625,0.0469078816473484,0.025455636034905908,-0.022304405462369323
1772044435214525400,4.332525390625,0.029692542952299117,0.01849061932787299,-0.009968618969805538
1772044435224511500,4.342511474609375,0.030706103909015653,0.0011355799011886119,-0.010974617674574255
1772044435234497300,4.352497314453125,0.04848258361816406,0.002227685986831784,-0.019492672509886323
1772044435244482600,4.362482666015625,0.0444201564848423,-0.003482362223044038,-0.039338469306379555
1772044435254468400,4.37246826171875,0.04665186105966568,-0.0102951109778136,-0.039031522249057884
1772044435264454400,4.382454345703125,0.042317046725749964,-0.021051117465645072,-0.03182462307754904
1772044435274440400,4.3924404296875,0.022556699723005294,-0.018370938470959663,-0.0009101736474782227
1772044435284426500,4.402426513671875,0.031219314128160473,-0.01566219096891582,0.016993366507440804
1772044435294411500,4.41241162109375,0.0570686256557703,-0.0028639380637556313,0.024653927730582652
1772044435304397300,4.422397216796875,0.07422083598673343,0.004367182233557105,0.032025625542365016
1772044435314383600,4.432383544921875,0.07536123819351195,-0.00139817636013031,0.021695004859752953
1772044435324369400,4.442369384765625,0.08566402102112769,0.002658405554294586,0.027794454246014354
1772044435334355500,4.45235546875,0.0879471635222435,-0.006639876405894756,0.035291714666225014
1772044435344340200,4.46234033203125,0.06304711554348469,-0.021940540586039423,0.04467716345321387
1772044435354326500,4.472326416015625,0.03159983787834644,-0.035987916769459845,0.05139945744555443
1772044435364312300,4.482312255859375,0.021392916640639303,-0.028776158759742973,0.04890515641178936
1772044435374298400,4.49229833984375,0.009192191237211227,-0.017275763645395636,0.026116474563814697
1772044435384284400,4.502284423828125,0.03469663484990597,-0.013879837596789001,0.014027867765352128
1772044435394269400,4.51226953125,0.03606675415933132,-0.0057792409885674715,0.01765526448227465
1772044435404255500,4.52225537109375,0.032197219249606134,0.005377966711297631,0.04823365035839378
1772044435414241300,4.5322412109375,0.01383621765077114,-0.008042509745433926,0.054521900315023956
1772044435424227600,4.5422275390625,-0.014866729742288589,-0.015324264251440763,0.06039641837161034
1772044435434213400,4.55221337890625,-0.03685995036363601,-0.024002953008562325,0.04382478440757841
1772044435444198400,4.562198486328125,-0.031054478955268857,-0.02682107916921377,0.0234276008060202
1772044435454184400,4.572184326171875,0.0021375965505838392,-0.030413477637991307,0.007763510140962898
1772044435464170500,4.58217041015625,0.015469956332445144,-0.02788015976808965,0.005315642064809799
1772044435474156300,4.59215625,0.020027473506331443,-0.012296221667155622,0.017032419876195488
1772044435484142300,4.602142333984375,-0.003781272104382515,-0.0016617226671427488,0.033998459985293446
1772044435494127600,4.612127685546875,-0.029063012877106664,0.006112126204743981,0.026565241244621573
1772044435504113400,4.622113525390625,-0.0674596712887287,0.0010204290889203548,0.02942004615385085
1772044435514099500,4.632099365234375,-0.11309387973845005,-0.003857552210986614,0.026509894328191876
1772044435524085500,4.64208544921875,-0.10989011526107788,0.004068929939344525,0.0033868294266983863
1772044435534070500,4.652070556640625,-0.0783615890532732,-0.0025146131694316863,-0.014974062574282288
1772044435544056300,4.662056396484375,-0.03315466610491276,-0.010629238303005694,0.001742788546718657
1772044435554042400,4.67204248046875,0.026963410249352452,-0.019131255318969486,0.004792093114741146
1772044435564028400,4.6820283203125,0.04115618625283241,-0.04489763780348003,-0.004461034529469907
1772044435574014500,4.692014404296875,0.021360183414816856,-0.028333456493541596,-0.032052988473325966
1772044435583999500,4.70199951171875,0.03011807488799095,-0.009822451964765786,-0.05533847739491611
1772044435593985300,4.7119853515625,0.05184826065897941,-0.0006157207455486059,-0.052735966746322804
1772044435603971600,4.7219716796875,0.10664192712008952,0.013771847177669405,-0.03119253571908921
1772044435613957400,4.731957275390625,0.17408640083968638,0.011824877828359602,-0.013624401530995964
1772044435623943400,4.741943359375,0.20663959392011164,0.008973287789523601,0.012701952923834322
1772044435633928200,4.75192822265625,0.2029430774897337,-0.00788490803092718,0.023106223364546895
1772044435643914500,4.76191455078125,0.17943419160842894,-0.0222563285369426,-0.0004388663413003087
1772044435653900300,4.771900390625,0.15894669937491415,-0.015043693744391202,-0.031116657471284268
1772044435663886300,4.78188623046875,0.11030220319330691,-0.013383213186264037,-0.050804194966144856
1772044435673872400,4.791872314453125,0.09756196408569812,0.00001651274338364601,-0.0324400515621528
1772044435683857400,4.801857421875,0.10023556720912456,0.014902677838504314,-0.007508950858004391
1772044435693843500,4.811843505859375,0.07940963680148125,0.021003113605454562,0.004600625663250684
1772044435703829500,4.82182958984375,0.061439680346846576,0.010753741465508938,-0.002816299529746175
1772044435713815600,4.831815673828125,0.015030395871400832,0.017390914457663893,-0.005074051861278713
1772044435723801300,4.84180126953125,-0.017638532543182373,0.006278641878068447,-0.015072408382222055
1772044435733786400,4.851786376953125,-0.012064531803131103,-0.002368701892718673,-0.026719847284443675
1772044435743772400,4.8617724609375,-0.0229746328741312,-0.00626293285228312,0.006780892311781644
1772044435753758500,4.871758544921875,-0.022993922096490857,-0.01899301589205861,0.045290509578585623
1772044435763744300,4.881744140625,-0.001180149695277214,-0.019904870039969682,0.07282594756223261
1772044435773729300,4.891729248046875,0.018258710268139838,-0.03727225749157369,0.08844893903192132
1772044435783715600,4.901715576171875,0.016790975803136824,-0.04059073438979685,0.0780260734885931
1772044435793701400,4.911701416015625,-0.0029079964011907576,-0.05421433220319449,0.07366038909237832
1772044435803687400,4.9216875,-0.024563947892189023,-0.05393858400173485,0.05894589076973498
1772044435813673500,4.931673583984375,-0.023954876083135603,-0.040847631760314106,0.05022394739277661
1772044435823658500,4.941658447265625,-0.026057985842227935,-0.04776873626038432,0.030041904379241167
1772044435833644300,4.951644287109375,-0.019068273085355757,-0.014411971712112425,0.0063507572662085295
1772044435843630300,4.96163037109375,-0.00030336686074733735,0.0001308598380535841,0.006842595903761684
1772044435853616400,4.971616455078125,0.020827683973312378,-0.024372955364733932,0.009652392627485096
1772044435863602400,4.9816025390625,0.03567395544946193,-0.010523439840972423,0.020347499240934847
1772044435873587500,4.99158740234375,0.05621405465304851,-0.004556348130106926,0.029082411697320638
1772044435883573500,5.001573486328125,0.09261047915816306,-0.01707549183294177,0.01777501840442419
1772044435893559600,5.0115595703125,0.12158289114236831,-0.0067583151537925,-0.0010335077662020921
1772044435903545300,5.02154541015625,0.11785130339860915,0.017773922425881026,0.0057870589688420295
1772044435913530400,5.0315302734375,0.10443652603030204,0.01910509796440601,0.004522482393123209
1772044435923516400,5.041516357421875,0.08159984032213688,0.030559535045176743,-0.02425100948549807
1772044435933502500,5.05150244140625,0.08673603416681289,0.03327843861505389,-0.04827350744474679
1772044435943488300,5.06148828125,0.07899637982547282,0.023574206202477216,-0.05887943793740123
1772044435953474600,5.071474609375,0.07665010896027087,0.013488792452588676,-0.058705981066636735
1772044435963459600,5.08145947265625,0.07116203293800354,0.004791179799288511,-0.037474136739224194
1772044435973445400,5.0914453125,0.06537059005498885,-0.009441562888398767,-0.02322557542789727
1772044435983431400,5.101431396484375,0.050505029356479644,-0.03594247019253671,-0.007616137559525668
1772044435993417500,5.11141748046875,0.025640052691102026,-0.052754050392284986,0.003192914289794862
1772044436003403500,5.121403564453125,0.004839256724715232,-0.05920045005269348,-0.012698993781767785
1772044436013388300,5.13138818359375,-0.011923662027716636,-0.043802462977916,-0.024305844945274293
1772044436023374300,5.141374267578125,-0.030493922463059424,-0.030374314671382307,-0.015750892165675757
1772044436033360100,5.151360107421875,-0.03324818960726261,-0.016653174767643213,-0.006276048062182962
1772044436043346000,5.161345947265625,-0.03753098149299621,-0.012763327722251415,0.0047577524537220596
1772044436053331000,5.1713310546875,-0.04722878416478633,-0.0014610855285078286,0.006836275760829448
1772044436063317000,5.18131689453125,-0.04242167614400386,-0.0020776830568909645,0.019531250954605638
1772044436073303000,5.191302978515625,-0.02475976272523403,-0.01639130896106362,0.020657040114142
1772044436083288800,5.201288818359375,-0.030175358033180236,-0.017548443106934427,0.02448244362119585
1772044436093275100,5.211275146484375,-0.016478256592154503,-0.011927972876653075,0.02962609011996537
1772044436103260200,5.22126025390625,0.015606149932742118,-0.01201981587857008,0.03963865782935172
1772044436113246000,5.231245849609375,0.053231239449977874,-0.0071647039975970975,0.04799560381881893
1772044436123232000,5.24123193359375,0.08769055841267108,-0.00747296622917056,0.02447743865251541
1772044436133218000,5.251218017578125,0.11814414886534214,-0.000017243395745754242,0.01467325299680233
1772044436143203000,5.261203125,0.1312993985146284,-0.014613266437873243,0.0031071722351014614
1772044436153188900,5.27118896484375,0.1398223121881485,-0.024332111897692084,0.018075754916667935
1772044436163175000,5.2811748046875,0.1231038170993328,-0.014553791335597633,0.03971070015225559
1772044436173161000,5.291160888671875,0.11241583434641361,-0.009747121706232428,0.03218574800752103
1772044436183147000,5.30114697265625,0.08348843054771422,0.007289645551517605,0.006454034977592528
1772044436193132000,5.311132080078125,0.06712707833349704,0.008622063199058174,-0.021009397215768694
1772044436203117800,5.321117919921875,0.06724456723332405,0.007355988785997033,-0.020558328980021176
1772044436213103000,5.33110302734375,0.07547405091822147,-0.0042579497054219245,-0.023997692311555147
1772044436223089000,5.3410888671875,0.05349193621277809,-0.010732406416535377,-0.014815620609559118
1772044436233075000,5.351074951171875,0.0446814377695322,-0.016135726764798162,0.0011116510363295674
1772044436243061000,5.36106103515625,0.033035423639416694,-0.03327164354808628,0.018914945687167346
1772044436253046000,5.3710458984375,0.013409516671299934,-0.0476153723295778,0.01980696262344718
1772044436263032000,5.381031982421875,-0.03604629589319229,-0.027470702184364197,0.025358313140273092
1772044436273017900,5.391017822265625,-0.03720715636610985,-0.014043211464956401,0.01412738261707127
1772044436283004200,5.401004150390625,-0.0331266090542078,-0.0158051796361804,-0.013771372253634034
1772044436292989000,5.410989013671875,0.0024497312396764754,-0.02114734438173473,-0.02917951539624482
1772044436302975000,5.42097509765625,0.0020066636472940444,-0.014582871299609541,-0.01981920105051249
1772044436312960800,5.430960693359375,-0.005903671085834503,-0.016072671465948225,-0.005565671303123235
1772044436322947000,5.440947021484375,-0.025361820271611213,-0.011008373813703655,0.0015548282265663146
1772044436332932900,5.450932861328125,-0.04351473207771778,-0.004661781265959143,0.018065671914070845
1772044436342918000,5.46091796875,-0.04138414978981018,0.019653160301223396,0.05159191127773374
1772044436352904000,5.470904052734375,-0.012375497448444366,-0.010290069476515054,0.03826462952978909
1772044436362890000,5.480889892578125,-0.009425415471196174,-0.008360781914368271,-0.005984006313048303
1772044436372876000,5.4908759765625,0.004731120175123215,0.009365282781794666,-0.01609309319946915
1772044436382860800,5.50086083984375,0.02728548181056976,-0.008101619521528483,-0.0068999521141871805
1772044436392847000,5.51084716796875,0.05898001223504543,-0.01354673318490386,-0.0004330211224034428
1772044436402833000,5.5208330078125,0.09517419216632843,-0.022155425445735455,0.008677227452397346
1772044436412819000,5.53081884765625,0.11295534805059432,-0.01239990123733878,0.022888708156347273
1772044436422805000,5.540804931640625,0.11896598664224146,-0.0018340835593640803,0.036146431799419225
1772044436432790000,5.5507900390625,0.12351999668478965,-0.01105761978290975,0.035532537684775885
1772044436442776000,5.560776123046875,0.1218400807738304,-0.008916223840042948,0.02440400809012353
1772044436452761900,5.570761962890625,0.08443827861845493,-0.0003499094162136316,0.02481335607599467
1772044436462748200,5.580748046875,0.03401449780464172,-0.0022846038058400154,0.004593830596283078
1772044436472733000,5.59073291015625,-0.02366436870396137,0.012616978054121136,-0.003886339914053678
1772044436482719000,5.600718994140625,-0.04103343665599823,0.023911402267590164,-0.018264701617509125
1772044436492704800,5.610704833984375,-0.00008358663022518158,0.02290339426882565,-0.03745473791901022
1772044436502691000,5.620691162109375,0.042380759611725806,0.015338804233446716,-0.03651811465602368
1772044436512676900,5.6306767578125,0.0628980624616146,-0.006932941068336368,0.008885098049417138
1772044436522662000,5.640661865234375,0.07314823831915855,-0.03151267105154693,0.044142179793678224
1772044436532648000,5.65064794921875,0.06145721600353717,-0.061042936114221805,0.06333042599689215
1772044436542634000,5.660634033203125,0.025059622454643247,-0.06124364631809294,0.06365721026584506
1772044436552620000,5.6706201171875,0.004658054938912391,-0.057516880879923696,0.04078852198421955
1772044436562604800,5.680604736328125,0.0034030864417552947,-0.0513013673659414,0.013265066699311136
1772044436572591000,5.690591064453125,0.0007663081973791122,-0.03794869544841349,-0.008974858692102133
1772044436582577000,5.700576904296875,-0.00696340927183628,-0.02090937090739608,-0.006920702641271054
1772044436592563000,5.71056298828125,0.0014560440272092818,-0.012387991603836416,-0.005450630088709295
1772044436602548700,5.720548828125,-0.004173486292362213,-0.01725048307366669,0.0008116451764479279
1772044436612534000,5.730533935546875,0.0005523731857538223,-0.01239982817210257,0.009788841956108808
1772044436622520000,5.74052001953125,0.01576513988673687,-0.005560629801824688,0.009767324244044721
1772044436632505900,5.750505859375,0.02214168918132782,-0.012658844434469938,0.0011180807771161197
1772044436642492200,5.7604921875,0.02926584197282791,-0.00918897636681795,-0.004654474742338061
1772044436652477000,5.770476806640625,0.040597383326292036,0.004094941163435578,0.0020521102242171763
1772044436662463000,5.780462890625,0.04401449829339981,0.0003578735269606113,0.021064671066962182
1772044436672448800,5.79044873046875,0.05372808305621147,-0.004084712030366063,0.012371150066889821
1772044436682435000,5.80043505859375,0.06358253759443759,0.009992401704192161,0.0026297639816999434
1772044436692420000,5.810420166015625,0.06377952147126198,0.015803206874802706,-0.026090792133286595
1772044436702406000,5.820406005859375,0.04624503382444382,0.020080153541639445,-0.0249803101407364
1772044436712392000,5.830391845703125,0.04427110340297222,0.0072482906278222795,-0.021171017518267034
1772044436722378000,5.8403779296875,0.07463935365974902,-0.016409356074407695,0.0005818915411829948
1772044436732364000,5.850364013671875,0.09188976366817951,0.007440671394765377,0.025314254802837968
1772044436742348800,5.860348876953125,0.08673778773248195,0.0014575053319334983,0.04405048292223364
1772044436752335000,5.870335205078125,0.06874678848981856,-0.010526581646129489,0.03932736339047551
1772044436762321000,5.88032080078125,0.03114332628250122,-0.015622078154236078,0.035399193628691136
1772044436772307000,5.890306884765625,0.006097147831320762,-0.03477729887068271,0.034147768795490266
1772044436782292000,5.9002919921875,0.004842179334163666,-0.044167131571844216,0.0049726738460361955
1772044436792278000,5.910278076171875,0.02993161240518093,-0.03558956510163844,-0.01123995407987386
1772044436802264000,5.92026416015625,0.0409825832515955,-0.03722250006571412,-0.021997604535520077
1772044436812249900,5.930249755859375,0.04127776680588722,-0.0302041457362473,-0.01944667794369161
1772044436822235000,5.94023486328125,-0.0030529578298330307,-0.02188267291896045,0.002611022748611867
1772044436832221000,5.950220947265625,-0.04263210402429104,-0.02074533945210278,0.02904657319895923
1772044436842207000,5.96020703125,-0.06445172164440155,-0.03979614994600415,0.0546734376149252
1772044436852192800,5.97019287109375,-0.07164075636565685,-0.02885295032300055,0.08503675596825779
1772044436862179000,5.980178955078125,-0.06958323931396007,-0.013406301800906658,0.06341941945459693
1772044436872164000,5.9901640625,-0.03283493263125419,-0.006177154264971614,0.013776706015877424
1772044436882150000,6.00014990234375,0.012447393640875815,-0.0011688245836645364,-0.03567735298294574
1772044436892136000,6.010135986328125,0.05850830307006836,0.0009380115024745463,-0.06227675222549587
1772044436902122000,6.0201220703125,0.08531155432164668,-0.005580211285129189,-0.049082083881273865
1772044436912107000,6.03010693359375,0.07695347582101822,-0.01806895984970033,-0.024986338022723792
1772044436922092800,6.0400927734375,0.05567337190508842,-0.005958762273937463,-0.0073031626202166074
1772044436932078800,6.050078857421875,0.05279167898893356,-0.0002530979782342911,0.003067717007547617
1772044436942065000,6.06006494140625,0.06593757628798484,-0.0037970541954040525,0.007518632001802325
1772044436952050000,6.0700498046875,0.11234452267587185,-0.007793795681372284,0.006937653776071966
1772044436962036000,6.080035888671875,0.13277356272041796,0.005692220292240381,0.0005733794411644339
1772044436972022000,6.09002197265625,0.14053016819655895,0.02007080119140446,-0.011859620348177849
1772044436982008000,6.100008056640625,0.11943886485099792,0.011401026393100618,0.0036538463324308395
1772044436991992800,6.109992919921875,0.074853873193264,-0.005714797450229525,0.023823541321046648
1772044437001979000,6.119978759765625,0.028147067075967785,0.0015482523553073406,0.026020138049870727
1772044437011965000,6.12996484375,0.0014665654212236404,0.0047298780661076305,0.024613303459249437
1772044437021951000,6.139950927734375,-0.012781740161776542,-0.015008768561482429,0.020349837328493593
1772044437031936800,6.149936767578125,-0.0026315175473690033,-0.03216017517484724,0.019959668967127798
1772044437041922000,6.159922119140625,-0.0023579613029956815,-0.04058532756231725,0.030905681601725517
1772044437051908400,6.169908447265625,-0.0113718733638525,-0.03280066503547132,0.02399995733387768
1772044437061894100,6.17989404296875,-0.007692308068275451,-0.02644201672375202,0.01821355595216155
1772044437071880200,6.189880126953125,-0.03564414483308792,-0.022823972357064484,0.007892178021930157
1772044437081865200,6.199865234375,-0.04944178403913974,-0.016227277505770323,0.008408822307176888
1772044437091851300,6.209851318359375,-0.044268765315413475,-0.012860796747356653,-0.00352875864803791
1772044437101837000,6.219837158203125,-0.026253216153383253,-0.013979717774689197,-0.017237696657329795
1772044437111823400,6.2298232421875,0.005384031125903129,-0.015469810201972722,0.0034662148058414457
1772044437121808400,6.239808349609375,0.020109306570887563,-0.017779256188124416,0.022595314700342713
1772044437131794200,6.249794189453125,0.038133039039373394,-0.012314195715263486,0.04340206548348069
1772044437141780200,6.2597802734375,0.07189385434389114,-0.011268632185086606,0.0509772865107283
1772044437151766300,6.269766357421875,0.08356734100282191,-0.017817250110954044,0.05572155842836946
1772044437161751300,6.279751220703125,0.0891664761841297,-0.014514847564697266,0.060727476956881576
1772044437171737000,6.289737060546875,0.0820779792279005,-0.010030322561785578,0.03737878660596907
1772044437181723100,6.29972314453125,0.06287877323925495,-0.014996931993216275,0.023693339070118963
1772044437191709200,6.309709228515625,0.02599193486869335,-0.009569500117003917,-0.003561053482443094
1772044437201695200,6.3196953125,0.02019873842000961,0.012323328869789839,-0.019974099351279435
1772044437211680300,6.32968017578125,0.02693184606730938,0.017305062805116175,-0.022143296616524456
1772044437221666000,6.339666015625,0.024953823992609977,-0.0028089199408888816,-0.022114253185130654
1772044437231652400,6.34965234375,0.03469838841557502,-0.00969670669324696,-0.035376726068556304
1772044437241638100,6.35963818359375,0.04646130692362785,-0.0066802814815193415,-0.02473992551360279
1772044437251623200,6.369623046875,0.04790507599115371,-0.024613047730922696,-0.019178418928943574
1772044437261609200,6.379609130859375,0.009826982009410857,-0.025891908560320732,-0.023742110115289688
1772044437271595300,6.38959521484375,-0.035955110478401185,-0.009097060299664735,-0.028712993863038716
1772044437281581000,6.3995810546875,-0.0418453375607729,0.009481164246425032,-0.026412936759740113
1772044437291566000,6.409566162109375,-0.014710077875852583,0.011146613240614533,-0.026399492756277322
1772044437301552400,6.419552490234375,0.009120295044779778,0.010481719591096042,-0.012061170802265405
1772044437311538200,6.4295380859375,0.03868599674701691,-0.008452917177230118,0.005842588548362255
1772044437321524200,6.439524169921875,0.08837444902360439,-0.011964432429522276,0.026008886003494262
1772044437331509000,6.449509033203125,0.08259002040326595,-0.02915105648674071,0.06068462419584393
1772044437341495300,6.459495361328125,0.05349076716899871,-0.0526258939679712,0.05990395867954939
1772044437351481000,6.469481201171875,0.016288286978006362,-0.04315276689752936,0.055274472247995435
1772044437361467100,6.479467041015625,0.006136310797929764,-0.03656125967800617,0.021951646501943468
1772044437371453200,6.489453125,0.012542086187005043,-0.021591069561243056,-0.0009756400991231203
1772044437381438200,6.499438232421875,0.0198071087539196,0.0028370500568300483,-0.01857687283921987
1772044437391424300,6.50942431640625,0.04878478143513203,0.01355287066474557,-0.017108882645890115
1772044437401410000,6.51941015625,0.083071081918478,0.001846577714756131,0.011204590505547821
1772044437411396400,6.529396240234375,0.10213877048194407,0.0007681348282843828,0.036543431760370726
1772044437421381000,6.539381103515625,0.08026596136987209,-0.015313596726953982,0.05316365410648286
1772044437431367200,6.5493671875,0.05810615200996399,-0.011832915004342793,0.046525640864111484
1772044437441353200,6.559353271484375,0.03383329601883888,0.003838482184335589,0.0326364874497056
1772044437451339300,6.56933935546875,0.007138765838742255,0.008442907239869237,0.01727788253724575
1772044437461324300,6.57932421875,0.0006079027652740478,0.013986439776420593,-0.004888868020102382
1772044437471310000,6.58931005859375,-0.020192893201112744,0.018888459539040923,-0.0201034613519907
1772044437481296400,6.59929638671875,-0.023341712620854375,0.0016956980019807815,-0.022788097326084972
1772044437491282200,6.6092822265625,-0.009551672199368475,-0.01264408525675535,-0.02780994407609105
1772044437501267200,6.61926708984375,-0.005170680636167526,-0.036321532637998456,-0.019704598227515815
1772044437511253000,6.6292529296875,-0.0015688567519187926,-0.04705225855410099,-0.01202650134768337
1772044437521239300,6.6392392578125,-0.009992986226081848,-0.02612505972906947,-0.019144041735306382
1772044437531225000,6.64922509765625,0.016584055054187773,-0.021206454157829284,-0.034844811148941515
1772044437541210000,6.659210205078125,0.04198211568295956,-0.028845278473198413,-0.04315525111556053
1772044437551196200,6.669196044921875,0.06938099474012852,-0.01766761250719428,-0.01364091427437961
1772044437561182200,6.67918212890625,0.08653846576809883,-0.02779766911640763,0.021931261301040648
1772044437571168300,6.689168212890625,0.06572831745147704,-0.040247546975314616,0.035279878097958864
1772044437581153300,6.6991533203125,0.011523264533281325,-0.022187574149668217,0.018409443850442766
1772044437591139300,6.709139404296875,-0.03722703011035919,-0.005667451177164912,-0.006051956982724368
1772044437601125000,6.719125,-0.06887655234932899,0.005004018832370638,-0.008236899806372822
1772044437611111200,6.729111083984375,-0.046402270212769506,-0.005871887708082795,-0.0020949995178729296
1772044437621096200,6.73909619140625,0.003900514569878578,-0.013532850790023802,-0.008165295874886215
1772044437631082200,6.749082275390625,0.047937224695086475,-0.009043649611994624,-0.009756839382648468
1772044437641068300,6.759068359375,0.07435644506514072,-0.009682532037422061,0.011048486628383397
1772044437651054000,6.76905419921875,0.093645667424798,-0.010273995124548673,0.04166567014493048
1772044437661040400,6.779040283203125,0.08244798158407211,-0.01663461619764566,0.05686075505875051
1772044437671025200,6.789025146484375,0.05254091909825802,-0.011370265928655861,0.05314224599227309
1772044437681011200,6.79901123046875,0.03831307178139686,0.0028118425503373145,0.05214629375748336
1772044437690997200,6.808997314453125,0.044409050568938256,-0.008628127613663673,0.045844197938591236
1772044437700983300,6.8189833984375,0.06250584827363491,-0.0036449323736131188,0.044777408957295116
1772044437710968300,6.82896826171875,0.09443827910721302,-0.020755349389463662,0.0451262954602018
1772044437720954000,6.8389541015625,0.11567805101275444,-0.023512246882170438,0.046067850626632566
1772044437730940200,6.848940185546875,0.094007486474514,-0.014107728068530558,0.026240795063227414
1772044437740926200,6.85892626953125,0.0161690445125103,-0.013600801459699868,0.014804916552454233
1772044437750911200,6.8689111328125,-0.04605447968840599,-0.00212612530849874,0.013340543088316916
1772044437760897300,6.878897216796875,-0.06075929686725139,0.003332359293103218,0.004417487648688256
1772044437770883300,6.88888330078125,-0.03616086218357086,0.007934738522022962,-0.008078713569976389
1772044437780869000,6.898869140625,0.0059808279752731315,0.008231748707219958,-0.009190729932487011
1772044437790854100,6.908854248046875,0.06393208168447018,0.0005666209068149328,-0.00017539309952408074
1772044437800840200,6.918840087890625,0.11840484562814235,-0.029581629923731086,0.023432934568263588
1772044437810826200,6.928826171875,0.10185644640922546,-0.0460937157202512,0.03535308946464211
1772044437820812300,6.938812255859375,0.05640811592042446,-0.050035585213825104,0.003332213162630796
1772044437830797300,6.94879736328125,0.0026636662513017653,-0.039504838849231595,-0.02759958926104009
1772044437840783000,6.958783203125,-0.040566403666138645,-0.022473989875614643,-0.044877106472104786
1772044437850769400,6.968769287109375,-0.06429039360284805,0.010599427686631678,-0.051617739838734265
1772044437860755200,6.978755126953125,-0.050802550998330115,0.030241262876242396,-0.030305706414580344
1772044437870740200,6.988740234375,-0.008867197066545486,0.0245030114851892,-0.01572816887721419
1772044437880726000,6.99872607421875,0.03715396487414837,0.013904825907573103,0.013145897299051284
1772044437890712300,7.00871240234375,0.07095745027661324,0.0038829789131879806,0.04327916975617409
1772044437900698000,7.018697998046875,0.07264554949402809,-0.019507395154982805,0.06470821715611964
1772044437910683100,7.02868310546875,0.054428340280056,-0.03434321830235421,0.07006192620899528
1772044437920669400,7.03866943359375,0.033630466923117636,-0.029528219236060974,0.06103128220904618
1772044437930655200,7.0486552734375,0.03690495854914188,-0.01707132711447775,0.03247972598541528
1772044437940641300,7.058641357421875,0.04198211568295956,-0.016238237291201947,0.01963504012264311
1772044437950626000,7.0686259765625,0.06039338616430759,-0.01305595399327576,0.015543569557927548
1772044437960612400,7.0786123046875,0.053508887347579,-0.018144801564887163,0.007288366909883916
1772044437970598100,7.08859814453125,0.028957214415073394,-0.014461729137971996,0.010462832227535546
1772044437980584200,7.098584228515625,0.008427052083611488,-0.024171733704209327,0.009974646851792932
1772044437990569200,7.1085693359375,0.02607026080191135,-0.027034429658949373,0.013733487928658724
1772044438000555300,7.11855517578125,0.03895779942572117,-0.025079861525073646,0.010230375178530812
1772044438010541300,7.128541259765625,0.03002747399508953,-0.023572452636808156,0.03209266289658844
1772044438020527000,7.138527099609375,0.017785247537493706,-0.031673999093100424,0.03102419341485947
1772044438030512000,7.14851220703125,-0.00467383702993393,-0.01779540360532701,0.03356653484143317
1772044438040498400,7.15849853515625,-0.03030629093647003,-0.0015979367159307002,0.03854709973298013
1772044438050484500,7.168484375,-0.032954175096750256,-0.015123334851860999,0.05542527889553457
1772044438060470300,7.17847021484375,-0.017516367468237877,-0.012171937700361013,0.07357643713597208
1772044438070455300,7.188455322265625,0.01677285562455654,-0.030073797354847193,0.06092186701782047
1772044438080441600,7.198441650390625,0.01439911223053932,-0.06808182177506387,0.05124415728598833
1772044438090427400,7.208427490234375,-0.02932370963990688,-0.1151938476923853,0.15638404581267384
1772044438100413400,7.218413330078125,-0.10767769990861416,-0.16060666847638785,0.35961087214723225
1772044438110398500,7.2283984375,-0.11128887614309788,-0.18993037811629473,0.3591215542603284
1772044438120384500,7.238384521484375,-0.11958441080152987,-0.24121384449936448,0.2583065431954339
1772044438130370300,7.248370361328125,-0.14655951148867608,-0.22137889789044857,0.2116329452279955
1772044438140356400,7.2583564453125,-0.13867957189381122,-0.1781741085447371,0.18952596203386782
1772044438150341600,7.268341552734375,-0.1540823082089424,-0.1876370064821094,0.14567819860950112
1772044438160327400,7.278327392578125,-0.29909751286506653,-0.12341492887511848,0.05677490340620279
1772044438170313500,7.2883134765625,-0.45926644751131535,-0.022282705087214708,-0.05818400301914662
1772044438180299500,7.298299560546875,-0.6300596520245075,-0.2702284151248634,-0.04466976559804752
1772044438190284500,7.308284423828125,-0.7231494391322135,-0.214730765112862,0.154105396823585
1772044438200270300,7.318270263671875,-0.7351403211772441,-0.09716741181015967,0.21125963666988534
1772044438210256400,7.32825634765625,-0.6297913564771414,-0.1496712868336588,0.09519691545478999
1772044438220242400,7.338242431640625,-0.4548480465471744,-0.17207367277778685,0.1694104997168295
1772044438230227500,7.3482275390625,-0.3392547512084245,-0.08440452247932553,0.1137008143893443
1772044438240213500,7.358213623046875,-0.2681727977693081,0.04528510275110602,-0.0025786457158159465
1772044438250199300,7.36819921875,-0.223543382447958,0.1635070660930127,-0.010390296714287251
1772044438260185600,7.378185546875,-0.07275602413117885,0.1644846058882773,-0.09844059181744232
1772044438270170400,7.38817041015625,-0.11776713224649428,0.2009699507858604,-0.02905528622837737
1772044438280156400,7.398156494140625,-0.22976152631044386,0.30485505347847935,0.06854514670418575
1772044438290142200,7.40814208984375,0.013181553134322165,0.35697117129340766,-0.038839881267631424
1772044438300128500,7.41812841796875,0.26677169879972934,0.26320604220740496,-0.060702685008919795
1772044438310113500,7.428113525390625,0.2674263633161783,0.17814130225367844,0.04098228642407339
1772044438320099300,7.438099365234375,0.2518681441783905,0.21253259748145936,0.036594449561554936
1772044438330085600,7.448085693359375,0.2756470791727304,0.2550943396832794,-0.04580898962789215
1772044438340071400,7.458071533203125,0.41983460083305835,0.22952969031594692,-0.1960065927574411
1772044438350056400,7.468056396484375,0.6019663609623909,0.17612411721237003,-0.25842169400770215
1772044438360042200,7.478042236328125,0.6382821214467287,0.12386048068553208,-0.11174719610353931
1772044438370028500,7.488028564453125,0.5562842217177152,0.03819251414164901,-0.025845822662580755
1772044438380014300,7.498014404296875,0.46674949674308297,0.02903933974057436,-0.01881289181848988
1772044438389999400,7.507999267578125,0.3893991305589676,0.06149396781735122,0.020718707173503933
1772044438399985400,7.5179853515625,0.35520576905608175,0.02250029336065054,0.061011938187759365
1772044438409971500,7.527971435546875,0.30973171960413454,-0.0413869993340224,0.10104945914158597
1772044438419957500,7.53795751953125,0.27840368440449237,-0.03229395762234926,0.04980880898693576
1772044438429942300,7.5479423828125,0.2735819633364677,0.0044631168887019155,0.005972809065598994
1772044438439928600,7.557928466796875,0.25521979269385336,-0.011136968629434705,-0.06191263162083924
1772044438449914400,7.567914306640625,0.2366355037331581,-0.02481741119660437,-0.11606288561187685
1772044438459900400,7.577900390625,0.15571312428116799,-0.011182926663011312,-0.10650918585220351
1772044438469885400,7.587885498046875,0.050612581384181975,0.01904277331791818,-0.03046082391105592
1772044438479871500,7.59787158203125,-0.004456394886970519,0.05215418480299413,0.07148171161273494
1772044438489857500,7.607857421875,-0.028787703067064283,0.02933342731632292,0.11369148030541837
1772044438499843300,7.61784326171875,-0.02129939313828945,0.010701719017326831,0.12274948723632842
1772044438509828400,7.627828369140625,-0.037539164799451824,0.0035856764670461412,0.0898769077421166
1772044438519814400,7.637814453125,-0.0006564180821180344,0.01182027471847832,0.05070681727258488
1772044438529800400,7.647800537109375,0.08022504483759403,0.028971535201370715,0.05641960542881861
1772044438539786200,7.6577861328125,0.15889467692673206,-0.019887480513751506,-0.007727781240455806
1772044438549771300,7.667771240234375,0.23412673578262327,-0.010396744721382856,-0.021759137870837
1772044438559757600,7.677757568359375,0.245563491076231,-0.0473959574252367,-0.0664206470971927
1772044438569743400,7.687743408203125,0.21413082645833492,0.010769012099876999,-0.10675035593062639
1772044438579729400,7.6977294921875,0.10354863727986811,0.06484510487616062,-0.11110259632337838
1772044438589714400,7.70771435546875,0.059361120507121085,0.07441789292879403,-0.08176759810447692
1772044438599700500,7.717700439453125,0.04762918165922165,0.1386301067288965,-0.028551282228995112
1772044438609686300,7.727686279296875,0.06498246752023697,0.14623831671029328,0.08673312982367351
1772044438619672300,7.73767236328125,0.18561200346052645,-0.019961276402324438,0.3000012933043763
1772044438629657600,7.74765771484375,0.1869739394634962,-0.12250753170661627,0.2760004957202822
1772044438639643400,7.757643310546875,0.10231821870207786,-0.10103270893618464,0.09990268199294805
1772044438649629400,7.76762939453125,0.009366378760337829,-0.03358399743288755,-0.046103926587011665
1772044438659615500,7.777615478515625,-0.10276420890390872,-0.06888619696050882,-0.11482452118964866
1772044438669600500,7.7876005859375,-0.27408991285860534,-0.06932166576832532,-0.23035229527782647
1772044438679586300,7.79758642578125,-0.485220388457179,-0.0143112147513777,-0.27424751457311214
1772044438689572400,7.807572265625,-0.6011871932834386,0.009252104730904102,-0.30510665361937134
1772044438699558400,7.817558349609375,-0.5752028571993112,0.022288184979930518,-0.3364000193644315
