time,seconds_elapsed,z,y,x
1772044430950592300,0.06859228515625,0.003771653398871422,0.13545344769954681,-0.007374493405222893
1772044430960578300,0.078578369140625,0.020704299211502075,0.18487904965877533,0.01087375171482563
1772044430970564000,0.088564208984375,0.04076242819428444,0.23226885497570038,0.03090158849954605
1772044430980550400,0.09855029296875,0.04642058163881302,0.2761324346065521,0.05626606568694115
1772044430990535200,0.10853515625,0.0434090793132782,0.2946999967098236,0.0770733505487442
1772044431000521200,0.118521240234375,0.0199413038790226,0.2895781993865967,0.08942002803087234
1772044431010507000,0.128507080078125,-0.002186794765293598,0.2575874626636505,0.07381606101989746
1772044431020493300,0.138493408203125,-0.026072952896356583,0.1865047812461853,0.03949856385588646
1772044431030478600,0.148478515625,-0.014611130580306053,0.09432943910360336,0.020861327648162842
1772044431040463600,0.158463623046875,0.03337929770350456,0.06583307683467865,0.03041568398475647
1772044431050449700,0.16844970703125,0.08854033797979355,0.050950199365615845,0.05323053151369095
1772044431060435700,0.178435791015625,0.13489878177642822,0.035150196403265,0.07004199922084808
1772044431070421800,0.188421875,0.1655120849609375,0.01982388272881508,0.07287035137414932
1772044431080406800,0.19840673828125,0.16663594543933868,0.003922148607671261,0.06330693513154984
1772044431090392600,0.208392578125,0.15388387441635132,-0.02208736352622509,0.04698121175169945
1772044431100378600,0.218378662109375,0.1391827017068863,-0.0614938922226429,0.02370704710483551
1772044431110364700,0.22836474609375,0.11370837688446045,-0.1197996735572815,-0.009037677198648453
1772044431120350700,0.238350830078125,0.03995826095342636,-0.289220929145813,-0.06259597837924957
1772044431130335500,0.24833544921875,-0.11823274940252304,-0.5416409373283386,-0.11419713497161865
1772044431140321800,0.25832177734375,-0.263644814491272,-0.7121239900588989,-0.17135043442249298
1772044431150307600,0.2683076171875,-0.37491247057914734,-0.6556620597839355,-0.18052922189235687
1772044431160293600,0.278293701171875,-0.5096186399459839,-0.5572391152381897,-0.156477153301239
1772044431170279700,0.28827978515625,-0.6245887279510498,-0.512355625629425,-0.11141713708639145
1772044431180264700,0.2982646484375,-0.7267622351646423,-0.4830436110496521,-0.07016929984092712
1772044431190250800,0.308250732421875,-0.7854620218276978,-0.4247600734233856,-0.021237391978502274
1772044431200236500,0.318236572265625,-0.8130912780761719,-0.36258459091186523,0.058958377689123154
1772044431210222800,0.328222900390625,-0.8055096864700317,-0.2927495539188385,0.16948597133159637
1772044431220207600,0.33820751953125,-0.769556999206543,-0.21767185628414154,0.2943389415740967
1772044431230193700,0.348193603515625,-0.6865779161453247,-0.11544415354728699,0.40408676862716675
1772044431240179700,0.3581796875,-0.5554769039154053,-0.019314156845211983,0.48222899436950684
1772044431250165800,0.368165771484375,-0.3840727210044861,0.06073093041777611,0.5255026817321777
1772044431260151600,0.378151611328125,-0.19172832369804382,0.14299863576889038,0.5378584265708923
1772044431270136600,0.388136474609375,-0.007197315338999033,0.17907284200191498,0.5317046046257019
1772044431280123000,0.398122802734375,0.053756050765514374,0.07094771414995193,0.5028047561645508
1772044431290108700,0.408108642578125,-0.004345272667706013,-0.08729507774114609,0.4228639304637909
1772044431300094700,0.4180947265625,-0.08397458493709564,-0.07483387738466263,0.2744408845901489
1772044431310079500,0.42807958984375,-0.16793900728225708,0.11236850172281265,0.0868108868598938
1772044431320065800,0.438065673828125,-0.27897709608078003,0.3036990463733673,-0.11448600888252258
1772044431330051600,0.448051513671875,-0.3641423285007477,0.5097463726997375,-0.3153861165046692
1772044431340037600,0.45803759765625,-0.3764328360557556,0.740218460559845,-0.5121976733207703
1772044431350023700,0.468023681640625,-0.34163525700569153,0.8263771533966064,-0.6453656554222107
1772044431360008700,0.4780087890625,-0.31072741746902466,0.8673898577690125,-0.7352579832077026
1772044431369994800,0.487994873046875,-0.2997017800807953,0.7885987162590027,-0.7809116244316101
1772044431379980500,0.49798046875,-0.30774158239364624,0.6115542054176331,-0.7445445656776428
1772044431389966800,0.507966796875,-0.3330319821834564,0.39003950357437134,-0.6362735033035278
1772044431399951600,0.51795166015625,-0.30222854018211365,0.16047711670398712,-0.510360062122345
1772044431409937700,0.527937744140625,-0.23995541036128998,0.0443447083234787,-0.40841323137283325
1772044431419923700,0.537923828125,-0.1705252081155777,0.006421294994652271,-0.3353813886642456
1772044431429909800,0.54790966796875,-0.12384478002786636,-0.007546277716755867,-0.2694706618785858
1772044431439895600,0.5578955078125,-0.12843181192874908,-0.0386008657515049,-0.19936081767082214
1772044431449880600,0.567880615234375,-0.16163136065006256,-0.147988960146904,-0.13500447571277618
1772044431459867000,0.577866943359375,-0.19367291033267975,-0.2566182315349579,-0.07082069665193558
1772044431469852700,0.587852783203125,-0.18762437999248505,-0.3143080174922943,-0.01910145953297615
1772044431479838700,0.597838623046875,-0.1386065036058426,-0.3143008351325989,0.013494834303855896
1772044431489823500,0.607823486328125,-0.07343986630439758,-0.2973517179489136,0.03039529360830784
1772044431499809800,0.617809814453125,-0.003909527324140072,-0.28447425365448,0.02205081097781658
1772044431509795600,0.627795654296875,0.03885588049888611,-0.20774731040000916,0.0015142058255150914
1772044431519781600,0.63778173828125,0.02539626508951187,-0.13385125994682312,-0.04790500923991203
1772044431529767700,0.647767578125,-0.02489907667040825,-0.03741461783647537,-0.10338063538074493
1772044431539752700,0.657752685546875,-0.04380911588668823,0.039240747690200806,-0.1739133894443512
1772044431549738800,0.66773876953125,-0.025618981570005417,0.08563307672739029,-0.21916191279888153
1772044431559724500,0.677724609375,-0.0020673153921961784,0.08264953643083572,-0.2502303421497345
1772044431569710800,0.6877109375,0.003986275754868984,0.04744449630379677,-0.24882541596889496
1772044431579695600,0.697695556640625,-0.007261585909873247,0.030558990314602852,-0.22828951478004456
1772044431589681700,0.707681640625,-0.014997328631579876,0.029938984662294388,-0.20131030678749084
1772044431599667500,0.71766748046875,-0.0500679649412632,-0.05027862265706062,-0.18123939633369446
1772044431609653800,0.72765380859375,-0.08885280042886734,-0.13037990033626556,-0.161708801984787
1772044431619638800,0.737638671875,-0.13409724831581116,-0.23467329144477844,-0.11905775219202042
1772044431629624600,0.74762451171875,-0.17655494809150696,-0.35058870911598206,-0.06064903736114502
1772044431639611000,0.75761083984375,-0.2089477777481079,-0.4267580509185791,0.008224036544561386
1772044431649596700,0.7675966796875,-0.23932795226573944,-0.49988991022109985,0.058192554861307144
1772044431659582700,0.777582763671875,-0.22053562104701996,-0.6490000486373901,0.05339646711945534
1772044431669567500,0.7875673828125,-0.22345301508903503,-0.7719807624816895,0.022580457851290703
1772044431679553800,0.7975537109375,-0.23772355914115906,-0.7730439305305481,-0.03446445241570473
1772044431689539600,0.80753955078125,-0.24385671317577362,-0.6890364289283752,-0.11295044422149658
1772044431699525600,0.817525634765625,-0.21886959671974182,-0.5812665820121765,-0.19051606953144073
1772044431709510700,0.8275107421875,-0.14706869423389435,-0.4933345913887024,-0.26044610142707825
1772044431719496700,0.83749658203125,-0.13724669814109802,-0.3826461434364319,-0.323825865983963
1772044431729482800,0.847482666015625,-0.23139822483062744,-0.2502841055393219,-0.369739830493927
1772044431739468500,0.857468505859375,-0.3723348379135132,-0.14664001762866974,-0.3703933656215668
1772044431749453800,0.867453857421875,-0.44379767775535583,-0.05181996896862984,-0.33667439222335815
1772044431759439600,0.877439697265625,-0.3914135694503784,0.08441030979156494,-0.32688432931900024
1772044431769425700,0.88742578125,-0.37950044870376587,0.23646721243858337,-0.35021787881851196
1772044431779411500,0.897411376953125,-0.37458744645118713,0.35504767298698425,-0.379206120967865
1772044431789397800,0.907397705078125,-0.30197492241859436,0.3953402638435364,-0.4057309925556183
1772044431799382800,0.9173828125,-0.21053315699100494,0.356626957654953,-0.4252823293209076
1772044431809368600,0.92736865234375,-0.12362676858901978,0.3057876527309418,-0.4382091760635376
1772044431819355000,0.93735498046875,-0.057054124772548676,0.28290095925331116,-0.4399642050266266
1772044431829340700,0.947340576171875,0.016686193645000458,0.2721501588821411,-0.44292786717414856
1772044431839325700,0.95732568359375,0.09046295285224915,0.3308584988117218,-0.473073273897171
1772044431849311500,0.9673115234375,0.20595063269138336,0.3309607207775116,-0.5152572989463806
1772044431859297800,0.9772978515625,0.2579539120197296,0.21615533530712128,-0.48904433846473694
1772044431869283600,0.98728369140625,0.20621517300605774,0.14212897419929504,-0.4030855894088745
1772044431879268600,0.9972685546875,0.15608274936676025,0.11715572327375412,-0.30235153436660767
1772044431889254700,1.007254638671875,0.12241615355014801,0.04051367565989494,-0.202433243393898
1772044431899240700,1.01724072265625,0.09980911016464233,-0.0016074101440608501,-0.16583769023418427
1772044431909226800,1.027226806640625,0.08403031527996063,-0.026427393779158592,-0.1798149198293686
1772044431919211500,1.03721142578125,0.059973448514938354,-0.06858018040657043,-0.21548449993133545
1772044431929197600,1.047197509765625,0.04404143616557121,-0.12060064822435379,-0.23826174437999725
1772044431939183600,1.05718359375,0.03860725462436676,-0.14546817541122437,-0.22283059358596802
1772044431949169700,1.067169677734375,0.055618882179260254,-0.15767553448677063,-0.1852014809846878
1772044431959155500,1.077155517578125,0.10730738192796707,-0.15073373913764954,-0.1314551681280136
1772044431969140700,1.087140625,0.1643962860107422,-0.11266569048166275,-0.06498271971940994
1772044431979126800,1.097126708984375,0.20985165238380432,-0.05369291827082634,-0.0027361223474144936
1772044431989112600,1.107112548828125,0.23422454297542572,-0.01086372323334217,0.03141462802886963
1772044431999099000,1.117098876953125,0.2547367513179779,0.019145043566823006,0.04861332103610039
1772044432009083600,1.127083740234375,0.22679758071899414,0.06610839813947678,0.06984472274780273
1772044432019069700,1.137069580078125,0.24210864305496216,0.11802032589912415,0.05008832365274429
1772044432029055500,1.147055419921875,0.22292852401733398,0.14919616281986237,0.034953854978084564
1772044432039041800,1.157041748046875,0.17955201864242554,0.17985261976718903,0.022574681788682938
1772044432049026800,1.16702685546875,-0.00622475566342473,0.25460514426231384,0.02657015062868595
1772044432059012600,1.1770126953125,-0.019043082371354103,0.31023165583610535,-0.006150778383016586
1772044432068998700,1.18699853515625,0.03320445865392685,0.3114135265350342,-0.06896348297595978
1772044432078984700,1.196984619140625,0.039809100329875946,0.2727009952068329,-0.08505456149578094
1772044432088969700,1.2069697265625,0.05655661225318909,0.24953539669513702,-0.11815787851810455
1772044432098955500,1.21695556640625,0.07121145725250244,0.22882452607154846,-0.16042250394821167
1772044432108941600,1.226941650390625,0.04501127451658249,0.202366903424263,-0.1798173189163208
1772044432118927600,1.236927734375,0.005428442731499672,0.18523798882961273,-0.17012420296669006
1772044432128913700,1.24691357421875,-0.029660940170288086,0.19311290979385376,-0.15095260739326477
1772044432138898700,1.256898681640625,-0.06241409480571747,0.20168083906173706,-0.12345573306083679
1772044432148884700,1.266884765625,-0.07862567901611328,0.22254720330238342,-0.08848883956670761
1772044432158870800,1.276870849609375,-0.08228060603141785,0.23953284323215485,-0.05664249509572983
1772044432168856600,1.286856689453125,-0.06766106933355331,0.23847639560699463,-0.03929683566093445
1772044432178841600,1.296841552734375,-0.039743151515722275,0.22028221189975739,-0.03070068545639515
1772044432188827600,1.30682763671875,-0.010043779388070107,0.1868293732404709,-0.02291146293282509
1772044432198813700,1.316813720703125,0.025814086198806763,0.13695262372493744,-0.018089810386300087
1772044432208799500,1.326799560546875,0.05838746577501297,0.08350370079278946,-0.012230186723172665
1772044432218784500,1.336784423828125,0.08880102634429932,0.05180622264742851,-0.006612780503928661
1772044432228770800,1.346770751953125,0.1114262267947197,0.045651670545339584,-0.0041570644825696945
1772044432238756600,1.356756591796875,0.13179835677146912,0.05143791809678078,-0.006621288135647774
1772044432248742700,1.36674267578125,0.14399972558021545,0.043334756046533585,-0.001054522581398487
1772044432258727400,1.3767275390625,0.1434527188539505,0.03230101242661476,-0.005760860629379749
1772044432268713700,1.386713623046875,0.13670437037944794,0.020236844196915627,-0.009777947328984737
1772044432278699500,1.396699462890625,0.1116568073630333,-0.011038520373404026,-0.00964239239692688
1772044432288685600,1.406685546875,0.07937294244766235,-0.029470771551132202,-0.01952419802546501
1772044432298671600,1.416671630859375,0.04524080827832222,-0.05275079607963562,-0.035317011177539825
1772044432308656600,1.42665673828125,0.013163799419999123,-0.06211138144135475,-0.046516455709934235
1772044432318642700,1.436642578125,-0.017164278775453568,-0.041908904910087585,-0.05840693786740303
1772044432328628700,1.446628662109375,-0.04009266197681427,-0.026934361085295677,-0.08049849420785904
1772044432338614800,1.45661474609375,-0.04791862890124321,-0.028987925499677658,-0.1078486293554306
1772044432348599600,1.466599609375,-0.05429095774888992,-0.027704516425728798,-0.12727198004722595
1772044432358585600,1.476585693359375,-0.05981568619608879,-0.04515114799141884,-0.13606201112270355
1772044432368571600,1.486571533203125,-0.063581682741642,-0.05215553939342499,-0.11386182904243469
1772044432378557700,1.4965576171875,-0.06301895529031754,-0.025488508865237236,-0.06585675477981567
1772044432388542700,1.506542724609375,-0.04979030042886734,-0.004231358412653208,-0.022280529141426086
1772044432398528500,1.516528564453125,-0.02577950619161129,-0.001832383219152689,0.011514185927808285
1772044432408514800,1.526514892578125,0.0018217656761407852,-0.022814450785517693,0.027223706245422363
1772044432418500600,1.53650048828125,0.03831266239285469,-0.04108506441116333,0.029174204915761948
1772044432428486700,1.546486572265625,0.06413359940052032,-0.0758725255727768,0.02125496417284012
1772044432438471700,1.5564716796875,0.08899155259132385,-0.10099118947982788,0.011614320799708366
1772044432448457700,1.566457763671875,0.10293207317590714,-0.1083432212471962,0.005625524558126926
1772044432458443500,1.576443603515625,0.1134563609957695,-0.12107818573713303,0.01166450884193182
1772044432468429600,1.5864296875,0.13130949437618256,-0.12747026979923248,0.00990651547908783
1772044432478414800,1.596414794921875,0.14866586029529572,-0.1426638662815094,0.016036581248044968
1772044432488400600,1.606400634765625,0.15364548563957214,-0.12044847756624222,0.028697660192847252
1772044432498386700,1.61638671875,0.1540454924106598,-0.08008401095867157,0.04395464435219765
1772044432508372700,1.626372802734375,0.1419065296649933,-0.054361868649721146,0.05642835795879364
1772044432518357800,1.636357666015625,0.11798229068517685,-0.020649177953600883,0.06190887838602066
1772044432528343600,1.646343505859375,0.09144554287195206,0.0021572625264525414,0.05819651111960411
1772044432538329600,1.65632958984375,0.07004678249359131,0.00814058631658554,0.047035735100507736
1772044432548315600,1.666315673828125,0.05332142487168312,0.0008110642665997148,0.03660495951771736
1772044432558301700,1.6763017578125,0.040529463440179825,-0.007132346276193857,0.026709187775850296
1772044432568286700,1.68628662109375,0.027293715626001358,-0.01658722385764122,0.02218032069504261
1772044432578272500,1.6962724609375,0.019749779254198074,-0.0298263281583786,0.02320270985364914
1772044432588258800,1.7062587890625,0.015139047056436539,-0.03761306032538414,0.04747868701815605
1772044432598244600,1.71624462890625,0.00690189003944397,-0.04110899195075035,0.07045697420835495
1772044432608229600,1.726229736328125,-0.00296026561409235,-0.05409170314669609,0.09065014123916626
1772044432618215700,1.736215576171875,-0.01165681891143322,-0.06414832919836044,0.09563557803630829
1772044432628201700,1.74620166015625,-0.018715253099799156,-0.05716542899608612,0.09199623018503189
1772044432638187500,1.7561875,-0.019709676504135132,-0.04381207004189491,0.0819539800286293
1772044432648173600,1.766173583984375,-0.013479231856763363,-0.030125034973025322,0.0636664628982544
1772044432658158800,1.776158935546875,0.001682143658399582,-0.017015358433127403,0.052707817405462265
1772044432668144600,1.78614453125,0.025471266359090805,-0.024097351357340813,0.04819300025701523
1772044432678130700,1.796130615234375,0.054950863122940063,-0.037534862756729126,0.04097636789083481
1772044432688116500,1.806116455078125,0.08955635875463486,-0.06713976711034775,0.040206536650657654
1772044432698101800,1.816101806640625,0.12527760863304138,-0.11758243292570114,0.04760293290019035
1772044432708087800,1.826087890625,0.1177690327167511,-0.1459251493215561,0.044619910418987274
1772044432718073600,1.836073486328125,-0.007384879514575005,-0.02529698982834816,-0.02701912261545658
1772044432728059600,1.8460595703125,0.09443759173154831,-0.1504967361688614,-0.016648098826408386
1772044432738045700,1.856045654296875,0.13210400938987732,-0.24357421696186066,0.0018209217814728618
1772044432748030700,1.86603076171875,0.09627097845077515,-0.2606678605079651,-0.012963805347681046
1772044432758016500,1.8760166015625,0.08999311178922653,-0.2127983570098877,-0.03074946254491806
1772044432768002800,1.8860029296875,0.08728355169296265,-0.1470211297273636,-0.04979613423347473
1772044432777988600,1.895988525390625,0.08016811311244965,-0.09771403670310974,-0.06981991231441498
1772044432787973600,1.9059736328125,0.07954535633325577,-0.06753495335578918,-0.056654930114746094
1772044432797959700,1.915959716796875,0.07136864960193634,-0.03385661914944649,-0.03417705371975899
1772044432807945700,1.92594580078125,0.06772880256175995,-0.0014617850538343191,-0.009632188826799393
1772044432817931800,1.935931884765625,0.06820790469646454,0.012922214344143867,0.013948771171271801
1772044432827916500,1.94591650390625,0.06486202776432037,0.012465963140130043,0.029651328921318054
1772044432837902600,1.955902587890625,0.057222217321395874,0.018210401758551598,0.034046076238155365
1772044432847888600,1.965888671875,0.04921077936887741,0.01201718021184206,0.028059663251042366
1772044432857874700,1.975874755859375,0.03801325336098671,0.02696550264954567,0.012732107192277908
1772044432867860500,1.985860595703125,0.026020241901278496,0.05026914179325104,0.0016385093331336975
1772044432877845800,1.995845703125,0.014299668371677399,0.07192756235599518,-0.0011343739461153746
1772044432887831800,2.005831787109375,0.012288019992411137,0.07811083644628525,0.008297836408019066
1772044432897817600,2.015817626953125,0.01296659279614687,0.08014815300703049,0.024546047672629356
1772044432907803600,2.0258037109375,0.019422687590122223,0.08072910457849503,0.03976822271943092
1772044432917789700,2.035789794921875,0.026528004556894302,0.0769743099808693,0.0474700853228569
1772044432927774700,2.045774658203125,0.03181048482656479,0.06606967002153397,0.043215248733758926
1772044432937760500,2.055760498046875,0.04181278496980667,0.054169073700904846,0.04149511083960533
1772044432947746800,2.065746826171875,0.05442897975444794,0.04218147695064545,0.03181791678071022
1772044432957732600,2.075732666015625,0.06723691523075104,0.02703581005334854,0.01629701443016529
1772044432967717600,2.085717529296875,0.07767293602228165,0.010898524895310402,-0.0031108655966818333
1772044432977703700,2.09570361328125,0.07839465141296387,0.0009191284771077335,-0.018095141276717186
1772044432987689700,2.105689697265625,0.07742717862129211,-0.007046279031783342,-0.02636810392141342
1772044432997675800,2.11567578125,0.07244866341352463,-0.009352310560643673,-0.031382836401462555
1772044433007661600,2.12566162109375,0.0638568252325058,-0.0036261435598134995,-0.035060983151197433
1772044433017646600,2.135646484375,0.053858254104852676,0.009501377120614052,-0.03503940999507904
1772044433027633700,2.145633544921875,0.04897887259721756,0.01439877413213253,-0.03341799974441528
1772044433037619700,2.15561962890625,0.03909561038017273,0.023472696542739868,-0.026935331523418427
1772044433047605500,2.16560546875,0.03334073722362518,0.030046867206692696,-0.013876400887966156
1772044433057591600,2.175591552734375,0.030691156163811684,0.03409114480018616,-0.003577424678951502
1772044433067576600,2.18557666015625,0.02390046790242195,0.04044840857386589,0.011615402065217495
1772044433077562600,2.195562744140625,0.014384192414581776,0.04544849321246147,0.02755974605679512
1772044433087548400,2.20554833984375,0.0048066116869449615,0.03634650260210037,0.03640848398208618
1772044433097534700,2.21553466796875,-0.0008912207558751106,0.035949692130088806,0.043585438281297684
1772044433107520500,2.2255205078125,-0.005412789527326822,0.03595828264951706,0.05306621268391609
1772044433117505500,2.235505615234375,-0.0023496216163039207,0.03469434753060341,0.05732087790966034
1772044433127491600,2.24549169921875,0.004633773118257523,0.0316590741276741,0.06333164870738983
1772044433137477600,2.2554775390625,0.0041770413517951965,0.027030766010284424,0.06284429132938385
1772044433147463700,2.265463623046875,0.00479297898709774,0.028107287362217903,0.06046174466609955
1772044433157449500,2.275449462890625,0.0029873549938201904,0.02761353738605976,0.05468268319964409
1772044433167434800,2.285434814453125,-0.003991937264800072,0.015347657725214958,0.04674234986305237
1772044433177420500,2.295420654296875,-0.008092937991023064,0.020447611808776855,0.039332903921604156
1772044433187406600,2.305406494140625,-0.015102910809218884,0.036331769078969955,0.029348179697990417
1772044433197392400,2.315392333984375,-0.016601737588644028,0.04831039905548096,0.0196090005338192
1772044433207377700,2.325377685546875,-0.017798351123929024,0.05246828868985176,0.008580438792705536
1772044433217363700,2.33536376953125,-0.01638687588274479,0.05241928622126579,0.0021121527533978224
1772044433227349500,2.345349609375,-0.009458131156861782,0.0503699816763401,0.002668818924576044
1772044433237335800,2.355335693359375,0.006384480744600296,0.024556227028369904,0.002109022345393896
1772044433247321600,2.365321533203125,0.016657518222928047,-0.014106960967183113,0.011356023140251637
1772044433257306600,2.375306640625,0.023216886445879936,-0.02521420642733574,0.021923178806900978
1772044433267292400,2.38529248046875,0.024096744135022163,-0.022387990728020668,0.02431122027337551
1772044433277278700,2.39527880859375,0.020065782591700554,-0.012032288126647472,0.01767675206065178
1772044433287264500,2.405264404296875,0.013508704490959644,0.006588499061763287,0.016460729762911797
1772044433297250600,2.41525048828125,0.0037831058725714684,0.02504953183233738,0.005037367343902588
1772044433307235600,2.425235595703125,-0.0061338115483522415,0.042308732867240906,-0.0026264390908181667
1772044433317221600,2.4352216796875,-0.01172511838376522,0.05526794120669365,-0.013201318681240082
1772044433327207700,2.445207763671875,-0.016342613846063614,0.060545582324266434,-0.024939293041825294
1772044433337193500,2.455193359375,-0.015521296299993992,0.06479305773973465,-0.02581467293202877
1772044433347179800,2.4651796875,-0.01489018090069294,0.062101203948259354,-0.019109180197119713
1772044433357164500,2.47516455078125,-0.015138654038310051,0.06116776540875435,-0.009396099485456944
1772044433367150600,2.485150634765625,-0.011298641562461853,0.04870417341589928,-0.0037320887204259634
1772044433377136400,2.495136474609375,-0.012414240278303623,0.02861674875020981,0.000833634752780199
1772044433387122700,2.505122802734375,-0.00879308208823204,0.008816693909466267,0.0035472046583890915
1772044433397108500,2.5151083984375,-0.00999736413359642,0.006711997557431459,0.005557358264923096
1772044433407094500,2.525094482421875,-0.005953727290034294,0.01060381717979908,0.008416103199124336
1772044433417079800,2.535079833984375,-0.008830473758280277,0.00985786598175764,0.016243932768702507
1772044433427065600,2.545065673828125,-0.011080952361226082,0.011910239234566689,0.017452849075198174
1772044433437051600,2.5550517578125,-0.011123296804726124,0.01498379372060299,0.01683712564408779
1772044433447037700,2.56503759765625,-0.011273123323917389,0.009194827638566494,0.011785999871790409
1772044433457023700,2.575023681640625,-0.011712544597685337,-0.003366504330188036,0.0038926564157009125
1772044433467008500,2.585008544921875,-0.007172232959419489,-0.009201792068779469,0.002965320600196719
1772044433476994600,2.59499462890625,-0.0051690032705664635,-0.014983247965574265,0.0051312693394720554
1772044433486980600,2.604980712890625,-0.004129144363105297,-0.010903765447437763,0.018713362514972687
1772044433496966700,2.614966552734375,-0.006293228827416897,-0.006602226756513119,0.03253303840756416
1772044433506952400,2.624952392578125,-0.007655538618564606,-0.001966587034985423,0.03252335637807846
1772044433516937500,2.6349375,-0.009152235463261604,-0.005313115194439888,0.027914220467209816
1772044433526923800,2.644923828125,-0.011368625797331333,0.002538025612011552,0.010958515107631683
1772044433536909600,2.65490966796875,-0.01170977670699358,0.013301190920174122,-0.002065407345071435
1772044433546895600,2.6648955078125,-0.005834633484482765,0.017312249168753624,-0.013264941051602364
1772044433556881700,2.674881591796875,-0.00447748601436615,0.016717566177248955,-0.02208746038377285
1772044433566866700,2.68486669921875,-0.002103702165186405,0.01755889318883419,-0.022896505892276764
1772044433576852500,2.6948525390625,-0.000598483718931675,0.013366279192268848,-0.024837950244545937
1772044433586838500,2.704838623046875,-0.0009565185755491257,0.007911822758615017,-0.017672941088676453
1772044433596824600,2.714824462890625,-0.003492646850645542,0.007408752106130123,-0.005915352143347263
1772044433606810600,2.724810546875,-0.004771336913108826,0.013928666710853577,-0.0018326868303120136
1772044433616795600,2.734795654296875,-0.006214770022779703,0.009746705181896687,0.007606621365994215
1772044433626781400,2.744781494140625,-0.006148504093289375,0.013174264691770077,0.007463858462870121
1772044433636767700,2.754767822265625,-0.0011300435289740562,0.012245620600879192,0.007824450731277466
1772044433646753500,2.76475341796875,-0.0015763770788908005,0.007249000482261181,0.003091806545853615
1772044433656739600,2.774739501953125,-0.00023201387375593185,0.006625288166105747,0.0032755646388977766
1772044433666724600,2.784724609375,0.00031679216772317886,0.00023918489750940353,0.0020039028022438288
1772044433676710700,2.794710693359375,-0.00008880719542503357,0.0011079080868512392,0.0005823073443025351
1772044433686696400,2.804696533203125,0.00209973007440567,0.008373793214559555,-0.0028744249138981104
1772044433696682800,2.814682861328125,-0.00026275962591171265,0.0179036483168602,-0.005076859146356583
1772044433706668500,2.82466845703125,-0.004434289410710335,0.02173098362982273,-0.0015853696968406439
1772044433716654600,2.834654541015625,-0.005905952304601669,0.03218575567007065,-0.002639448968693614
1772044433726639600,2.8446396484375,-0.00760637316852808,0.03947784751653671,-0.004919386934489012
1772044433736625700,2.854625732421875,-0.003618289716541767,0.031597550958395004,-0.007599592674523592
1772044433746611700,2.86461181640625,-0.003524712286889553,0.027221746742725372,-0.009330215863883495
1772044433756597500,2.874597412109375,-0.004089568741619587,0.025692826136946678,-0.009586944244801998
1772044433766583800,2.884583740234375,-0.0036230282858014107,0.018196187913417816,-0.008168363943696022
1772044433776568600,2.894568603515625,-0.001615004613995552,0.017296837642788887,-0.014215338043868542
1772044433786554600,2.9045546875,0.00026103947311639786,0.007878783158957958,-0.0131720881909132
1772044433796540400,2.91454052734375,0.0029132813215255737,0.0029982749838382006,-0.0112460907548666
1772044433806526700,2.924526611328125,0.006020544096827507,-0.0010142577812075615,-0.012460314668715
1772044433816512500,2.934512451171875,0.006145978346467018,0.0015935094561427832,-0.013041683472692966
1772044433826497500,2.94449755859375,0.008160444907844067,0.001030889805406332,-0.014749419875442982
1772044433836483600,2.954483642578125,0.0067420462146401405,0.01734701171517372,-0.01480135228484869
1772044433846469600,2.9644697265625,0.004493751563131809,0.025171183049678802,-0.012729492038488388
1772044433856455700,2.97445556640625,0.0035483287647366524,0.027734477072954178,-0.007162153720855713
1772044433866441500,2.98444140625,0.004911491647362709,0.022216280922293663,-0.00497985165566206
1772044433876427800,2.994427734375,0.009802388027310371,0.012136218138039112,-0.010011095553636551
1772044433886412500,3.00441259765625,0.010437394492328167,0.009801017120480537,-0.010078049264848232
1772044433896398600,3.014398681640625,0.01021661888808012,0.009116584435105324,-0.012265569530427456
1772044433906384400,3.02438427734375,0.005741984583437443,0.015160629525780678,-0.01854444295167923
1772044433916370700,3.03437060546875,0.0028702979907393456,0.02534721978008747,-0.01442160364240408
1772044433926356500,3.0443564453125,-0.0028222203254699707,0.03533691540360451,-0.011894522234797478
1772044433936341500,3.054341552734375,-0.004656339064240456,0.04317033663392067,-0.007681668270379305
1772044433946327800,3.064327880859375,-0.005700139328837395,0.043475233018398285,-0.006535138003528118
1772044433956313600,3.074313720703125,-0.001843615435063839,0.035290539264678955,-0.007840353064239025
1772044433966299600,3.084299560546875,-0.002725273370742798,0.032966166734695435,-0.006341504864394665
1772044433976285700,3.09428564453125,0.0016870517283678055,0.020093780010938644,-0.007309030741453171
1772044433986270700,3.104270751953125,0.006382200866937637,0.014750855974853039,-0.008599529974162579
1772044433996256500,3.114256591796875,0.003276156261563301,0.013356424868106842,-0.008467436768114567
1772044434006242600,3.12424267578125,0.0005772067233920097,0.014694451354444027,-0.01184355653822422
1772044434016228600,3.134228515625,0.0014222273603081703,0.012032088823616505,-0.01559861283749342
1772044434026214100,3.144214111328125,-0.0001050001010298729,0.008307072333991528,-0.01883411966264248
1772044434036199200,3.15419921875,-0.001964419148862362,0.011677835136651993,-0.021302605047822
1772044434046185000,3.16418505859375,-0.006903498433530331,0.016223320737481117,-0.022499840706586838
1772044434056171000,3.1741708984375,-0.010264141485095024,0.02159012295305729,-0.022256428375840187
1772044434066157000,3.184156982421875,-0.01570153795182705,0.02647480182349682,-0.022486044093966484
1772044434076143000,3.19414306640625,-0.016506610438227654,0.031439200043678284,-0.017784766852855682
1772044434086129000,3.20412890625,-0.020926490426063538,0.03520975634455681,-0.019942160695791245
1772044434096114200,3.2141142578125,-0.021197866648435593,0.039043910801410675,-0.021255366504192352
1772044434106100000,3.224099853515625,-0.015536949038505554,0.041017256677150726,-0.017162589356303215
1772044434116086000,3.2340859375,-0.013362743891775608,0.04084495082497597,-0.010373394005000591
1772044434126071800,3.24407177734375,-0.007738206069916487,0.043022509664297104,0.00048090890049934387
1772044434136058000,3.25405810546875,-0.01054011844098568,0.03895453363656998,0.002948327688500285
1772044434146043100,3.264043212890625,-0.003971206024289131,0.029021192342042923,0.0029644181486219168
1772044434156029000,3.27402880859375,0.0002094237133860588,0.019035404548048973,-0.0006415017414838076
1772044434166015200,3.28401513671875,0.001354321837425232,0.006498929113149643,-0.00374015886336565
1772044434176001000,3.2940009765625,0.002135426737368107,0.00313562317751348,-0.004066396038979292
1772044434185987000,3.303987060546875,0.0006468687206506729,0.004673295188695192,-0.007872073911130428
1772044434195973000,3.31397314453125,0.00005990825593471527,0.014732588082551956,-0.009908859618008137
1772044434205958100,3.323958251953125,-0.003845059312880039,0.02301928400993347,-0.013044079765677452
1772044434215944000,3.33394384765625,-0.00011636782437562943,0.02144242636859417,-0.01837865822017193
1772044434225930000,3.343929931640625,0.0007265480235219002,0.015723301097750664,-0.02115277573466301
1772044434235916000,3.353916015625,0.00433566328138113,0.0060467044822871685,-0.027436237782239914
1772044434245902000,3.363902099609375,0.00485813245177269,-0.0030614109709858894,-0.026940977200865746
1772044434255887000,3.37388720703125,0.0035388022661209106,-0.004642263520509005,-0.021409858018159866
1772044434265873000,3.383872802734375,-0.00324107613414526,0.0028192915488034487,-0.012265292927622795
1772044434275859200,3.393859130859375,-0.005678934045135975,0.007954931817948818,-0.0043596988543868065
1772044434285845000,3.403844970703125,-0.010392414405941963,0.0009798635728657246,-0.006582955829799175
1772044434295831000,3.4138310546875,-0.010362586937844753,0.005940267350524664,-0.007975522428750992
1772044434305817000,3.423817138671875,-0.01754758134484291,0.011796984821557999,-0.012062824331223965
1772044434315802000,3.433802001953125,-0.011760798282921314,0.014412475749850273,-0.012421817518770695
1772044434325788000,3.443787841796875,-0.012208578176796436,0.019872542470693588,-0.008321377448737621
1772044434335774000,3.45377392578125,-0.013683703728020191,0.017334548756480217,-0.002499174792319536
1772044434345760000,3.463760009765625,-0.016975056380033493,0.019591594114899635,0.006058310158550739
1772044434355746000,3.47374609375,-0.021027054637670517,0.01979532651603222,0.010743875056505203
1772044434365731000,3.48373095703125,-0.02320631593465805,0.008490563370287418,0.012421865947544575
1772044434375716900,3.493716796875,-0.019008642062544823,0.000986308790743351,0.005284327082335949
1772044434385703200,3.503703125,-0.012325167655944824,0.0015433545922860503,-0.007509369403123856
1772044434395689000,3.51368896484375,-0.008777037262916565,0.003008625702932477,-0.014320670627057552
1772044434405675000,3.523675048828125,-0.004400460049510002,0.008174518123269081,-0.012101933360099792
1772044434415660000,3.533659912109375,-0.003069145604968071,0.017582133412361145,-0.0032013822346925735
1772044434425646000,3.54364599609375,-0.004164611920714378,0.014965986832976341,0.0006480591837316751
1772044434435631900,3.5536318359375,-0.007293826434761286,0.023406341671943665,-0.0013487793039530516
1772044434445618200,3.5636181640625,-0.005690706893801689,0.025730537250638008,-0.002510212594643235
1772044434455604000,3.57360400390625,-0.007235073950141668,0.015559658408164978,-0.011275740340352058
1772044434465589000,3.583589111328125,-0.004046900197863579,0.004849169868975878,-0.022728901356458664
1772044434475575000,3.593574951171875,-0.0002537602558732033,-0.004014096222817898,-0.03011384792625904
1772044434485561000,3.60356103515625,-0.00014264602214097977,-0.003139672800898552,-0.02635139226913452
1772044434495547100,3.613547119140625,-0.0006579672917723656,0.0005269674584269524,-0.021431736648082733
1772044434505533000,3.623532958984375,-0.0036234473809599876,0.0033881617709994316,-0.013616038486361504
1772044434515519200,3.633519287109375,-0.004677793011069298,-0.0001865995000116527,-0.008035916835069656
1772044434525504000,3.64350390625,-0.002635585144162178,-0.0010062865912914276,-0.008148401975631714
1772044434535490000,3.653489990234375,0.004562939517199993,-0.006504649296402931,-0.011066161096096039
1772044434545475800,3.663475830078125,0.003552699461579323,-0.005395921412855387,-0.011078174225986004
1772044434555462100,3.673462158203125,0.004968168213963509,0.0016183124389499426,-0.006288212724030018
1772044434565448000,3.683447998046875,0.0026332149282097816,0.00752151058986783,0.00007084384560585022
1772044434575433000,3.693432861328125,-0.0025490308180451393,0.014628155156970024,0.0071694995276629925
1772044434585419000,3.7034189453125,-0.008916265331208706,0.02293698862195015,0.011423120275139809
1772044434595405000,3.713405029296875,-0.01408892311155796,0.021762534976005554,0.0073602027259767056
1772044434605391000,3.72339111328125,-0.012462643906474113,0.012637532316148281,-0.0026523065753281116
1772044434615377000,3.733376953125,-0.005097672343254089,-0.00617557018995285,-0.006341850385069847
1772044434625362200,3.743362060546875,-0.001726270653307438,-0.023312443867325783,-0.009952602908015251
1772044434635348000,3.753347900390625,0.0036834096536040306,-0.025375595316290855,-0.010818131268024445
1772044434645334000,3.763333984375,0.002392253838479519,-0.0192052461206913,-0.011973489075899124
1772044434655319800,3.77331982421875,0.0007466860115528107,-0.004441746044903994,-0.01026240736246109
1772044434665306000,3.78330615234375,-0.0025833919644355774,0.012701625004410744,-0.010142707265913486
1772044434675292000,3.7932919921875,-0.002573004923760891,0.019328368827700615,-0.008674239739775658
1772044434685277000,3.80327685546875,-0.0047611091285943985,0.016998883336782455,-0.007391610182821751
1772044434695263200,3.81326318359375,-0.003469209186732769,0.01374902855604887,-0.006509571336209774
1772044434705249000,3.8232490234375,-0.002728366293013096,0.008501783944666386,-0.008092503994703293
1772044434715235000,3.833235107421875,-0.005758245009928942,0.015704570338129997,-0.011296020820736885
1772044434725221000,3.84322119140625,-0.006698446813970804,0.01731148548424244,-0.013012920506298542
1772044434735206100,3.8532060546875,-0.004642220214009285,0.013306357897818089,-0.01246138010174036
1772044434745192000,3.86319189453125,-0.002714843489229679,0.01099918968975544,-0.010214719921350479
1772044434755178000,3.873177978515625,0.0020708562806248665,0.004944759886711836,-0.003079312387853861
1772044434765164000,3.8831640625,0.006457357667386532,0.005239040125161409,0.00003291899338364601
1772044434775150000,3.893150146484375,0.002401895821094513,0.008364791981875896,0.0010763455647975206
1772044434785135000,3.903135009765625,0.0010749977082014084,0.006793313194066286,-0.002783730160444975
1772044434795121000,3.913120849609375,-0.002460349351167679,0.00666814437136054,-0.007637607865035534
1772044434805107200,3.923107177734375,-0.004749177955091,0.013503821566700935,-0.011156600899994373
1772044434815093000,3.933093017578125,-0.0050434572622179985,0.007858986034989357,-0.010720641352236271
1772044434825079000,3.9430791015625,-0.00628320500254631,0.007289674133062363,-0.0046702236868441105
1772044434835063800,3.953063720703125,-0.007743416354060173,0.0075898123905062675,0.002487288322299719
1772044434845050000,3.963050048828125,-0.008371129631996155,0.010976908728480339,0.004793722648173571
1772044434855036000,3.973035888671875,-0.008366336114704609,0.01464967429637909,0.002812596969306469
1772044434865022000,3.98302197265625,-0.008399414829909801,0.007443142123520374,-0.0007009226828813553
1772044434875008000,3.993008056640625,-0.007358118891716003,0.009530528448522091,-0.0035118889063596725
1772044434884994000,4.002994140625,-0.008250171318650246,0.006238097324967384,-0.006346330977976322
1772044434894979000,4.01297900390625,-0.005166497081518173,-0.00022006832296028733,-0.003946290351450443
1772044434904964900,4.02296484375,-0.001451069489121437,-0.010846773162484169,-0.003242269391193986
1772044434914951200,4.032951171875,0.004602296277880669,-0.01855129934847355,0.0011008135043084621
1772044434924937000,4.04293701171875,0.001727154478430748,-0.022672805935144424,0.003493725787848234
1772044434934923000,4.052923095703125,-0.0010957969352602959,-0.025192422792315483,0.008881300687789917
1772044434944908000,4.062907958984375,-0.0030824681743979454,-0.01783551089465618,0.01258497592061758
1772044434954894000,4.07289404296875,-0.008325433358550072,-0.009533905424177647,0.00908931065350771
1772044434964880000,4.0828798828125,-0.007889044471085072,-0.006522882729768753,0.003841523779556155
1772044434974866200,4.0928662109375,-0.007045088801532984,-0.009388444013893604,-0.0015401924028992653
1772044434984852000,4.10285205078125,-0.003152032382786274,-0.008817177265882492,0.0006639913190156221
1772044434994837000,4.1128369140625,-0.006463140249252319,-0.0005251586553640664,0.003088533179834485
1772044435004823000,4.122822998046875,-0.009112076833844185,0.012930319644510746,0.003536699339747429
1772044435014809000,4.13280908203125,-0.008045481517910957,0.02610471099615097,0.007203073240816593
1772044435024795100,4.142795166015625,-0.006551444996148348,0.028086457401514053,0.006758789997547865
1772044435034781400,4.152781494140625,-0.0011710608378052711,0.0287245512008667,0.0027352862525731325
1772044435044766500,4.162766357421875,0.0029157744720578194,0.025731850415468216,0.0032485960982739925
1772044435054752300,4.172752197265625,0.004257741384208202,0.014813689514994621,-0.004397871904075146
1772044435064738600,4.182738525390625,0.0010494794696569443,0.005848352797329426,-0.010390233248472214
1772044435074724400,4.192724365234375,-0.0024467185139656067,-0.005961434915661812,-0.014654753729701042
1772044435084710400,4.20271044921875,-0.0028591789305210114,-0.014610032550990582,-0.016304774209856987
1772044435094695400,4.2126953125,-0.004339097999036312,-0.013303219340741634,-0.013350795954465866
1772044435104681500,4.222681396484375,-0.002890932373702526,-0.004704600665718317,-0.01672862470149994
1772044435114667500,4.23266748046875,-0.0046440912410616875,0.003755995538085699,-0.01662023551762104
1772044435124653300,4.2426533203125,-0.0018789349123835564,0.012319391593337059,-0.012214363552629948
1772044435134639600,4.2526396484375,-0.0015713395550847054,0.021319810301065445,-0.006988442502915859
1772044435144624400,4.262624267578125,-0.004370906390249729,0.02382795885205269,0.0010726668406277895
1772044435154610400,4.2726103515625,-0.002860894426703453,0.021751491352915764,0.008788909763097763
1772044435164596200,4.28259619140625,-0.005189616233110428,0.016857028007507324,0.007240934297442436
1772044435174582500,4.29258251953125,-0.00420983973890543,0.010058509185910225,0.00515647791326046
1772044435184568300,4.302568359375,-0.00679486058652401,0.004665997810661793,0.0016479854239150882
1772044435194553300,4.31255322265625,-0.006274212617427111,0.004803150426596403,-0.00564774451777339
1772044435204539400,4.322539306640625,-0.008631965145468712,0.010743225924670696,-0.005407471209764481
1772044435214525400,4.332525390625,-0.004117640666663647,0.010859339497983456,-0.0029594930820167065
1772044435224511500,4.342511474609375,-0.0024134814739227295,0.012396160513162613,-0.000613916665315628
1772044435234497300,4.352497314453125,-0.0011037392541766167,0.006916972808539867,0.0005357700865715742
1772044435244482600,4.362482666015625,-0.001508273184299469,0.0038705826736986637,-0.0005268312525004148
1772044435254468400,4.37246826171875,-0.004712056368589401,0.004414133727550507,-0.00009140442125499249
1772044435264454400,4.382454345703125,-0.009336317889392376,0.0003584239457268268,-0.000952988164499402
1772044435274440400,4.3924404296875,-0.00630803732201457,0.0020961365662515163,0.00020335614681243896
1772044435284426500,4.402426513671875,-0.006565298419445753,0.00602749502286315,0.0008656843565404415
1772044435294411500,4.41241162109375,-0.0059628915041685104,0.010393747128546238,0.0016907317331060767
1772044435304397300,4.422397216796875,-0.005739452317357063,0.018353670835494995,-0.002553547965362668
1772044435314383600,4.432383544921875,-0.00914909690618515,0.019628258422017097,-0.005108318291604519
1772044435324369400,4.442369384765625,-0.00655922619625926,0.011011938564479351,-0.008252792060375214
1772044435334355500,4.45235546875,-0.00667933514341712,0.0030714573804289103,-0.010547904297709465
1772044435344340200,4.46234033203125,-0.003842429257929325,-0.006368079222738743,-0.012117676436901093
1772044435354326500,4.472326416015625,-0.0026836879551410675,-0.015072088688611984,-0.01179463416337967
1772044435364312300,4.482312255859375,-0.0012875525280833244,-0.0129513805732131,-0.0048059425316751
1772044435374298400,4.49229833984375,-0.001337619498372078,-0.009341465309262276,-0.004462660755962133
1772044435384284400,4.502284423828125,-0.0016129910945892334,-0.0049548824317753315,-0.0020116197410970926
1772044435394269400,4.51226953125,-0.00631373655050993,0.004012779798358679,-0.003962385468184948
1772044435404255500,4.52225537109375,-0.00316699780523777,0.0059188734740018845,-0.009901516139507294
1772044435414241300,4.5322412109375,-0.0008838698267936707,0.0066895922645926476,-0.009926550090312958
1772044435424227600,4.5422275390625,0.004566929303109646,0.007088392041623592,-0.007670959457755089
1772044435434213400,4.55221337890625,0.005951239727437496,0.005721923895180225,-0.0007462080102413893
1772044435444198400,4.562198486328125,0.004905633628368378,0.004530230071395636,0.002180056646466255
1772044435454184400,4.572184326171875,0.003497086465358734,-0.0037197102792561054,0.004470908083021641
1772044435464170500,4.58217041015625,-0.0006914306432008743,-0.014243864454329014,0.0026807631365954876
1772044435474156300,4.59215625,-0.0046640681102871895,-0.024407552555203438,0.00015954859554767609
1772044435484142300,4.602142333984375,-0.004204138182103634,-0.036839187145233154,0.003430111100897193
1772044435494127600,4.612127685546875,-0.004607073962688446,-0.05075180530548096,0.00251717958599329
1772044435504113400,4.622113525390625,-0.0031442027539014816,-0.059790752828121185,0.0053148288279771805
1772044435514099500,4.632099365234375,0.0006049955263733864,-0.05874919146299362,0.020128395408391953
1772044435524085500,4.64208544921875,0.0025267861783504486,-0.053522542119026184,0.025523239746689796
1772044435534070500,4.652070556640625,0.0038194842636585236,-0.038928158581256866,0.033515918999910355
1772044435544056300,4.662056396484375,0.003554447554051876,-0.026514999568462372,0.03424887731671333
1772044435554042400,4.67204248046875,0.004628500901162624,-0.014584038406610489,0.03152206540107727
1772044435564028400,4.6820283203125,0.007423595525324345,-0.014386575669050217,0.029835175722837448
1772044435574014500,4.692014404296875,0.006264586932957172,-0.011509030126035213,0.03323070704936981
1772044435583999500,4.70199951171875,0.001979772001504898,-0.009096045978367329,0.03661138191819191
1772044435593985300,4.7119853515625,-0.0006913784891366959,-0.006697069853544235,0.04170281067490578
1772044435603971600,4.7219716796875,-0.001004192978143692,-0.012891547754406929,0.03736261650919914
1772044435613957400,4.731957275390625,-0.0037198178470134735,-0.02066930942237377,0.027741415426135063
1772044435623943400,4.741943359375,-0.0006563840433955193,-0.031241346150636673,0.014514893293380737
1772044435633928200,4.75192822265625,0.002361244522035122,-0.03441210463643074,0.0037599829956889153
1772044435643914500,4.76191455078125,0.000948597677052021,-0.033814262598752975,-0.003607611870393157
1772044435653900300,4.771900390625,-0.002398197539150715,-0.024610113352537155,-0.00628222431987524
1772044435663886300,4.78188623046875,-0.004132500849664211,-0.016221968457102776,-0.006097148172557354
1772044435673872400,4.791872314453125,-0.00672828359529376,-0.010304425843060017,-0.010712672024965286
1772044435683857400,4.801857421875,-0.006835982669144869,-0.005542109254747629,-0.014008361846208572
1772044435693843500,4.811843505859375,-0.0030031614005565643,0.0038681700825691223,-0.017697904258966446
1772044435703829500,4.82182958984375,-0.0015658531337976456,0.0034961265046149492,-0.01904573105275631
1772044435713815600,4.831815673828125,-0.0025525540113449097,0.0036580467130988836,-0.018952252343297005
1772044435723801300,4.84180126953125,-0.0056997183710336685,0.01382933184504509,-0.01530674658715725
1772044435733786400,4.851786376953125,-0.007502944674342871,0.01919480226933956,-0.010485360398888588
1772044435743772400,4.8617724609375,-0.00860303919762373,0.017785126343369484,-0.0071013327687978745
1772044435753758500,4.871758544921875,-0.007739109452813864,0.01811962015926838,-0.004211536608636379
1772044435763744300,4.881744140625,-0.004380383528769016,0.017137782648205757,-0.002190809929743409
1772044435773729300,4.891729248046875,-0.00244852714240551,0.013324135914444923,-0.007239631377160549
1772044435783715600,4.901715576171875,0.0018432633951306343,0.010075203143060207,-0.010854179039597511
1772044435793701400,4.911701416015625,0.0034446213394403458,0.0004295000690035522,-0.006569152697920799
1772044435803687400,4.9216875,0.005759332329034805,-0.0018960990710183978,-0.00233934773132205
1772044435813673500,4.931673583984375,0.00746721588075161,-0.003599989227950573,0.001070030964910984
1772044435823658500,4.941658447265625,0.005288488231599331,-0.008154436945915222,0.006949624978005886
1772044435833644300,4.951644287109375,0.0035832663998007774,0.0007591636385768652,0.008635405451059341
1772044435843630300,4.96163037109375,0.000875682570040226,0.005980485584586859,0.01249999925494194
1772044435853616400,4.971616455078125,0.0031660012900829315,0.00867400597780943,0.01189732551574707
1772044435863602400,4.9816025390625,0.000790940597653389,0.005032825283706188,0.011144302785396576
1772044435873587500,4.99158740234375,0.001710795797407627,0.004041597247123718,0.012178941629827023
1772044435883573500,5.001573486328125,0.0016694087535142899,0.0011090639745816588,0.010164165869355202
1772044435893559600,5.0115595703125,0.002940002828836441,-0.0022590358275920153,0.004914276767522097
1772044435903545300,5.02154541015625,0.003832482732832432,-0.0055936481803655624,-0.0013292240910232067
1772044435913530400,5.0315302734375,0.005238099955022335,-0.005951576866209507,-0.006520790513604879
1772044435923516400,5.041516357421875,0.0036184201017022133,0.0014353401493281126,-0.006336619146168232
1772044435933502500,5.05150244140625,0.001406397670507431,0.007112134248018265,-0.010151064954698086
1772044435943488300,5.06148828125,-0.0013457667082548141,0.014180056750774384,-0.01183379627764225
1772044435953474600,5.071474609375,-0.0006919605657458305,0.016772910952568054,-0.011909697204828262
1772044435963459600,5.08145947265625,-0.002644273452460766,0.012215991504490376,-0.011877458542585373
1772044435973445400,5.0914453125,0.00032381992787122726,0.0060965800657868385,-0.013323556631803513
1772044435983431400,5.101431396484375,0.00023737549781799316,-0.0019904267974197865,-0.014769092202186584
1772044435993417500,5.11141748046875,0.0009761359542608261,-0.005576639901846647,-0.014825550839304924
1772044436003403500,5.121403564453125,0.0018231291323900223,-0.011756290681660175,-0.01358848623931408
1772044436013388300,5.13138818359375,0.001412469893693924,-0.010260126553475857,-0.014023646712303162
1772044436023374300,5.141374267578125,-0.0028920508921146393,-0.008065256290137768,-0.011347848922014236
1772044436033360100,5.151360107421875,-0.0037056468427181244,-0.002330671763047576,-0.007037256844341755
1772044436043346000,5.161345947265625,-0.004348003305494785,0.0030801575630903244,-0.0066178105771541595
1772044436053331000,5.1713310546875,-0.0022129472345113754,-0.004491475876420736,-0.003382868831977248
1772044436063317000,5.18131689453125,-0.0033564968034625053,-0.003871126100420952,0.0018473129021003842
1772044436073303000,5.191302978515625,0.0006387773901224136,-0.007146015297621489,0.00466147530823946
1772044436083288800,5.201288818359375,-0.0013906154781579971,-0.004302050918340683,0.00992959551513195
1772044436093275100,5.211275146484375,-0.0006108414381742477,0.0008639491279609501,0.010807906277477741
1772044436103260200,5.22126025390625,0.0018978649750351906,-0.005962081253528595,0.011247326619923115
1772044436113246000,5.231245849609375,0.0015612412244081497,-0.0012932938989251852,0.014001035131514072
1772044436123232000,5.24123193359375,0.0017193155363202095,0.0010237002279609442,0.011242905631661415
1772044436133218000,5.251218017578125,-0.0008469065651297569,0.0010306243784725666,0.004434267990291119
1772044436143203000,5.261203125,-0.000826764851808548,0.005043180659413338,-0.0016178579535335302
1772044436153188900,5.27118896484375,0.0013887183740735054,0.011547151952981949,-0.005881045944988728
1772044436163175000,5.2811748046875,0.0027511315420269966,0.010892435908317566,-0.014698851853609085
1772044436173161000,5.291160888671875,0.002754594199359417,0.004305639769881964,-0.01580166630446911
1772044436183147000,5.30114697265625,0.0014822417870163918,-0.001938105677254498,-0.011465547606348991
1772044436193132000,5.311132080078125,-0.0016056932508945465,-0.0017969581531360745,-0.01119284052401781
1772044436203117800,5.321117919921875,-0.0015267003327608109,-0.006431868299841881,-0.014951718039810658
1772044436213103000,5.33110302734375,-0.0015613222494721413,-0.005678992718458176,-0.01674695685505867
1772044436223089000,5.3410888671875,0.0019098492339253426,-0.0050962879322469234,-0.020475981757044792
1772044436233075000,5.351074951171875,0.0036701979115605354,-0.0006032688543200493,-0.022966304793953896
1772044436243061000,5.36106103515625,0.005539195612072945,-0.0008396749617531896,-0.02231941930949688
1772044436253046000,5.3710458984375,0.0027524642646312714,0.007372181862592697,-0.016696421429514885
1772044436263032000,5.381031982421875,0.000752435065805912,0.011169853620231152,-0.013356086798012257
1772044436273017900,5.391017822265625,-0.004769362509250641,0.013254576362669468,-0.008930978365242481
1772044436283004200,5.401004150390625,-0.005987702868878841,0.005444698501378298,-0.010647239163517952
1772044436292989000,5.410989013671875,-0.007750182878226042,-0.0043261731043457985,-0.017594894394278526
1772044436302975000,5.42097509765625,-0.006098067853599787,-0.010958458296954632,-0.0188151802867651
1772044436312960800,5.430960693359375,-0.004371274262666702,-0.012240237556397915,-0.01533709280192852
1772044436322947000,5.440947021484375,-0.004366695880889893,-0.014175275340676308,-0.009457884356379509
1772044436332932900,5.450932861328125,0.0009974436834454536,-0.018292788416147232,-0.0035912066232413054
1772044436342918000,5.46091796875,0.0029426338151097298,-0.0097711943089962,0.0036764226388186216
1772044436352904000,5.470904052734375,-0.0017242887988686562,-0.012559523805975914,0.008629103191196918
1772044436362890000,5.480889892578125,-0.003931266255676746,-0.01483564730733633,0.013647833839058876
1772044436372876000,5.4908759765625,0.000046164728701114655,-0.01661117561161518,0.016766129061579704
1772044436382860800,5.50086083984375,0.000031257979571819305,-0.019044414162635803,0.013344631530344486
1772044436392847000,5.51084716796875,-0.0017914092168211937,-0.014446466229856014,0.010185856372117996
1772044436402833000,5.5208330078125,-0.0016474872827529907,-0.0053150709718465805,0.007834842428565025
1772044436412819000,5.53081884765625,0.0011613480746746063,0.002964697079733014,-0.0012481343001127243
1772044436422805000,5.540804931640625,-0.0007640272378921509,0.006719866767525673,-0.00939205102622509
1772044436432790000,5.5507900390625,-0.00033286120742559433,0.009240814484655857,-0.016355950385332108
1772044436442776000,5.560776123046875,0.0008329693228006363,0.003437755163758993,-0.02172251231968403
1772044436452761900,5.570761962890625,0.005704156123101711,-0.003149040974676609,-0.02161971479654312
1772044436462748200,5.580748046875,0.006524852477014065,-0.007513365708291531,-0.014010429382324219
1772044436472733000,5.59073291015625,0.0019785696640610695,-0.004446203354746103,-0.0012754588387906551
1772044436482719000,5.600718994140625,-0.0029489919543266296,0.005131788086146116,0.003614867804571986
1772044436492704800,5.610704833984375,-0.010447388514876366,0.0108543885871768,0.000481658848002553
1772044436502691000,5.620691162109375,-0.010069957002997398,0.01462047640234232,-0.005329545121639967
1772044436512676900,5.6306767578125,-0.00701184943318367,0.011219886131584644,-0.011942440643906593
1772044436522662000,5.640661865234375,0.000031480565667152405,0.004125784616917372,-0.016126658767461777
1772044436532648000,5.65064794921875,0.003507438115775585,-0.001340885879471898,-0.017318155616521835
1772044436542634000,5.660634033203125,0.0032746195793151855,-0.0014791255816817284,-0.013151319697499275
1772044436552620000,5.6706201171875,0.0034248214215040207,-0.0062640272080898285,-0.010961134918034077
1772044436562604800,5.680604736328125,0.003333834931254387,-0.0024459147825837135,-0.00793162640184164
1772044436572591000,5.690591064453125,-0.0033355196937918663,-0.004394017159938812,-0.003957657143473625
1772044436582577000,5.700576904296875,-0.004928410053253174,-0.008659710176289082,-0.0006613433361053467
1772044436592563000,5.71056298828125,-0.003347557969391346,-0.007680465001612902,-0.0025031855329871178
1772044436602548700,5.720548828125,-0.0026619965210556984,-0.01312500610947609,-0.003009041538462043
1772044436612534000,5.730533935546875,-0.002303801476955414,-0.01848994567990303,-0.005241302773356438
1772044436622520000,5.74052001953125,-0.0055824220180511475,-0.015352653339505196,-0.008914667181670666
1772044436632505900,5.750505859375,-0.005154452286660671,-0.008738160133361816,-0.007503991015255451
1772044436642492200,5.7604921875,-0.004727121442556381,-0.012712698429822922,-0.009225151501595974
1772044436652477000,5.770476806640625,-0.0006919000297784805,-0.012360362336039543,-0.011135702952742577
1772044436662463000,5.780462890625,-0.0016218237578868866,-0.017196999862790108,-0.009611496701836586
1772044436672448800,5.79044873046875,0.00004504900425672531,-0.014749822206795216,-0.013959639705717564
1772044436682435000,5.80043505859375,-0.002312813885509968,-0.00605030870065093,-0.010255953297019005
1772044436692420000,5.810420166015625,-0.0035439934581518173,0.008909998461604118,-0.004082479514181614
1772044436702406000,5.820406005859375,-0.004867788404226303,0.010718397796154022,-0.00018859351985156536
1772044436712392000,5.830391845703125,-0.006459027528762817,0.007344438694417477,-0.0005254833959043026
1772044436722378000,5.8403779296875,-0.004605194553732872,0.0011694601271301508,-0.00399012491106987
1772044436732364000,5.850364013671875,-0.005001738667488098,0.0027473829686641693,-0.009778771549463272
1772044436742348800,5.860348876953125,-0.00029416196048259735,-0.0037627427373081446,-0.014994070865213871
1772044436752335000,5.870335205078125,0.0034286705777049065,0.00046715614735148847,-0.014417230151593685
1772044436762321000,5.88032080078125,0.004021107219159603,-0.001600918360054493,-0.01274938229471445
1772044436772307000,5.890306884765625,0.0023800665512681007,0.00005716568557545543,-0.011653757654130459
1772044436782292000,5.9002919921875,-0.0017139585688710213,0.002447547158226371,-0.015471584163606167
1772044436792278000,5.910278076171875,-0.005928943865001202,0.0023340964689850807,-0.016079852357506752
1772044436802264000,5.92026416015625,-0.008839363232254982,-0.008405675180256367,-0.017103195190429688
1772044436812249900,5.930249755859375,-0.011007443070411682,-0.004796825349330902,-0.015321806073188782
1772044436822235000,5.94023486328125,-0.00473894365131855,-0.005615496542304754,-0.011378210969269276
1772044436832221000,5.950220947265625,-0.00036629941314458847,-0.00807146355509758,-0.0011588633060455322
1772044436842207000,5.96020703125,0.006581041030585766,-0.009204919449985027,0.003650791011750698
1772044436852192800,5.97019287109375,0.009906531311571598,-0.010648086667060852,0.0085901552811265
1772044436862179000,5.980178955078125,0.008000124245882034,-0.010658868588507175,0.01257868018001318
1772044436872164000,5.9901640625,0.005310865119099617,-0.004088317044079304,0.011793580837547779
1772044436882150000,6.00014990234375,-0.000904603861272335,0.0022290898486971855,0.0030704010277986526
1772044436892136000,6.010135986328125,-0.0059305215254426,0.005780947860330343,-0.0005309917032718658
1772044436902122000,6.0201220703125,-0.004284115508198738,0.000016635400243103504,-0.005421936046332121
1772044436912107000,6.03010693359375,-0.002987954765558243,0.004153589718043804,-0.001091635785996914
1772044436922092800,6.0400927734375,-0.0030776597559452057,0.008640583604574203,0.004001609515398741
1772044436932078800,6.050078857421875,-0.0037674186751246452,0.0066386861726641655,0.0012439062120392919
1772044436942065000,6.06006494140625,-0.001329505816102028,0.006970090791583061,-0.003139511216431856
1772044436952050000,6.0700498046875,-0.005334900692105293,0.003138867672532797,-0.009549207054078579
1772044436962036000,6.080035888671875,-0.0031041204929351807,0.004936364945024252,-0.0137278838083148
1772044436972022000,6.09002197265625,-0.002624218352138996,0.0001485339307691902,-0.019563402980566025
1772044436982008000,6.100008056640625,0.0016594082117080688,-0.002791444770991802,-0.020842326804995537
1772044436991992800,6.109992919921875,0.0023707393556833267,-0.004119829274713993,-0.019438307732343674
1772044437001979000,6.119978759765625,0.0028892606496810913,-0.004403276368975639,-0.013748666271567345
1772044437011965000,6.12996484375,0.0036911386996507645,-0.006812638137489557,-0.010730771347880363
1772044437021951000,6.139950927734375,0.0041381241753697395,-0.009182549081742764,-0.014407305978238583
1772044437031936800,6.149936767578125,0.004604442976415157,-0.012973825447261333,-0.013334318064153194
1772044437041922000,6.159922119140625,0.004499578848481178,-0.005356184206902981,-0.012934034690260887
1772044437051908400,6.169908447265625,0.004131529480218887,-0.001518036238849163,-0.014526339247822762
1772044437061894100,6.17989404296875,0.0027938345447182655,-0.00179810612462461,-0.008795086294412613
1772044437071880200,6.189880126953125,0.002898496575653553,-0.0008673313423059881,-0.0021949748042970896
1772044437081865200,6.199865234375,-0.0009171962738037109,0.004145470913499594,0.005865515675395727
1772044437091851300,6.209851318359375,-0.002878880128264427,0.004465050064027309,0.009554793126881123
1772044437101837000,6.219837158203125,-0.003179921768605709,0.0052955676801502705,0.012246555648744106
1772044437111823400,6.2298232421875,-0.004460369236767292,0.006729679647833109,0.01013307087123394
1772044437121808400,6.239808349609375,-0.0025510331615805626,0.003880493575707078,0.010582169517874718
1772044437131794200,6.249794189453125,-0.002528928220272064,0.008444353006780148,0.005908854305744171
1772044437141780200,6.2597802734375,0.0018977215513586998,0.0037179328501224518,0.0037526139058172703
1772044437151766300,6.269766357421875,0.004855428822338581,-0.0053312224335968494,-0.0025175323244184256
1772044437161751300,6.279751220703125,0.007370239123702049,-0.01298089325428009,-0.006110864691436291
1772044437171737000,6.289737060546875,0.007260516285896301,-0.014894907362759113,-0.007888258434832096
1772044437181723100,6.29972314453125,0.009957988746464252,-0.015035889111459255,-0.00490147341042757
1772044437191709200,6.309709228515625,0.006722248159348965,-0.014659850858151913,-0.0017011528834700584
1772044437201695200,6.3196953125,0.00046917423605918884,-0.004801790229976177,0.0005263716448098421
1772044437211680300,6.32968017578125,0.00125906802713871,0.004278523847460747,0.00039294734597206116
1772044437221666000,6.339666015625,-0.003772493451833725,0.006804604083299637,0.000286872498691082
1772044437231652400,6.34965234375,-0.0008933497592806816,-0.0007353372639045119,-0.008263738825917244
1772044437241638100,6.35963818359375,0.00072516780346632,-0.008207429200410843,-0.011200684122741222
1772044437251623200,6.369623046875,0.002283116802573204,-0.0054955314844846725,-0.011260605417191982
1772044437261609200,6.379609130859375,0.0018276162445545197,-0.004922362510114908,-0.004693344701081514
1772044437271595300,6.38959521484375,0.0004981663078069687,0.004121732898056507,0.0036079944111406803
1772044437281581000,6.3995810546875,-0.002474473789334297,0.00794239155948162,0.007863502018153667
1772044437291566000,6.409566162109375,-0.005352552514523268,0.014573663473129272,0.007354837842285633
1772044437301552400,6.419552490234375,-0.00516333244740963,0.01766323857009411,0.008821222931146622
1772044437311538200,6.4295380859375,-0.005125515162944794,0.008532589301466942,-0.0012228891719132662
1772044437321524200,6.439524169921875,-0.0027999868616461754,0.00170515151694417,-0.0063570523634552956
1772044437331509000,6.449509033203125,0.000690351240336895,-0.008239357732236385,-0.007614863105118275
1772044437341495300,6.459495361328125,0.0030803345143795013,-0.009036153554916382,-0.005716618150472641
1772044437351481000,6.469481201171875,0.004232151433825493,-0.010011402890086174,0.00021743751130998135
1772044437361467100,6.479467041015625,-0.002829384058713913,-0.003236998338252306,0.0023241592571139336
1772044437371453200,6.489453125,-0.005471240263432264,0.00825081393122673,0.004331117495894432
1772044437381438200,6.499438232421875,-0.01035190187394619,0.014272969216108322,0.004113295115530491
1772044437391424300,6.50942431640625,-0.009178247302770615,0.007954619824886322,-0.0021978639997541904
1772044437401410000,6.51941015625,-0.004514903761446476,-0.00106616981793195,-0.008069691248238087
1772044437411396400,6.529396240234375,-0.0017931535840034485,-0.0008363390807062387,-0.011550975032150745
1772044437421381000,6.539381103515625,0.0018337545916438103,-0.0056976014748215675,-0.01733570732176304
1772044437431367200,6.5493671875,0.004846589639782906,-0.007423063740134239,-0.016038747504353523
1772044437441353200,6.559353271484375,0.0041480520740151405,-0.006533472798764706,-0.0101610217243433
1772044437451339300,6.56933935546875,0.004533943720161915,-0.0038367558736354113,-0.010020140558481216
1772044437461324300,6.57932421875,0.0009277528151869774,-0.0013010745169594884,-0.003367363242432475
1772044437471310000,6.58931005859375,-0.0008709458634257317,0.000833449128549546,0.0020037000067532063
1772044437481296400,6.59929638671875,-0.001607208512723446,-0.004556134343147278,-0.00012267264537513256
1772044437491282200,6.6092822265625,0.00021918769925832748,-0.009839046746492386,-0.00047660665586590767
1772044437501267200,6.61926708984375,-0.0004120785742998123,-0.011484023183584213,-0.0010024115908890963
1772044437511253000,6.6292529296875,-0.0028126519173383713,-0.001262544421479106,0.003541740356013179
1772044437521239300,6.6392392578125,-0.005162625573575497,0.007471558637917042,0.005137772765010595
1772044437531225000,6.64922509765625,-0.009303308092057705,0.007664638105779886,0.005417404696345329
1772044437541210000,6.659210205078125,-0.008824380114674568,0.0013590988237410784,0.00008046161383390427
1772044437551196200,6.669196044921875,-0.006433926522731781,-0.005509992595762014,-0.00407034158706665
1772044437561182200,6.67918212890625,0.00029457826167345047,-0.017773745581507683,-0.00898621417582035
1772044437571168300,6.689168212890625,0.0029992852360010147,-0.021901113912463188,-0.010995302349328995
1772044437581153300,6.6991533203125,0.002152637578547001,-0.021002931520342827,-0.0015307508874684572
1772044437591139300,6.709139404296875,0.0010921666398644447,-0.013398008421063423,0.009519769810140133
1772044437601125000,6.719125,-0.000841180793941021,0.00019160508236382157,0.01604820229113102
1772044437611111200,6.729111083984375,-0.005180269479751587,0.0031788728665560484,0.014625541865825653
1772044437621096200,6.73909619140625,-0.009186001494526863,0.0071943700313568115,0.013306106440722942
1772044437631082200,6.749082275390625,-0.007552418392151594,0.00925379153341055,0.009585936553776264
1772044437641068300,6.759068359375,-0.0057390914298594,0.0045261383056640625,0.002690553665161133
1772044437651054000,6.76905419921875,-0.0006551174446940422,0.0015985255595296621,-0.0005595681723207235
1772044437661040400,6.779040283203125,0.0010980619117617607,-0.004361618775874376,-0.0025647359434515238
1772044437671025200,6.789025146484375,0.0028405673801898956,-0.004134983755648136,-0.0014834923204034567
1772044437681011200,6.79901123046875,0.0009181834757328033,0.006166971288621426,0.002045971341431141
1772044437690997200,6.808997314453125,0.00429853331297636,0.0067589920945465565,0.0036880765110254288
1772044437700983300,6.8189833984375,0.0004921788349747658,0.0037601280491799116,-0.003094566985964775
1772044437710968300,6.82896826171875,0.0013092374429106712,-0.002091902308166027,-0.014777321368455887
1772044437720954000,6.8389541015625,-0.00006170757114887238,-0.007114429958164692,-0.021320626139640808
1772044437730940200,6.848940185546875,0.0007337778806686401,-0.009705686010420322,-0.019358675926923752
1772044437740926200,6.85892626953125,0.0013673445209860802,-0.007020686753094196,-0.00821867398917675
1772044437750911200,6.8689111328125,0.0019825343042612076,0.004592293407768011,-0.0009298683144152164
1772044437760897300,6.878897216796875,0.00016429927200078964,0.003777958219870925,0.007728236727416515
1772044437770883300,6.88888330078125,-0.001994725316762924,0.008233693428337574,0.008651554584503174
1772044437780869000,6.898869140625,-0.003888498991727829,0.002352634212002158,0.00041066925041377544
1772044437790854100,6.908854248046875,0.00012781377881765366,-0.007465375121682882,-0.01056341826915741
1772044437800840200,6.918840087890625,0.0022961031645536423,-0.014507148414850235,-0.021743249148130417
1772044437810826200,6.928826171875,0.006376865319907665,-0.01568719558417797,-0.02386871725320816
1772044437820812300,6.938812255859375,0.005616322159767151,-0.010395384393632412,-0.017802156507968903
1772044437830797300,6.94879736328125,-0.0004948331043124199,-0.0013536869082599878,-0.00990455225110054
1772044437840783000,6.958783203125,-0.004466842859983444,0.012049410492181778,0.0031029563397169113
1772044437850769400,6.968769287109375,-0.00846904143691063,0.02067086100578308,0.004922428168356419
1772044437860755200,6.978755126953125,-0.008174235001206398,0.01756463572382927,0.006972464732825756
1772044437870740200,6.988740234375,-0.006768352352082729,0.01618245616555214,0.0068454318679869175
1772044437880726000,6.99872607421875,-0.0038579804822802544,0.006696746684610844,0.0021159315947443247
1772044437890712300,7.00871240234375,-0.00014473497867584229,-0.0013643759302794933,-0.002616239245980978
1772044437900698000,7.018697998046875,0.004107186570763588,-0.004708272870630026,-0.003304270561784506
1772044437910683100,7.02868310546875,0.003845132887363434,-0.004911738447844982,-0.0007862518541514874
1772044437920669400,7.03866943359375,0.0029293736442923546,-0.003780837869271636,0.0025801449082791805
1772044437930655200,7.0486552734375,0.0016313493251800537,0.0016845010686665773,0.001257885480299592
1772044437940641300,7.058641357421875,0.004780552349984646,0.0016695959493517876,0.0002836291678249836
1772044437950626000,7.0686259765625,0.003073466010391712,0.0021004953887313604,-0.0013544813264161348
1772044437960612400,7.0786123046875,-0.00010720361024141312,0.004894042853266001,-0.0011144091840833426
1772044437970598100,7.08859814453125,0.002360748127102852,0.0021145017817616463,0.00248005916364491
1772044437980584200,7.098584228515625,0.000044615939259529114,0.0025214424822479486,0.0020634671673178673
1772044437990569200,7.1085693359375,-0.0011652586981654167,-0.001440542284399271,-0.00037945038639009
1772044438000555300,7.11855517578125,0.0024549169465899467,-0.004323726519942284,-0.002912002382799983
1772044438010541300,7.128541259765625,0.0040655964985489845,-0.003582834964618087,-0.005798337049782276
1772044438020527000,7.138527099609375,0.0006180275231599808,0.0000012112723197788,-0.0032459229696542025
1772044438030512000,7.14851220703125,0.0002039056271314621,0.0028049873653799295,0.003512647235766053
1772044438040498400,7.15849853515625,-0.00043767504394054413,0.003421239322051406,0.008104912005364895
1772044438050484500,7.168484375,0.0016909893602132797,0.0072122495621442795,0.013298342935740948
1772044438060470300,7.17847021484375,-0.0012161368504166603,0.015179883688688278,0.008549201302230358
1772044438070455300,7.188455322265625,-0.008246615529060364,0.026095382869243622,0.007035194430500269
1772044438080441600,7.198441650390625,-0.008955493569374084,0.01525322999805212,0.007951466366648674
1772044438090427400,7.208427490234375,0.009165986441075802,0.021334558725357056,0.02382097765803337
1772044438100413400,7.218413330078125,0.01639317348599434,0.008256184868514538,0.025263182818889618
1772044438110398500,7.2283984375,0.017333801835775375,0.0003082469920627773,0.016893668100237846
1772044438120384500,7.238384521484375,0.01582489162683487,-0.0025042183697223663,0.0031570347491651773
1772044438130370300,7.248370361328125,0.0024257292971014977,-0.02496478520333767,-0.022129414603114128
1772044438140356400,7.2583564453125,-0.010906144976615906,-0.06578521430492401,-0.04304724559187889
1772044438150341600,7.268341552734375,-0.021478362381458282,-0.11762524396181107,-0.04311488941311836
1772044438160327400,7.278327392578125,-0.06366538256406784,-0.1595730036497116,-0.02716333046555519
1772044438170313500,7.2883134765625,-0.08993586897850037,-0.1924705058336258,-0.004666009917855263
1772044438180299500,7.298299560546875,-0.09676511585712433,-0.22117844223976135,0.03856412321329117
1772044438190284500,7.308284423828125,-0.0983361080288887,-0.2583540380001068,0.07879303395748138
1772044438200270300,7.318270263671875,-0.11899972707033157,-0.31896016001701355,0.0952543243765831
1772044438210256400,7.32825634765625,-0.10986988246440887,-0.36732983589172363,0.08722968399524689
1772044438220242400,7.338242431640625,-0.13198289275169373,-0.3498918116092682,0.07176574319601059
1772044438230227500,7.3482275390625,-0.13947197794914246,-0.27712199091911316,0.05662832781672478
1772044438240213500,7.358213623046875,-0.15480077266693115,-0.20179392397403717,0.037278469651937485
1772044438250199300,7.36819921875,-0.15319941937923431,-0.2105213701725006,0.07009606808423996
1772044438260185600,7.378185546875,-0.10766664892435074,-0.3073345720767975,0.1816919445991516
1772044438270170400,7.38817041015625,-0.06583451479673386,-0.34345129132270813,0.2582905888557434
1772044438280156400,7.398156494140625,-0.07714204490184784,-0.3505282998085022,0.24863788485527039
1772044438290142200,7.40814208984375,-0.08490462601184845,-0.3338633179664612,0.22238071262836456
1772044438300128500,7.41812841796875,-0.06897755712270737,-0.3053332269191742,0.20386630296707153
1772044438310113500,7.428113525390625,-0.05194850638508797,-0.29388001561164856,0.24699966609477997
1772044438320099300,7.438099365234375,-0.03769507259130478,-0.2362574189901352,0.2830866575241089
1772044438330085600,7.448085693359375,-0.04331647604703903,-0.1907690316438675,0.26449647545814514
1772044438340071400,7.458071533203125,-0.050931088626384735,-0.1943763941526413,0.2153300791978836
1772044438350056400,7.468056396484375,-0.044012993574142456,-0.19935651123523712,0.164753720164299
1772044438360042200,7.478042236328125,-0.04540301859378815,-0.18170547485351562,0.12800495326519012
1772044438370028500,7.488028564453125,-0.05149020999670029,-0.1741410344839096,0.11255568265914917
1772044438380014300,7.498014404296875,-0.06145218759775162,-0.16164596378803253,0.10319330543279648
1772044438389999400,7.507999267578125,-0.06755721569061279,-0.15925338864326477,0.09911254048347473
1772044438399985400,7.5179853515625,-0.06502599269151688,-0.13024121522903442,0.09065490961074829
1772044438409971500,7.527971435546875,-0.05920538306236267,-0.11723832786083221,0.08653846383094788
1772044438419957500,7.53795751953125,-0.05247068777680397,-0.08591029793024063,0.07973472028970718
1772044438429942300,7.5479423828125,-0.050445087254047394,-0.037304941564798355,0.07156147807836533
1772044438439928600,7.557928466796875,-0.048329226672649384,0.007109923288226128,0.056282300502061844
1772044438449914400,7.567914306640625,-0.0461406409740448,0.029287662357091904,0.0464661531150341
1772044438459900400,7.577900390625,-0.03557379171252251,0.026982419192790985,0.04851863533258438
1772044438469885400,7.587885498046875,-0.027323585003614426,0.01948002725839615,0.05827619135379791
1772044438479871500,7.59787158203125,-0.02253793179988861,0.004574825055897236,0.060219116508960724
1772044438489857500,7.607857421875,-0.01806887984275818,-0.011625183746218681,0.0632346123456955
1772044438499843300,7.61784326171875,-0.009128902107477188,-0.029289036989212036,0.06618764996528625
1772044438509828400,7.627828369140625,-0.010063670575618744,-0.043487146496772766,0.07172436267137527
1772044438519814400,7.637814453125,-0.00711943069472909,-0.029146606102585793,0.0622805580496788
1772044438529800400,7.647800537109375,-0.0072424691170454025,-0.01927213743329048,0.05221327394247055
1772044438539786200,7.6577861328125,0.0007812455296516418,0.0006859918357804418,0.03230739012360573
1772044438549771300,7.667771240234375,0.00031466037034988403,0.032169878482818604,0.007970890961587429
1772044438559757600,7.677757568359375,-0.006539503578096628,0.0554388165473938,0.0001738159917294979
1772044438569743400,7.687743408203125,-0.011409892700612545,0.07860592007637024,0.007121470756828785
1772044438579729400,7.6977294921875,-0.01626199670135975,0.09166665375232697,0.029111625626683235
1772044438589714400,7.70771435546875,-0.03145160153508186,0.1413697600364685,0.09832850843667984
1772044438599700500,7.717700439453125,-0.045144468545913696,0.03563348948955536,0.08562258630990982
1772044438609686300,7.727686279296875,-0.016905907541513443,-0.08111149817705154,0.03811099752783775
1772044438619672300,7.73767236328125,0.012619003653526306,-0.14877629280090332,-0.008553693071007729
1772044438629657600,7.74765771484375,0.03112131543457508,-0.16414299607276917,-0.03266781568527222
1772044438639643400,7.757643310546875,0.03913169354200363,-0.15789614617824554,-0.04566662013530731
1772044438649629400,7.76762939453125,0.04217435419559479,-0.15312376618385315,-0.05274876579642296
1772044438659615500,7.777615478515625,0.0265091210603714,-0.14067330956459045,-0.037876278162002563
1772044438669600500,7.7876005859375,-0.001134759746491909,-0.11609898507595062,-0.005652561783790588
1772044438679586300,7.79758642578125,-0.016480140388011932,-0.02660905010998249,0.07424502819776535
1772044438689572400,7.807572265625,-0.050124384462833405,0.018927542492747307,0.13665859401226044
1772044438699558400,7.817558349609375,-0.05859482288360596,0.05198332667350769,0.18240411579608917
