time,seconds_elapsed,z,y,x
1772031865758864000,0.07486376953125,-2.4023557405173777,0.4072926607765257,0.11395747429784386
1772031865768812800,0.084812744140625,-2.3634078779637813,0.4372157976143062,-0.008555427703633904
1772031865778762000,0.094761962890625,-2.108914645978808,0.4807889818809926,-0.04922638772279024
1772031865788711000,0.1047109375,-1.6158306845396757,0.5532835785970092,-0.0288229205109179
1772031865798660000,0.11466015625,-1.067359766921401,0.5462466656975448,-0.08085921455528587
1772031865808609000,0.124609130859375,-0.6093517950385808,0.5311845595136284,-0.2376327346095815
1772031865818558000,0.134557861328125,-0.2666109552800655,0.5777215620219707,-0.3628055034700781
1772031865828507000,0.1445068359375,-0.05875614035129547,0.622158377380669,-0.49949342662263657
1772031865838455000,0.154455078125,0.10374620567858218,0.7038201770231127,-0.6371917689267546
1772031865848404000,0.164404052734375,0.06002572189569473,0.7754781767845154,-0.7308625707928091
1772031865858353000,0.174352783203125,-0.06645955433547496,0.8582610894113779,-0.7247219491459429
1772031865868301800,0.1843017578125,-0.27652620009481904,0.9835624165549873,-0.6835282073616981
1772031865878250800,0.194250732421875,-0.6206131937652826,1.1804127301275729,-0.5893468986902386
1772031865888200000,0.204199951171875,-0.9134797032862901,1.3535039824500679,-0.4313512164298445
1772031865898149000,0.214149169921875,-1.121758296585083,1.5125316381067038,-0.2155970265533775
1772031865908098000,0.22409814453125,-1.2727420542567967,1.625951096537709,0.015106831241631879
1772031865918047000,0.234046875,-1.4578484462827443,1.6560297161981463,0.19579762618187813
1772031865927996000,0.243995849609375,-1.7183423799872397,1.640048887734115,0.3869635374424979
1772031865937944800,0.25394482421875,-1.8691823452740906,1.647719860753417,0.5466502780623733
1772031865947893800,0.263893798828125,-1.789161883097887,1.6703391043186187,0.6013583485992625
1772031865957843000,0.273843017578125,-1.4810434439092874,1.6007669709205627,0.5964267008833587
1772031865967792000,0.283792236328125,-0.9174398390889167,1.4777102078333497,0.588874678068608
1772031865977741000,0.293740966796875,-0.2952209636926651,1.3065966853246092,0.5620054489087313
1772031865987690000,0.30368994140625,0.3074912472009659,1.145301961518824,0.5596799285706132
1772031865997639000,0.313638916015625,0.9560966097414493,0.9392892673254013,0.5627498010026291
1772031866007587800,0.323587890625,1.5305997942388057,0.667163055755198,0.5149611544653773
1772031866017536800,0.333536865234375,1.927574913010001,0.36850422656834125,0.460425956277363
1772031866027485000,0.34348486328125,2.261440956917405,0.09164543351829052,0.45862829573825
1772031866037433900,0.353433837890625,2.576015440377593,-0.06118190619349479,0.5095760638935491
1772031866047382800,0.3633828125,2.7031501204282042,-0.22431290551573035,0.4975674635287374
1772031866057332000,0.37333203125,2.7119249630361795,-0.3899246157377958,0.5246102591572329
1772031866067281000,0.383281005859375,2.629541278859973,-0.5172676778420806,0.6252868115995079
1772031866077230000,0.39322998046875,2.3536387636214493,-0.5940282614395022,0.6941377180509268
1772031866087179000,0.403178955078125,1.959154877144098,-0.564919655855,0.7128564470462501
1772031866097128000,0.4131279296875,1.6478630686163902,-0.4721037172526121,0.7404916190773249
1772031866107076900,0.423076904296875,1.5324848773330448,-0.37890053289830683,0.7009368766717612
1772031866117025800,0.43302587890625,1.5741268012762069,-0.2965375992491841,0.4699484389148652
1772031866126975000,0.44297509765625,1.5152899969041347,-0.19132365910559893,0.24781945330947636
1772031866136924000,0.452923828125,1.2539467528939245,-0.08783815018981694,0.2040117296345532
1772031866146873000,0.462873046875,0.9637059157013893,-0.04500000219941139,0.17015183786973356
1772031866156822000,0.472822021484375,0.7432493933528661,-0.07557283511757851,0.08585881294086575
1772031866166771000,0.48277099609375,0.5891612399250269,-0.17272797196805476,0.0011526771664619444
1772031866176720000,0.492719970703125,0.5620797562539577,-0.27401830892711876,-0.0659311465471983
1772031866186668800,0.502668701171875,0.6652227353423833,-0.3545966972470283,-0.14911584490798413
1772031866196617700,0.51261767578125,0.7679343372762203,-0.44269905133098364,-0.24976284246221184
1772031866206567200,0.522567138671875,0.8799018433332443,-0.5070283156394958,-0.2688946092378348
1772031866216516000,0.53251611328125,1.000887353104353,-0.47394233085662124,-0.3001416150905192
1772031866226464500,0.542464599609375,0.9490098663508891,-0.5570441001743078,-0.33263474854677916
1772031866236413400,0.552413330078125,0.8754144687861204,-0.6515911003530025,-0.24162600549682972
1772031866246362400,0.5623623046875,0.7547732424080371,-0.7368550161406398,-0.1928155050985515
1772031866256311300,0.572311279296875,0.520806665623188,-0.8599898129001259,-0.17791005078107117
1772031866266260500,0.582260498046875,0.3111059305667877,-0.8945169364020228,-0.1279928312499076
1772031866276209400,0.59220947265625,0.10930267076194286,-0.8216241341486573,-0.049187297821417446
1772031866286158300,0.602158447265625,-0.2465349664568901,-0.7221765024468302,-0.07104034278709441
1772031866296107500,0.612107421875,-0.7548001304149627,-0.8591869720846415,-0.37327198895942415
1772031866306056400,0.622056396484375,-1.1049001007646322,-1.0598764254286885,-0.68958831111826
1772031866316005400,0.63200537109375,-1.2193699450314044,-1.0005150126606226,-0.8706976693972944
1772031866325954600,0.64195458984375,-1.104174709099531,-0.904143719664216,-0.9764069187771528
1772031866335903500,0.651903564453125,-1.0619465097010135,-0.9967802100464701,-0.9772864050254225
1772031866345852400,0.661852294921875,-1.1204022058010101,-1.1044213773369789,-0.78793696860224
1772031866355801300,0.67180126953125,-1.2394371660262347,-1.171871111753583,-0.41661677129771557
1772031866365750500,0.68175048828125,-1.4056144011765717,-1.1157041111126542,0.13570947004184125
1772031866375699500,0.691699462890625,-1.5552157645791769,-0.900534881517291,0.7268878950081765
1772031866385648400,0.7016484375,-1.7383002953886986,-0.5965633328750729,1.1430934916891158
1772031866395597600,0.71159765625,-2.0968816783577204,-0.195077750942111,1.3545128672316669
1772031866405546500,0.72154638671875,-2.644458862006664,0.3235661836892366,1.3288148007430136
1772031866415495400,0.731495361328125,-3.0695290254056453,0.9331693231403827,1.211317206152901
1772031866425443300,0.741443359375,-2.8830951841682193,1.6105959987565874,0.9965780385378747
1772031866435392300,0.751392333984375,-1.7331196778804063,1.9045462118610739,0.29520233205743135
1772031866445341400,0.761341552734375,-0.4921767834663391,1.6069555964276194,-0.7813681116059422
1772031866455290600,0.77129052734375,-0.17083295200169085,1.633004814441502,-1.2129479491598902
1772031866465239600,0.781239501953125,-0.10893383744955062,1.8151558637931942,-0.922172055242583
1772031866475188500,0.7911884765625,-0.1708972494095564,1.9109245147213338,-0.29219145980365574
1772031866485137400,0.801137451171875,-0.16923136202394962,1.5883189927577972,0.3175212044365704
1772031866495086300,0.81108642578125,0.0029711247652769086,1.15995914016366,0.6800469411171972
1772031866505035500,0.821035400390625,0.24802140562236308,0.7816378684580325,0.845735369837284
1772031866514984400,0.830984375,0.583245293879509,0.2716875278919935,0.9640662734463811
1772031866524933400,0.840933349609375,0.6741115597188473,-0.14732026672810314,1.188299318658933
1772031866534882600,0.850882568359375,0.6059037004113197,-0.3320385362192988,1.3130118130639195
1772031866544831500,0.86083154296875,0.49469315020143984,-0.3327688963204622,1.4342961596511303
1772031866554780400,0.870780517578125,0.42065410052239893,-0.10034019662737846,1.4946072743594645
1772031866564729300,0.880729248046875,0.2752507733315229,0.08761252474039792,1.423749485065043
1772031866574678500,0.890678466796875,0.16041209575235843,0.3407262850657105,1.2708658851213752
1772031866584627500,0.90062744140625,0.13750176028609276,0.5651277456477284,0.9967153281167149
1772031866594576400,0.910576416015625,0.1810346125423908,0.7385501296207309,0.720435942389816
1772031866604525300,0.920525390625,0.28978958629369733,0.8838096644267439,0.5015961345229297
1772031866614473200,0.93047314453125,0.44285599545836446,0.956852396544814,0.3408600675132125
1772031866624422700,0.940422607421875,0.640452451223135,0.9786045018866658,0.17711524714156984
1772031866634371600,0.95037158203125,0.8392945231348276,0.8984981149926781,0.049007922666519876
1772031866644320500,0.960320556640625,1.0174293225824833,0.8067842924132943,0.017535802821069955
1772031866654269400,0.97026953125,1.1688836203753947,0.6952484557718038,0.07392572549767792
1772031866664218400,0.98021826171875,1.3316262049019336,0.5479892715811729,0.12065773912146686
1772031866674167300,0.990167236328125,1.4566735572844742,0.3354059668257832,0.06255429052524268
1772031866684116500,1.000116455078125,1.522568463474512,0.05044394681900739,0.006449833726510405
1772031866694065400,1.0100654296875,1.6144716711461544,-0.16805559624284505,0.10195610739141701
1772031866704014600,1.0200146484375,1.7518600341856478,-0.3171297209009528,0.18061229547709226
1772031866713963500,1.029963623046875,1.8926158278316259,-0.45189796456992626,0.09846453894861042
1772031866723912400,1.039912353515625,1.9320932672172784,-0.5424442046746611,-0.060181570044532416
1772031866733861400,1.049861328125,1.8491729919463396,-0.6219678232446313,-0.1645001687835902
1772031866743810300,1.059810302734375,1.6904034027040005,-0.654438014216721,-0.14920052751675247
1772031866753759500,1.069759521484375,1.4801198993235825,-0.6597951573356986,-0.12578501900732517
1772031866763708400,1.07970849609375,1.1627858880221844,-0.7172209258660673,-0.08415631987191736
1772031866773657600,1.08965771484375,0.834649912199378,-0.7740303160637617,0.015809417419880626
1772031866783606500,1.0996064453125,0.5129699806481599,-0.8195138639964162,0.13972542768493293
1772031866793555500,1.109555419921875,0.20576456465125081,-0.8658619198039174,0.27845965237542986
1772031866803504400,1.11950439453125,-0.03850421043932438,-0.8721769481696188,0.41789939498677847
1772031866813452500,1.12945263671875,-0.13388123170137406,-0.8568919930152594,0.5027942582663149
1772031866823401500,1.1394013671875,-0.11281038662195204,-0.8205015598595142,0.4619998545305803
1772031866833350400,1.149350341796875,-0.07525134807825087,-0.7817588644891977,0.33937278809752314
1772031866843299300,1.15929931640625,-0.018905776000022887,-0.7467262756831944,0.1819762407740578
1772031866853248300,1.169248291015625,0.08731646440327168,-0.7106715042226016,0.025660766685567795
1772031866863197400,1.179197509765625,0.22416940539181232,-0.7153679914757609,-0.12529208439122885
1772031866873146600,1.189146728515625,0.3564695053815842,-0.7720411880731582,-0.23914102028068154
1772031866883095600,1.199095458984375,0.4942816467911005,-0.8466878482565283,-0.32037370779085905
1772031866893044500,1.20904443359375,0.4939490538358688,-0.9576648819714784,-0.3375335169063881
1772031866902993400,1.218993408203125,0.282667771589756,-1.0744582007497547,-0.26368520402647555
1772031866912942300,1.2289423828125,0.044856794336438174,-1.125854041466117,-0.19911643187366423
1772031866922891300,1.238891357421875,-0.16522621803581714,-1.115635722051561,-0.21529808013942092
1772031866932840400,1.24884033203125,-0.40732407882809635,-1.0512456674665211,-0.19783749797903
1772031866942789600,1.25878955078125,-0.6913590471178293,-0.9303034123152494,-0.07231872869245708
1772031866952738600,1.268738525390625,-0.9761626616925001,-0.742455028104782,0.06505593461524695
1772031866962687500,1.2786875,-1.3000959251284598,-0.7015843807950616,0.17077888372689484
1772031866972636400,1.288636474609375,-1.4706518137544393,-0.7914557903781533,0.12437007417548447
1772031866982585300,1.29858544921875,-1.3554559933006762,-0.959823521310091,-0.14242390952128917
1772031866992534300,1.3085341796875,-1.0002619146823883,-1.2188964823007582,-0.45781369141973555
1772031867002483500,1.3184833984375,-0.5455892247021198,-1.4633894215360284,-0.7361928989700972
1772031867012432400,1.328432373046875,-0.23578385533988475,-1.5729931210711598,-0.8455683427073061
1772031867022380300,1.33838037109375,-0.1019417866051197,-1.5573068916395305,-0.7408072608977556
1772031867032329500,1.34832958984375,-0.20294366201162337,-1.443699217160046,-0.46556722815595564
1772031867042278700,1.358278564453125,-0.5084171396493912,-1.2119605455577374,-0.11662815481182187
1772031867052227600,1.3682275390625,-0.968363386118412,-0.9551008767023682,0.13479388956688343
1772031867062176500,1.378176513671875,-1.5698387486934662,-0.5592050776004791,0.193134179126285
1772031867072125400,1.38812548828125,-2.2632044594585894,-0.018197335469722745,0.19838048228193073
1772031867082074400,1.398074462890625,-2.92183086527586,0.6003051497519016,0.23422646983005105
1772031867092023300,1.408023193359375,-3.412731637457013,1.0948115452095866,0.1531776509867981
1772031867101972200,1.41797216796875,-3.3415906473070383,1.5382751511722803,-0.014446339772595091
1772031867111921700,1.427921630859375,-2.773552859431505,1.8972502096340058,-0.3849627555467188
1772031867121870600,1.43787060546875,-1.9547206940889357,2.1315292133688923,-0.8344621345423161
1772031867131819500,1.447819580078125,-1.0104232432126998,2.2164859629034996,-1.2484171758174896
1772031867141768400,1.4577685546875,-0.2610743639409542,2.035167564983666,-1.499114230389893
1772031867151717400,1.46771728515625,0.2716355054438114,1.789032996021211,-1.5753146958865225
1772031867161666300,1.477666259765625,0.608387333920598,1.5088655168145895,-1.5468810669541357
1772031867171615500,1.487615478515625,0.8110808205634356,1.306149526078999,-1.434515063098818
1772031867181564400,1.497564453125,0.8926818299293517,1.1041884453639388,-1.3245824238702655
1772031867191513600,1.507513671875,0.8323936577051877,0.869752789762616,-1.192300882450491
1772031867201462500,1.517462646484375,0.6816384480923414,0.76285279622823,-1.0368914172910153
1772031867211411500,1.527411376953125,0.4710217672348022,0.8191843397811055,-0.8728821007642894
1772031867221359600,1.537359619140625,0.20435469785332677,0.9694272159576416,-0.678372943490371
1772031867231308500,1.54730859375,-0.043916298615932464,1.2568550415560602,-0.4956514007743448
1772031867241257700,1.5572578125,-0.35671208196580406,1.514288126385212,-0.3810768540240824
1772031867251206700,1.56720654296875,-0.626162644585967,1.7309937717676163,-0.26392098554372784
1772031867261155600,1.577155517578125,-0.8213140452861786,1.8777660492241381,-0.14239437289955093
1772031867271104500,1.5871044921875,-0.934304464650154,1.9012781499758362,-0.08681414090432227
1772031867281053400,1.597053466796875,-0.9513163897275924,1.879267685958743,-0.07440510651245713
1772031867291002600,1.607002685546875,-0.8465472707420587,1.853532648460567,-0.04923833388891071
1772031867300951600,1.61695166015625,-0.6080091482579708,1.8117945706665515,0.00022383535113185642
1772031867310900500,1.626900390625,-0.1927121908545494,1.740999617475271,0.059373030140623444
1772031867320849700,1.636849609375,0.32277532557249067,1.6383604962557554,0.09745556283546611
1772031867330798600,1.646798583984375,0.8619038298279047,1.4381605799943207,0.139036459040083
1772031867340747500,1.65674755859375,1.4434861589312553,1.2468246459290384,0.15019857124392874
1772031867350696400,1.666696533203125,1.9267232646167278,0.9804635737568139,0.11436910557234659
1772031867360645600,1.676645751953125,2.301676521193981,0.6869917918190359,0.08633926253472454
1772031867370594600,1.686594482421875,2.5384663387060162,0.4153279370635748,0.10302134373644366
1772031867380543500,1.69654345703125,2.6311943067640065,0.1642220094293356,0.1694700113517232
1772031867390492700,1.70649267578125,2.5323545778274537,-0.07502250775843858,0.20628847892750055
1772031867400441600,1.716441650390625,2.3896739535987375,-0.32242870409190655,0.29242311313506214
1772031867410389800,1.7263896484375,2.3155437185049057,-0.42543724314570425,0.4222814825285226
1772031867420338700,1.736338623046875,2.2110639378547665,-0.4892372228831052,0.4473251036964357
1772031867430287600,1.74628759765625,2.051370219504833,-0.5052545839652419,0.4671222755782306
1772031867440236500,1.756236572265625,1.859571636363864,-0.41360184392333027,0.48820963340103624
1772031867450185500,1.766185546875,1.6200661301523447,-0.3467413075715303,0.49953134748023
1772031867460134400,1.776134521484375,1.303598380291462,-0.3392643958196044,0.5102039500009268
1772031867470083600,1.78608349609375,1.0471586904138326,-0.3162675511136651,0.5180832685412838
1772031867480032800,1.79603271484375,0.825024590241909,-0.31250702953636644,0.519569415445812
1772031867489981700,1.805981689453125,0.6111877782940864,-0.30811843918859955,0.5143567953640594
1772031867499930600,1.8159306640625,0.4179559474796056,-0.3234672533594072,0.5066932019336149
1772031867509879600,1.825879638671875,0.3151420542150736,-0.39221769511103627,0.5111799188936129
1772031867519828500,1.835828369140625,0.40232349406182766,-0.4518475495569408,0.5376913841243833
1772031867529777400,1.84577734375,0.5602046100318432,-0.570529604691267,0.4925785326676443
1772031867539726600,1.8557265625,0.7294102530926465,-0.7408471545167267,0.39105646931193766
1772031867549675500,1.865675537109375,0.8763847751230001,-0.868967776864767,0.2716245821909979
1772031867559624700,1.875624755859375,1.0276952805310486,-0.9159988465003669,0.17716705039404332
1772031867569573600,1.88557373046875,1.104318501484394,-0.9268219999402761,0.023537015997245905
1772031867579522600,1.8955224609375,1.0067723194897173,-0.9362681659385561,-0.10359349933490157
1772031867589471500,1.905471435546875,0.7708242134988308,-0.8330144199520348,-0.13309431910738348
1772031867599420700,1.915420654296875,0.44804654983878134,-0.6654730568416416,-0.11783647115565836
1772031867609368600,1.92536865234375,0.04662438853085041,-0.5336854364186525,-0.09553213875852525
1772031867619317500,1.9353173828125,-0.5058832372575998,-0.426654656111449,-0.08805836881175637
1772031867629266400,1.945266357421875,-1.1710825917243957,-0.29650545054525135,-0.09285743965655564
1772031867639215400,1.95521533203125,-1.7393986120194196,-0.2739474356479943,-0.18931206355486063
1772031867649164800,1.965164794921875,-1.9381378080785274,-0.45433629763275385,-0.3896956292875111
1772031867659113700,1.97511376953125,-1.8270184432834387,-0.6898629633411765,-0.5312440346159041
1772031867669062700,1.985062744140625,-1.6478694983571767,-0.8610540811307728,-0.6341326736170798
1772031867679011600,1.995011474609375,-1.520589856877923,-1.1710554114565253,-0.6822980810448527
1772031867688960500,2.00496044921875,-1.365536657810211,-1.5018446782670913,-0.5610704330809414
1772031867698909400,2.014909423828125,-1.3426432734787463,-1.637143960072845,-0.2242011157043278
1772031867708858400,2.0248583984375,-1.7008225053876638,-1.7573232680276034,0.33185247559528797
1772031867718807600,2.0348076171875,-2.2104981206655503,-1.5683486562661826,1.0040862952761351
1772031867728756700,2.0447568359375,-3.0449235764592886,-1.0740997427009045,1.4753228743053972
1772031867738705700,2.05470556640625,-3.9643776779800652,-0.4197891542561352,1.7177878148443997
1772031867748654600,2.064654541015625,-4.636245842686296,0.3192947899803519,1.7622133781567215
1772031867758603500,2.074603515625,-5.042219675949216,1.0384421538643538,1.6874756786890326
1772031867768552400,2.084552490234375,-4.9538317829221485,1.64806823579967,1.4631681800007819
1772031867778501600,2.094501708984375,-4.422783709269762,2.0360057693734763,1.0703627481296658
1772031867788450600,2.104450439453125,-3.554063769686222,2.218076885356754,0.689541184040904
1772031867798399500,2.1143994140625,-2.5587369733184575,2.229172425997257,0.40027273554448034
1772031867808347400,2.124347412109375,-1.6328981391966342,2.1294734498828647,0.268592119159922
1772031867818296600,2.134296630859375,-0.8269745552659035,1.9175686289109288,0.3361616074986756
1772031867828245800,2.144245849609375,-0.22215280487239358,1.649558474357426,0.6529184034340083
1772031867838194700,2.154194580078125,0.30227263576984403,1.4318255317538975,1.0756427343592048
1772031867848143600,2.1641435546875,0.7325754391252994,1.1557103966780007,1.3590358976140617
1772031867858092500,2.174092529296875,1.2080495095938444,0.8518167355775833,1.5146388395190238
1772031867868041500,2.18404150390625,1.6284943512797354,0.5619917857095599,1.516132292947173
1772031867877990400,2.193990478515625,1.9834131200879812,0.28175825552940365,1.4580572667278349
1772031867887939300,2.203939208984375,2.280835393217206,0.11148118384480475,1.3861781715616583
1772031867897888800,2.213888671875,2.4303648604273795,0.006862579245865344,1.2925231517866254
1772031867907837700,2.223837646484375,2.4965742393940684,0.035412381903827186,1.225060192562267
1772031867917786600,2.23378662109375,2.454502691861987,0.16730419335365296,1.1462277711268514
1772031867927735600,2.243735595703125,2.2358728004187345,0.3533075342193246,1.0971969790413976
1772031867937684500,2.2536845703125,2.0204501805841923,0.4975114224925637,1.0431429519664495
1772031867947633400,2.26363330078125,1.8351649248600006,0.5369450227364897,0.9445553711600602
1772031867957582600,2.27358251953125,1.6546411844491957,0.578066137675941,0.8580760882332921
1772031867967531800,2.28353173828125,1.5067431178331374,0.6008063772723078,0.8394249445814639
1772031867977480700,2.293480712890625,1.4335919569045303,0.5894838960081339,0.8314021624498069
1772031867987429600,2.3034296875,1.4308961419492958,0.5185577176526188,0.8153029683031141
1772031867997378600,2.313378662109375,1.5272580825954676,0.4165551407709718,0.8070351984344423
1772031868007327500,2.323327392578125,1.7224942389696836,0.29278087706416844,0.7807830051943659
1772031868017275600,2.333275634765625,1.9865847358614206,0.15900135217159986,0.755505136879161
1772031868027224600,2.343224609375,2.211350353580713,0.05188830040842295,0.6809719470076263
1772031868037173500,2.353173583984375,2.3766619118124246,-0.003348433645069599,0.6198232124313712
1772031868047122400,2.363122314453125,2.4814625949800013,0.018794716840982436,0.5591691295042633
1772031868057071400,2.3730712890625,2.482999887549877,0.06587415566295385,0.41179844776317476
1772031868067020500,2.3830205078125,2.3306489331781863,0.06045505322366952,0.2265038396887481
1772031868076969700,2.3929697265625,2.1244348711937664,0.05209200628697872,0.07119425470717251
1772031868086918700,2.402918701171875,1.9595354008942842,0.032332536067068575,-0.05563077487237751
1772031868096867600,2.41286767578125,1.8190286135733127,-0.03474325047060847,-0.16990816530697048
1772031868106816500,2.42281640625,1.5858581556022167,-0.13638868447765706,-0.17067644626572728
1772031868116765400,2.432765380859375,1.259807753881812,-0.21832345584258436,-0.04163490968048572
1772031868126714400,2.44271435546875,0.9465665648519992,-0.3467560667492449,0.12994973747134209
1772031868136663600,2.45266357421875,0.6672820059597492,-0.5803183005169034,0.2652161399208009
1772031868146612700,2.46261279296875,0.4568804291576147,-0.8557286483243107,0.31840185972861945
1772031868156561700,2.472561767578125,0.29343934097290036,-1.0475810074791312,0.34681546878628433
1772031868166510600,2.482510498046875,0.1544137321203947,-1.1316257567353547,0.3403799558460712
1772031868176459500,2.49245947265625,0.05915069262683391,-1.0723575752086936,0.21370894778445362
1772031868186408400,2.502408447265625,-0.048770752909779544,-0.9669602413222194,-0.026583763282001016
1772031868196357400,2.512357421875,-0.14533493812978268,-0.8416283729098737,-0.293447524279356
1772031868206305500,2.522305419921875,-0.16482523601949214,-0.6865821881048381,-0.557892241436243
1772031868216254500,2.53225439453125,-0.159049575227499,-0.5625142021484673,-0.7893328068748116
1772031868226203400,2.542203369140625,-0.20324235269725321,-0.5043289935529232,-0.9560366962477564
1772031868236152300,2.55215234375,-0.3159697372108698,-0.4852807403422892,-1.0457993116941302
1772031868246101500,2.5621015625,-0.4784089548766613,-0.5285375521361828,-1.1230528664402664
1772031868256050400,2.572050537109375,-0.6880138283431529,-0.6871722629524767,-1.2144777160104363
1772031868265999600,2.58199951171875,-0.9149217187881469,-0.9171630679741501,-1.2958289153337479
1772031868275948500,2.591948486328125,-1.117162785488367,-1.167075986431539,-1.3570835945025086
1772031868285897500,2.6018974609375,-1.3041922545313835,-1.3600408368729053,-1.3117749647453427
1772031868295846400,2.611846435546875,-1.5402555113345384,-1.337554425907135,-1.0908926182001828
1772031868305795300,2.62179541015625,-2.193089889746904,-1.1114137204423546,-0.7704678012765943
1772031868315744500,2.63174462890625,-3.0983944698840378,-0.8203101289406418,-0.43394623789172615
1772031868325693400,2.641693359375,-4.059467698994279,-0.612463351187855,-0.23956945655951276
1772031868335642400,2.651642333984375,-4.886517657583951,-0.337499870365113,-0.055872173279663546
1772031868345591600,2.661591552734375,-5.349878680932521,0.13991919669136405,0.13824693436389787
1772031868355540500,2.67154052734375,-5.347048425942659,0.6518447828531265,0.26116386885531245
1772031868365489400,2.681489501953125,-4.948461195799708,1.0819883039936422,0.2745859892798588
1772031868375438300,2.691438232421875,-4.385245128992199,1.3030527291074394,0.06925375619784463
1772031868385387500,2.701387451171875,-3.901161635610461,1.3261860596746204,-0.1393662937826477
1772031868395336400,2.71133642578125,-3.4203771837741135,1.3643408721543848,-0.21540409779716282
1772031868405284400,2.721284423828125,-2.742407779583335,1.4321047870866954,-0.18866030338155104
1772031868415233300,2.7312333984375,-1.8607465253621338,1.4358749532751738,-0.23067619346994905
1772031868425182500,2.741182373046875,-0.8793424558848142,1.3867580172762275,-0.3321537600968033
1772031868435131600,2.751131591796875,0.08073708601295948,1.3342192901350558,-0.3869619300073012
1772031868445080600,2.76108056640625,1.0681342584252358,1.3135109947577117,-0.3697883480947464
1772031868455029500,2.771029541015625,1.9073288283169267,1.2465186487197875,-0.3695440179448575
1772031868464978400,2.780978515625,2.538426591217518,1.089622452133894,-0.4169420942619443
1772031868474927400,2.79092724609375,2.939275921073556,0.8976783230423927,-0.4921671753877774
1772031868484876300,2.800876220703125,3.061801061502099,0.6977277053669094,-0.5230986124852672
1772031868494825500,2.810825439453125,2.973951513135433,0.5123234994381666,-0.49032004968374965
1772031868504774400,2.8207744140625,2.7002830405592917,0.3458832294374704,-0.4016657242728397
1772031868514723600,2.8307236328125,2.2848083885014057,0.23248685962110757,-0.2784794165218249
1772031868524672500,2.840672607421875,1.7586264595806598,0.20099778864085674,-0.1497908580927178
1772031868534621400,2.850621337890625,1.2073983522087335,0.2893289830446243,0.04487202843818813
1772031868544570400,2.8605703125,0.7477613178193568,0.48863370403200385,0.2655806989168748
1772031868554519300,2.870519287109375,0.2544429631024599,0.6774050483062863,0.4510322145860642
1772031868564468500,2.880468505859375,-0.3303852160543203,0.8217334397420286,0.5114101109202951
1772031868574417400,2.89041748046875,-1.008472109144926,0.9504030742749571,0.5464512848915531
1772031868584366600,2.90036669921875,-1.6789613867133855,1.1177242187634109,0.5570422004781663
1772031868594315500,2.9103154296875,-2.1105086371719834,1.3630273053377866,0.5614670311830937
1772031868604264400,2.920264404296875,-2.257718137001991,1.6094392299368976,0.5100137977236882
1772031868614212600,2.930212646484375,-2.0012416222453115,1.8090291976064443,0.3924283787196502
1772031868624161500,2.94016162109375,-1.3991326379418372,1.9264760118573903,0.23243735792357473
1772031868634110500,2.9501103515625,-0.5357131428539753,1.8694474259510636,0.08670397679442539
1772031868644059400,2.960059326171875,0.3284188844174146,1.5763111595779657,-0.020922029459569603
1772031868654008300,2.97000830078125,1.0759855564475058,1.2526339167296885,-0.0015207432938739657
1772031868663957200,2.979957275390625,1.6897785488039254,0.9165268158972263,0.07711385401450097
1772031868673906400,2.989906494140625,2.1299387293070553,0.5788809611901641,0.16385394330192357
1772031868683855600,2.999855712890625,2.4725457135528326,0.2698331321969628,0.27363858889453113
1772031868693804500,3.009804443359375,2.7201433408051727,0.011759995898604393,0.37280630767643447
1772031868703753500,3.01975341796875,2.8995407075345514,-0.19614801052212713,0.4431079243928194
1772031868713702400,3.029702392578125,3.017383827626705,-0.3899386442631483,0.46180466075204313
1772031868723651300,3.0396513671875,3.0431366930425163,-0.5358955136835575,0.42581053343750536
1772031868733600300,3.049600341796875,2.958955019533634,-0.6365051749020815,0.3477274690646678
1772031868743549400,3.059549560546875,2.7946213664233683,-0.6859262084141373,0.2652108061585575
1772031868753498600,3.06949853515625,2.5309365277230738,-0.6788520322442054,0.18628193861134348
1772031868763447600,3.079447509765625,2.2279338241130113,-0.6178682789713144,0.1134236962147057
1772031868773396500,3.089396484375,1.9683476529031991,-0.5851305231042206,0.009392974506318569
1772031868783345400,3.099345458984375,1.6436510038793086,-0.5756631681874395,-0.1035883847683668
1772031868793294300,3.10929443359375,1.3059504963755606,-0.5236018492996692,-0.15870025033317506
1772031868803242500,3.119242431640625,1.0927245098024605,-0.46525735848918554,-0.1920565764900297
1772031868813191400,3.12919140625,0.9346581003934145,-0.414755836264044,-0.19593078757487237
1772031868823140400,3.139140380859375,0.8033756530135869,-0.37986075623258947,-0.18860585151426493
1772031868833089300,3.14908935546875,0.6835469120621681,-0.3709732470303774,-0.19640680758878587
1772031868843038500,3.15903857421875,0.5594716195821762,-0.4037450512975454,-0.21551921207681296
1772031868852987600,3.168987548828125,0.393374463930726,-0.4490549962289631,-0.25000410387218
1772031868862936600,3.1789365234375,0.24804011032283305,-0.5123112244784832,-0.31241511346921325
1772031868872885500,3.188885498046875,0.08864216004908085,-0.5578333508558571,-0.37240854053050276
1772031868882834400,3.19883447265625,-0.08847323322296143,-0.59536111747846,-0.44730135749466715
1772031868892783400,3.208783447265625,-0.20891806024610995,-0.6678291184484958,-0.5368300911199301
1772031868902732300,3.218732177734375,-0.198031924572587,-0.7796588234700262,-0.5887553625378757
1772031868912681200,3.22868115234375,-0.052068625411391255,-0.9187557439930737,-0.5835639313746244
1772031868922630700,3.238630615234375,0.09029226534366608,-1.0436306624181568,-0.5302021243475378
1772031868932579600,3.24857958984375,0.1335784493625164,-1.084778080842644,-0.4555166665237397
1772031868942528500,3.258528564453125,0.0892588306427002,-1.0445024768166244,-0.37429128553718327
1772031868952477400,3.2684775390625,-0.040562896534800524,-1.0088196074083446,-0.3551487051066011
1772031868962426400,3.27842626953125,-0.20888357345461844,-1.0182423925310373,-0.3883042479943484
1772031868972375300,3.288375244140625,-0.48230596231520173,-1.0707799506284297,-0.49886736714616414
1772031868982324500,3.298324462890625,-0.687174454909563,-1.1561733380146324,-0.7199419483277947
1772031868992272400,3.3082724609375,-0.8285323061019182,-1.393511144798249,-1.0294849404267967
1772031869002221300,3.31822119140625,-0.9221212749034166,-1.6301548318378627,-1.289669369790703
1772031869012170500,3.32817041015625,-0.9699129536479711,-1.7729696038402616,-1.4531607268579303
1772031869022119400,3.338119384765625,-0.9792384158760309,-1.9882935856059192,-1.550002413845062
1772031869032068600,3.348068603515625,-0.8967764057666063,-2.178870079606026,-1.2829482448421419
1772031869042017500,3.358017578125,-0.8847820165902376,-2.0689175666332242,-0.5521123793931677
1772031869051966500,3.367966552734375,-1.3767501257419585,-1.823675562596321,0.24509857697822152
1772031869061915400,3.377915283203125,-2.2727976327121255,-1.4021381033681333,0.8412773675151168
1772031869071864300,3.3878642578125,-3.317570889294147,-0.7524351548492908,1.1228984795961527
1772031869081813200,3.397813232421875,-4.526753786832094,-0.0995337025500834,1.068379684553668
1772031869091762400,3.407762451171875,-5.485703447917103,0.8222735379680991,0.9565027793895453
1772031869101711600,3.417711669921875,-5.912694350245594,1.7599921949759125,0.6757255707867443
1772031869111660500,3.42766064453125,-5.558309249922633,2.4703467422038314,0.2538328318474814
1772031869121609500,3.437609375,-4.7162259728521105,2.8689488776549696,-0.20402422378994522
1772031869131558400,3.447558349609375,-3.6731525059252976,3.147003310230374,-0.5195182332478463
1772031869141507300,3.45750732421875,-2.4333359851926564,3.2141163600385187,-0.5668863162854686
1772031869151456300,3.467456298828125,-1.3594675670295953,2.798663919812441,-0.4894193014517426
1772031869161405400,3.477405517578125,-0.42910920965671534,2.3234154747933147,-0.2559951975131407
1772031869171354600,3.487354736328125,0.21173194862306116,1.8496435320675373,0.06518241053912788
1772031869181302500,3.497302490234375,0.6881295636773109,1.4284738832384347,0.4481190305531025
1772031869191251500,3.50725146484375,1.0989262870520353,1.0164454261116682,0.7574049060858785
1772031869201200400,3.517200439453125,1.439443021020293,0.6057759823784232,0.9189141494251787
1772031869211149600,3.527149658203125,1.6940040575444697,0.32113807975947856,0.9845929286465048
1772031869221098500,3.537098388671875,1.9108926582783459,0.19807137980014083,1.0257033760614693
1772031869231047700,3.547047607421875,2.087452755755186,0.23120558763891458,0.9731524470258504
1772031869240996600,3.55699658203125,2.1613743165344,0.4033811864212155,0.8306860500697046
1772031869250945800,3.56694580078125,2.0660919878184796,0.6700020785734057,0.6488964544415473
1772031869260894700,3.576894775390625,1.9417682735353707,1.000778924293816,0.4634832980213687
1772031869270843600,3.58684375,1.8429548480838536,1.2041983871236444,0.2289321262815967
1772031869280792800,3.596792724609375,1.725919537243247,1.3207766018465161,-0.004198766864091158
1772031869290741800,3.60674169921875,1.6560709249913692,1.4623153625637293,-0.1519232670115307
1772031869300690700,3.616690673828125,1.6640046406000852,1.5583701369568705,-0.2515590051639825
1772031869310639600,3.6266396484375,1.7089187180817127,1.5736963009044527,-0.34083230272345244
1772031869320588500,3.636588623046875,1.7899977494001387,1.515418007197976,-0.35418314801007506
1772031869330537700,3.646537841796875,1.8841957900106905,1.380044783373177,-0.3318798385262489
1772031869340486700,3.656486572265625,1.962577252808213,1.1750766297966242,-0.2730546515267342
1772031869350435800,3.666435791015625,2.011618054831028,0.9262810249313712,-0.1934555565677583
1772031869360384800,3.676384765625,2.0522183607667683,0.7039335742697119,-0.11490041770376265
1772031869370333700,3.686333740234375,2.0870663867861032,0.4903413847327232,-0.05484291243031621
1772031869380282600,3.69628271484375,2.1784867793768643,0.3335580008715391,-0.03951272989474237
1772031869390230500,3.70623046875,2.2369518278270957,0.21287936509251593,-0.07910860802829266
1772031869400179700,3.7161796875,2.240759403416514,0.12435235585570335,-0.1058924239270389
1772031869410128600,3.726128662109375,2.1538515198141335,0.08208762383908033,-0.1376721484169364
1772031869420077800,3.736077880859375,1.9335154089748858,0.11837094335854052,-0.14929375875815748
1772031869430026800,3.74602685546875,1.629871484851837,0.1991431006848812,-0.15597674365341663
1772031869439975700,3.7559755859375,1.3429764509558677,0.2521419926837086,-0.12031732818596064
1772031869449924600,3.765924560546875,1.042963576811552,0.25874957425519823,-0.07467574014738201
1772031869459873800,3.775873779296875,0.7200099720627069,0.26024434285759923,0.011403656741604208
1772031869469822700,3.78582275390625,0.4137298542171716,0.27029621966406703,0.10188494185134768
1772031869479771600,3.795771728515625,0.15976152288913725,0.22433380217328666,0.14366875848323105
1772031869489720600,3.805720458984375,-0.005534837773442268,0.13692980561703444,0.135722548719123
1772031869499669800,3.815669677734375,-0.052044075492024416,0.038731004932522774,0.10725282556004821
1772031869509618700,3.82561865234375,-0.02982347585558891,-0.14471651397049426,0.06894055749624967
1772031869519567600,3.835567626953125,0.06731821699142455,-0.4009073436535895,0.07837320642583072
1772031869529516800,3.845516845703125,0.16956103236973286,-0.7088738071508706,0.16999021756723523
1772031869539465700,3.8554658203125,0.19436580328047273,-0.9920875221855938,0.34391667860485614
1772031869549414700,3.86541455078125,0.07962649442255497,-1.255388622265309,0.5337137857303023
1772031869559363600,3.875363525390625,-0.06593699176609516,-1.498614464174211,0.7375696672160178
1772031869569312500,3.8853125,-0.22873042969703672,-1.6951413910113273,0.8659292128864675
1772031869579260700,3.8952607421875,-0.4073708405792713,-1.7835775070942936,0.9372117303989828
1772031869589209900,3.9052099609375,-0.6215414145261049,-1.716058945225179,0.9633135553829372
1772031869599158800,3.91515869140625,-0.8452876260697841,-1.5251210705667733,0.9470893466170877
1772031869609107700,3.925107666015625,-1.0137900892972946,-1.2507590627685188,0.909093451026082
1772031869619056600,3.935056640625,-1.1527794577926396,-1.022397027992457,0.792644780967012
1772031869629005600,3.945005615234375,-1.3518395563691854,-0.9600168519251048,0.5615995715215801
1772031869638954800,3.954954833984375,-1.4748451737910508,-1.0927286014556885,0.2898337176963687
1772031869648903700,3.964903564453125,-1.358856741654873,-1.290306352519989,0.08486461427174508
1772031869658852600,3.9748525390625,-1.1561182468265294,-1.4345181318387388,-0.01795782762542367
1772031869668801800,3.9848017578125,-1.0473007292330265,-1.4329622806988656,-0.06417312389872967
1772031869678750700,3.994750732421875,-1.010799675309658,-1.4156418741941452,-0.17022285727933048
1772031869688699600,4.00469970703125,-1.0279448713779449,-1.4373286592148244,-0.3363806205442175
1772031869698648600,4.014648681640625,-1.1109557475417853,-1.4806861549042165,-0.5823991619115695
1772031869708597800,4.02459765625,-1.1557131731569765,-1.4255452824406325,-0.791265090111643
1772031869718546700,4.034546630859375,-1.1100351255655287,-1.0934824885629117,-0.8659767783552408
1772031869728495600,4.04449560546875,-1.167199028289318,-0.5770918858163059,-0.804720345620811
1772031869738444800,4.05444482421875,-1.4498480951786041,-0.04166793516725301,-0.6738789930719882
1772031869748393700,4.064393798828125,-1.7931296176850795,0.2975011835843325,-0.53352235481143
1772031869758342700,4.0743427734375,-2.263307335311174,0.3780401166766882,-0.45735542625822123
1772031869768290800,4.084290771484375,-2.685483530834317,0.4339510967299342,-0.3886344297967851
1772031869778239700,4.09423974609375,-2.8784096567004918,0.6262405321277678,-0.3178318047557026
1772031869788188700,4.104188720703125,-2.7944845883011817,0.8134173006869853,-0.36287878790199757
1772031869798137600,4.1141376953125,-2.3537837250500915,0.923291779987514,-0.5390353826118632
1772031869808086500,4.12408642578125,-1.6427748055666684,0.9540519521713257,-0.7160749707013369
1772031869818035700,4.13403564453125,-1.0035586181402205,0.956641676403582,-0.8035570739950985
1772031869827985000,4.14398486328125,-0.510614357432723,0.9319201998621225,-0.8265499731782824
1772031869837933800,4.153933837890625,-0.1535860491245985,0.8314975856482982,-0.8102280031263828
1772031869847882800,4.1638828125,0.03938742301464081,0.7340504801139235,-0.7647112835764884
1772031869857831700,4.173831787109375,0.13086451422870157,0.6593804390549659,-0.7332334646426141
1772031869867780600,4.183780517578125,0.1560696826338768,0.6221086930200457,-0.6979097839355468
1772031869877729500,4.1937294921875,0.1633902347803116,0.642875002194941,-0.6771417942602187
1772031869887678700,4.2036787109375,0.12854688493609429,0.7241819970503449,-0.6593800006635486
1772031869897627600,4.213627685546875,0.028850831431150435,0.8738663625612855,-0.6289768252238631
1772031869907576800,4.223576904296875,-0.07826046676635742,1.0695134378239513,-0.5345832620412111
1772031869917525800,4.23352587890625,-0.16810323477685452,1.2307830271884799,-0.4099654601823538
1772031869927474700,4.243474609375,-0.24929917047321795,1.3087617544040082,-0.3562416149098426
1772031869937423600,4.253423583984375,-0.2453144847512245,1.3830670538038015,-0.3382262118782848
1772031869947372800,4.263372802734375,-0.13389467570483685,1.4836965887665747,-0.3121388903437182
1772031869957320700,4.27332080078125,0.05379062689840793,1.5622347034305333,-0.29296098287142813
1772031869967269600,4.28326953125,0.340119259083271,1.6190198359698056,-0.3075918214986101
1772031869977218600,4.293218505859375,0.6618301702946424,1.6209917205646633,-0.2946456662890501
1772031869987167500,4.30316748046875,0.9815046072423458,1.5725746033981443,-0.248782453122735
1772031869997117000,4.313116943359375,1.307839086601138,1.4259990175575017,-0.20698723831400273
1772031870007065900,4.32306591796875,1.5873206293702125,1.1888885897889732,-0.17287585600614547
1772031870017014800,4.333014892578125,1.8395400712043046,0.9804822784572839,-0.108923571783863
1772031870026963700,4.342963623046875,2.067479058262706,0.8178463691756129,-0.04897595662567764
1772031870036912600,4.35291259765625,2.279207499754429,0.6736930420458317,-0.04338588153365999
1772031870046861600,4.362861572265625,2.3876018234997987,0.5163505629971623,-0.07226871553827077
1772031870056810500,4.372810546875,2.420959903222322,0.4297615360856056,-0.07656162695921957
1772031870066759700,4.382759765625,2.384240822634101,0.3833876151844859,-0.053925870650634165
1772031870076708900,4.392708984375,2.323762096273899,0.3399631917387247,-0.0651582624785602
1772031870086657800,4.40265771484375,2.2408576030939815,0.32008827844560145,-0.06264679111428559
1772031870096606700,4.412606689453125,2.0988824967861173,0.2832306661695242,-0.042741848009079694
1772031870106555600,4.4225556640625,1.9459774156630039,0.23203853133171795,-0.017857362925633787
1772031870116504600,4.432504638671875,1.8001929802000523,0.1714475767686963,0.009169906340166926
1772031870126453800,4.442453857421875,1.6549638405323028,0.09042582859545946,0.04517207083068788
1772031870136402700,4.452402587890625,1.530091844716668,-0.002860357867181301,0.03988309757709503
1772031870146350600,4.4623505859375,1.4937614711850882,-0.0758645115405321,0.00888254076614976
1772031870156299500,4.472299560546875,1.4638567467868326,-0.13587737395465374,-0.01908252080641687
1772031870166248700,4.482248779296875,1.4244377595901487,-0.2188017408788204,-0.05931815814822912
1772031870176198000,4.492197998046875,1.3893629390776157,-0.350244347256422,-0.10124759379588066
1772031870186146800,4.502146728515625,1.3371861771166325,-0.5515282593622803,-0.21289368587881324
1772031870196095700,4.512095703125,1.209896598765254,-0.739957950592041,-0.3086182784695178
1772031870206044700,4.522044677734375,1.0551870985686778,-0.832656108033657,-0.34024368918053804
1772031870215993600,4.53199365234375,0.8287626077264547,-0.9159621677517891,-0.4063553799264133
1772031870225942500,4.541942626953125,0.531077299746871,-1.0154758504271506,-0.4476061856601387
1772031870235891000,4.551890869140625,0.1999403885424137,-1.03569870037511,-0.4131166176896542
1772031870245840000,4.56183984375,-0.1513426541119814,-0.9552695112675428,-0.30681415165700016
1772031870255788800,4.571788818359375,-0.5069213481336832,-0.8601848970808088,-0.18368954749796537
1772031870265737700,4.58173779296875,-0.9281436039328574,-0.7449037364311516,-0.0853110428649932
1772031870275686700,4.591686767578125,-1.4397200843960045,-0.6432650244258343,0.024122451202385126
1772031870285635600,4.601635498046875,-1.9456822321087122,-0.6486987399123608,0.05932634145468473
1772031870295585000,4.6115849609375,-2.2716244972795248,-0.7991875536739825,-0.013393076993152498
1772031870305534000,4.621533935546875,-2.292407173067331,-1.0137931580372155,-0.10980886671841143
1772031870315483000,4.63148291015625,-2.0468933663517235,-1.1775165702946484,-0.1519605668146163
1772031870325431800,4.641431884765625,-1.7908002979546784,-1.3804552638702094,-0.2435153263747692
1772031870335379700,4.651379638671875,-1.6024118155181406,-1.7034541690655052,-0.4289036771472543
1772031870345329000,4.661328857421875,-1.312820382145047,-1.9139887245975433,-0.43104748424291606
1772031870355277800,4.67127783203125,-1.1736194167256355,-1.8375003820702434,-0.13767309826500712
1772031870365226800,4.681226806640625,-1.377223003950715,-1.5886251360975205,0.16077084606215356
1772031870375175700,4.69117578125,-2.102780673268437,-1.2429160941831767,0.31893194801732894
1772031870385124900,4.701124755859375,-2.8569033428132533,-0.6906067674458026,0.44505449188333
1772031870395073800,4.71107373046875,-3.6980168980687855,-0.11294044274240732,0.3769472799386829
1772031870405023000,4.72102294921875,-4.417721749705076,0.5593409789398313,0.29635968539901075
1772031870414972000,4.730971923828125,-4.767662145578861,1.2176527658499776,0.22192849459722636
1772031870424920800,4.7409208984375,-4.588485728123784,1.7354662410065531,0.16994568430576473
1772031870434869800,4.750869873046875,-3.9300545526176687,2.0444190851926805,0.08605502963270992
1772031870444818700,4.760818603515625,-3.0835160497039555,2.148720002144575,0.027796280876919627
1772031870454767600,4.770767578125,-2.190012966519594,2.0871832911640404,0.054133595117181535
1772031870464716800,4.780716796875,-1.2293641003012656,1.807631021246314,0.1745389303801581
1772031870474666000,4.790666015625,-0.4871177465111017,1.3591349740743637,0.30855796311702577
1772031870484615000,4.800614990234375,0.005540098470449447,0.9711125386960804,0.4865095514848828
1772031870494563800,4.810563720703125,0.3310264365673065,0.7048819610357284,0.6625655718971043
1772031870504512800,4.8205126953125,0.6339572439849376,0.539120905470848,0.766028795915842
1772031870514461000,4.8304609375,0.9080115010082721,0.48466509266197677,0.8060714679688215
1772031870524409900,4.840409912109375,1.148784250676632,0.5007955587297678,0.7940900844044982
1772031870534358800,4.85035888671875,1.3372376150429248,0.5848664653405546,0.7153245176602154
1772031870544307700,4.8603076171875,1.4552888249278069,0.6522875581845641,0.5707619156097993
1772031870554257000,4.8702568359375,1.4641647898226975,0.6990218368306755,0.4964090142086148
1772031870564205800,4.880205810546875,1.3625029892027378,0.7359104287669063,0.4958820677250623
1772031870574154800,4.89015478515625,1.2217927882641553,0.7771472790405154,0.5405547376662493
1772031870584104000,4.90010400390625,1.1871662960410116,0.8712558878019452,0.540678364045918
1772031870594052900,4.910052978515625,1.2068196755379437,1.0310744015753268,0.49288211872410026
1772031870604001800,4.920001708984375,1.1905921788364648,1.1573667855829,0.4174513589583337
1772031870613950700,4.92995068359375,1.1792664827018975,1.2597276743829249,0.3056271338295191
1772031870623899600,4.939899658203125,1.108289158681035,1.3200041561692952,0.19492288917396217
1772031870633848800,4.949848876953125,1.05779406619668,1.329926415246725,0.1313608829108998
1772031870643797800,4.9597978515625,1.0655886655956506,1.3110551260381935,0.03394939667917788
1772031870653747000,4.969746826171875,1.1036895559310913,1.2453414216339587,-0.09716269910242407
1772031870663696000,4.97969580078125,1.210642448696494,1.1590049081787466,-0.1959250154212117
1772031870673644800,4.989644775390625,1.2765870392471552,1.0664502508610487,-0.2556887984450906
1772031870683593700,4.99959375,1.3019459369093178,0.9260334799110889,-0.2750770972650498
1772031870693542700,5.009542724609375,1.4446967037647962,0.8066843391701579,-0.22911113611031322
1772031870703490800,5.01949072265625,1.619073027461767,0.6865624604910612,-0.19979747294038533
1772031870713439700,5.029439697265625,1.7982360009133815,0.5605532773390411,-0.13878058458287268
1772031870723389000,5.039388916015625,1.9643430934369563,0.43100335284024477,-0.08321403405312448
1772031870733337900,5.049337890625,2.0848744296997785,0.2778808295741677,-0.04818181057330221
1772031870743286800,5.059286865234375,2.0948563100099564,0.14145838895738125,-0.03870630888268351
1772031870753235700,5.069235595703125,1.988862617665529,0.02132861923277378,-0.029436522364616392
1772031870763185000,5.079184814453125,1.734287552616,-0.08889759611487388,-0.013658486463688313
1772031870773133800,5.0891337890625,1.3501251536667347,-0.16964286543428897,0.07326313340310008
1772031870783082800,5.099082763671875,0.9698176765799522,-0.231883633030951,0.24563944238927213
1772031870793032000,5.109031982421875,0.7210615269422531,-0.26412615272700785,0.3947891895668581
1772031870802980900,5.11898095703125,0.6498661762565374,-0.31316549344509836,0.47655978334601967
1772031870812929800,5.1289296875,0.6400701739072799,-0.41262189297527074,0.4807314064748585
1772031870822878700,5.138878662109375,0.6638514469891786,-0.5049892110273242,0.4484535232044756
1772031870832828000,5.148827880859375,0.7137047344386577,-0.5664607478171587,0.4711437131140381
1772031870842776800,5.15877685546875,0.7290940267503261,-0.6673302290156483,0.3930134485986084
1772031870852725800,5.168725830078125,0.6906944457292556,-0.8730971317544579,0.26328831366337835
1772031870862674700,5.1786748046875,0.7096873154908419,-1.0583598833858967,0.1705234476611018
1772031870872623900,5.188623779296875,0.7097416760265827,-1.2118795892760157,0.06528596224514767
1772031870882572800,5.19857275390625,0.5968143850266933,-1.3856687607347964,-0.0032505627611652014
1772031870892521000,5.20852099609375,0.4191261603027582,-1.4606246329978108,0.04916413614153862
1772031870902470000,5.218469970703125,0.21369828025996684,-1.3868097474634646,0.21452928772401064
1772031870912418800,5.228418701171875,-0.06002046119868755,-1.2879440073028205,0.38852680470384654
1772031870922367700,5.23836767578125,-0.33187048617601395,-1.1954349426925182,0.4516574338123202
1772031870932316700,5.248316650390625,-0.598486117631197,-1.223902620024979,0.3202422634309158
1772031870942265900,5.258265869140625,-0.7509346871584653,-1.2690560592204332,0.12814048695913516
1772031870952214800,5.26821484375,-0.7721873185455799,-1.1524681998863815,0.012697603258991148
1772031870962164000,5.2781640625,-0.6909294235289096,-0.9478802777990698,-0.08129576107533648
1772031870972113000,5.28811279296875,-0.5374976881831884,-0.7563143343701958,-0.18006942077204585
1772031870982061800,5.298061767578125,-0.5071247617512941,-0.613309008231759,-0.3244690873457119
1772031870992010800,5.3080107421875,-0.6513023465394974,-0.5438549482554197,-0.5511496353082358
1772031871001959700,5.317959716796875,-0.8553367263972759,-0.4631999875679612,-0.6061649086307734
1772031871011908900,5.327908935546875,-1.1805436630308628,-0.25706863543093206,-0.3918318375986069
1772031871021857800,5.33785791015625,-1.5594009413093328,-0.01778203266710043,-0.07298771399520337
1772031871031806700,5.347806640625,-1.9236989483594893,0.1458145383402705,0.18320855904798955
1772031871041756000,5.357755859375,-2.2034867805987597,0.31223142746537924,0.3277611146284267
1772031871051704800,5.367704833984375,-2.362026068216562,0.5361395515725016,0.3807404616765678
1772031871061653800,5.37765380859375,-2.517376204404235,0.7192144377708435,0.3981999843910336
1772031871071603000,5.38760302734375,-2.5292291392832995,0.9101610802575946,0.33082627435270695
1772031871081550800,5.39755078125,-2.227836793479323,1.1043696471497415,0.12312354471310973
1772031871091499800,5.407499755859375,-1.6674743625372648,1.1819044299900532,-0.14261398873329162
1772031871101448700,5.41744873046875,-0.9477952298641205,1.1411550709724425,-0.3637892538104206
1772031871111397600,5.427397705078125,-0.31135142976045604,1.095086562758684,-0.6392069081414491
1772031871121346800,5.437346923828125,0.16237024408280848,1.0269468002513051,-0.8632411428462713
1772031871131296000,5.4472958984375,0.6683896749407052,0.9611047932922839,-0.9708188895117491
1772031871141245000,5.457244873046875,1.0282055681407452,0.784609870006144,-1.1067310425188392
1772031871151193900,5.46719384765625,1.2664625355958938,0.5797936921209097,-1.195385696723312
1772031871161142800,5.477142822265625,1.4011124135822057,0.41124212905466556,-1.1910669567413628
1772031871171091700,5.487091796875,1.4069506182163953,0.25580285327881574,-1.0924936236560343
1772031871181040600,5.49704052734375,1.2205968564778567,0.14953648147284984,-0.921027634447813
1772031871190989800,5.50698974609375,0.8471984281271696,0.09369096787124871,-0.6198294960416854
1772031871200938800,5.516938720703125,0.46701662324666976,0.11923808158189057,-0.2608934909487143
1772031871210888000,5.526887939453125,0.18599486529827117,0.1924745827063918,-0.07884042207878082
1772031871220836900,5.5368369140625,-0.1311298871666193,0.30463264289945363,-0.02687297375323251
1772031871230785800,5.546785888671875,-0.48580841747820375,0.4690945985645055,0.011681176775041966
1772031871240734700,5.556734619140625,-0.7879618107825517,0.7474316474735736,0.02684196669361554
1772031871250684000,5.566683837890625,-1.0245645812898874,1.036825512447953,0.030333827397366984
1772031871260631800,5.5766318359375,-1.186434474635124,1.199836684782803,-0.04015836172136478
1772031871270580700,5.586580810546875,-1.2373825715839861,1.2987386653006077,-0.16029668921176343
1772031871280530000,5.596530029296875,-1.1308341679662466,1.3627978804960845,-0.22157736133830622
1772031871290478800,5.606478759765625,-0.7840665569096803,1.3725105884760618,-0.19325663646217434
1772031871300428000,5.616427978515625,-0.29227263528108594,1.2648501319631933,-0.1951399659907445
1772031871310377000,5.626376953125,0.21406360644102096,1.0732315815642475,-0.2795879988182336
1772031871320326000,5.636325927734375,0.6623989100933074,0.8162707904219627,-0.37061267008967697
1772031871330274800,5.64627490234375,1.005849943947792,0.5276297896414995,-0.43966406754925846
1772031871340223700,5.6562236328125,1.3224784373283385,0.2439873278006911,-0.48240445425361395
1772031871350172700,5.666172607421875,1.5806021347701549,0.03865530934780836,-0.49606969925165173
1772031871360121900,5.676121826171875,1.7561580236405132,-0.11222791055887937,-0.4969239049281925
1772031871370071000,5.686071044921875,1.8225626329183577,-0.24584347706139087,-0.46023218727093185
1772031871380020000,5.69602001953125,1.8033868078052997,-0.3395265538871288,-0.39898320719059555
1772031871389969000,5.705968994140625,1.7271289130330085,-0.36443566195517774,-0.30529044922105963
1772031871399917800,5.715917724609375,1.5832283916205168,-0.3517202650278807,-0.23857049038372932
1772031871409866800,5.72586669921875,1.3950532596737146,-0.31486791344881054,-0.23262517211325465
1772031871419815700,5.735815673828125,1.235881519371271,-0.2752852601230144,-0.24619864717461168
1772031871429763800,5.745763916015625,1.106088433766365,-0.2418026772379875,-0.29168440533066164
1772031871439712800,5.755712646484375,0.9801794961184263,-0.23120061920285223,-0.323967640629597
1772031871449662000,5.765661865234375,0.8604583071947097,-0.177141989018023,-0.30827023221682753
1772031871459611000,5.77561083984375,0.7295733346998691,-0.12267770064175128,-0.3401050113622099
1772031871469559800,5.785559814453125,0.5639285989910364,-0.07562456530481576,-0.33448585630618033
1772031871479509000,5.795509033203125,0.4547410790413618,-0.04457125539332628,-0.30165159952836107
1772031871489458000,5.8054580078125,0.4434305804759264,-0.048121933612227434,-0.30842257323432715
1772031871499406800,5.81540673828125,0.5225777669489383,-0.12081892103254795,-0.3477672530857846
1772031871509355800,5.825355712890625,0.6127274089515209,-0.2310699785605073,-0.4044394998351112
1772031871519304700,5.8353046875,0.6405261009812354,-0.3321133550211787,-0.4634441715873778
1772031871529254000,5.84525390625,0.5851052425324916,-0.36397856583744287,-0.568348607390374
1772031871539202800,5.855202880859375,0.4215712153673172,-0.4130924330964684,-0.6843345553085207
1772031871549152000,5.865152099609375,0.23590075971782207,-0.49365123993307347,-0.7327636551737785
1772031871559101000,5.875100830078125,0.12871230463087557,-0.5151689519971608,-0.6608791531801224
1772031871569049900,5.8850498046875,0.05084112944304943,-0.5594581755787134,-0.5242987820552661
1772031871578998800,5.894998779296875,-0.13381108907461164,-0.5879349130004644,-0.30786508548203856
1772031871588947700,5.90494775390625,-0.4765577740520239,-0.5178796722605824,-0.05179565368890762
1772031871598896600,5.914896728515625,-0.9151865072041749,-0.36016631407290695,0.19941479376573115
1772031871608845800,5.924845703125,-1.3735107054293154,-0.2906026562422514,0.17656245383070782
1772031871618794000,5.9347939453125,-1.7743103509247302,-0.3924298765569925,-0.09025934032159857
1772031871628743000,5.944742919921875,-1.9777596243709326,-0.39503304479271173,-0.27005141459014265
1772031871638691800,5.95469189453125,-1.879233783689141,-0.46622693417370314,-0.585671644243598
1772031871648640800,5.964640869140625,-1.4779530766785145,-0.7815405455633997,-1.0664432365983725
1772031871658590000,5.97458984375,-1.0444809956371783,-0.936887466880679,-1.0481868644177914
1772031871668539000,5.984538818359375,-0.7101572710901498,-0.7856082333937286,-0.40640645252652463
1772031871678487800,5.99448779296875,-0.5221335303127765,-0.6920610579073428,0.14498846277967095
1772031871688436700,6.004436767578125,-0.665876230815053,-0.782853089466691,0.39340982750505205
1772031871698386000,6.014385986328125,-1.2635381725817918,-0.7195110826298594,0.7700619969546795
1772031871708334800,6.0243349609375,-2.153732861870527,-0.2419996611148119,1.2057678283974527
1772031871718283800,6.03428369140625,-2.9914199498087166,0.3486407114520669,1.4472190618492662
1772031871728233000,6.04423291015625,-3.667157649424672,0.8906085307866335,1.4521154555886984
1772031871738182000,6.054181884765625,-4.062556312659383,1.4474185299441218,1.4396823827341199
1772031871748130800,6.064130859375,-3.9717917536288496,2.0639473770052192,1.5167358117982743
1772031871758079700,6.074079833984375,-3.547728721445799,2.446359717416763,1.5243249517530202
1772031871768029000,6.08402880859375,-2.8164602732658386,2.4092972302183506,1.4908075898155568
1772031871777977900,6.093977783203125,-1.8560224194496868,2.1697113522469995,1.4776279363773763
1772031871787927000,6.103927001953125,-1.1329863775640725,1.7404115884542464,1.3816184624306858
1772031871797875000,6.113875,-0.3365729647785425,1.3686770016625522,1.4638475405670701
1772031871807824000,6.123823974609375,0.35220775628387924,0.9462810259088873,1.4187073992446064
1772031871817772800,6.133772705078125,0.9400579136103391,0.5982850421011447,1.2925000631719827
1772031871827721700,6.1437216796875,1.4541811559468507,0.45113779385238884,1.2249692263431846
1772031871837671000,6.1536708984375,1.8427590332508086,0.4569502795234322,1.1546516814053058
1772031871847619800,6.163619873046875,2.115828955411911,0.4663473456829786,1.0166460632503032
1772031871857568800,6.17356884765625,2.3444582628220316,0.4860045245721936,0.8680622063271701
1772031871867518000,6.18351806640625,2.5690572918027637,0.4892305008813739,0.7630318060569464
1772031871877467000,6.193466796875,2.723960853266716,0.3890922565668821,0.6489903432700783
1772031871887415800,6.203415771484375,2.8207681995928287,0.30058015263825655,0.5549901267865672
1772031871897364700,6.21336474609375,2.79665082642436,0.181935068513453,0.44299229865651574
1772031871907314000,6.22331396484375,2.6952929771870373,0.12334990081489085,0.3375564959231764
1772031871917262800,6.233262939453125,2.529426123160124,0.09215601338893174,0.2938205588428303
1772031871927211800,6.243211669921875,2.3514824623703956,0.06900806977450848,0.2986304798752069
1772031871937161000,6.253160888671875,2.096680602827668,0.008702654154598713,0.25456885450445116
1772031871947110000,6.26310986328125,1.777887624889612,-0.06457242541462183,0.18442805437296628
1772031871957058800,6.273058837890625,1.4354630114734173,-0.0965153776422143,0.12531659777797757
1772031871967008000,6.283008056640625,1.1191127505123615,-0.0808297327324748,0.07188673048336058
1772031871976957000,6.29295703125,0.9555237782895565,-0.01786561929732561,0.03016403292156756
1772031871986904800,6.30290478515625,0.9288976371705532,0.04674158516973257,0.0020411869714036584
1772031871996853800,6.312853759765625,0.9367430899739265,0.06403408075422048,-0.05169237597752362
1772031872006802700,6.322802734375,0.8532160809814929,0.027195465439558027,-0.08290474890824406
1772031872016751900,6.332751953125,0.7130033081710339,0.04272387396097183,-0.07137231468781828
1772031872026701000,6.342701171875,0.5108785613268614,0.07196691958010196,-0.04914024380929768
1772031872036650000,6.35264990234375,0.3448129698574543,0.11354980681240558,-0.02518386988881975
1772031872046599000,6.362598876953125,0.20783903283774852,0.11814911730140447,0.0245252963822335
1772031872056547800,6.3725478515625,0.13790332682430742,0.11224398491084575,0.04787110065631568
1772031872066496800,6.382496826171875,0.05341594836711883,0.0587523409590125,0.05845821685064584
1772031872076445700,6.39244580078125,-0.0007762450695037841,0.011945873859524727,0.022289061762765048
1772031872086395000,6.402394775390625,-0.029635844328999517,-0.050749067245423794,-0.03463496779054403
1772031872096343800,6.41234375,-0.008237082469463348,-0.13982055862247944,-0.12084770873561501
1772031872106293000,6.42229296875,0.06664660134017467,-0.24637743780761956,-0.21760591869037596
1772031872116242000,6.432241943359375,0.14344868599176405,-0.34008389550894497,-0.22387988439332693
1772031872126190800,6.44219091796875,0.1788736351162195,-0.4775573064833879,-0.20478600194267926
1772031872136139800,6.452139892578125,0.19672668719291686,-0.6534758911862969,-0.18081950848698614
1772031872146089000,6.4620888671875,0.23355682694017885,-0.8005290314108133,-0.12878898659627883
1772031872156038000,6.472037841796875,0.291629076680541,-0.9213394768759607,-0.04897610275615007
1772031872165986800,6.48198681640625,0.2813099272400141,-0.9936597399383783,0.009107837422005832
1772031872175934700,6.491934814453125,0.21970073554515837,-1.0037149777457117,0.0790752172153443
1772031872185883600,6.501883544921875,0.0639700756072998,-0.9631903673946857,0.14509232501294464
1772031872195833000,6.5118330078125,-0.1533984175980091,-0.8735726403117179,0.23502087161075322
1772031872205782000,6.521781982421875,-0.33899463896751403,-0.7440981191366911,0.31571243798155335
1772031872215731000,6.53173095703125,-0.4826216041356325,-0.6367886680185795,0.3299247954683378
1772031872225680000,6.541679931640625,-0.567554972794652,-0.565839108787477,0.3008323007684201
1772031872235629300,6.55162939453125,-0.5859188970029354,-0.5586722858980298,0.24083788732644168
1772031872245578200,6.561578125,-0.5307599043607711,-0.6309022403284907,0.15238397985845803
1772031872255527200,6.571527099609375,-0.4462450533747673,-0.734594085471332,0.08245360760726034
1772031872265476400,6.581476318359375,-0.3445025887340307,-0.808836256507039,0.06437587992921472
1772031872275425500,6.591425537109375,-0.25807109047174454,-0.8484194943547249,0.04073427104633301
1772031872285374500,6.60137451171875,-0.18810440479815005,-0.8804466177344321,-0.057132594270072876
1772031872295323400,6.611323486328125,-0.11218202559053897,-0.9113456138670444,-0.22493531173039227
1772031872305272300,6.621272216796875,-0.05146890595257282,-0.9046122139587998,-0.3813611143255606
1772031872315221200,6.63122119140625,-0.04349719642102718,-0.910272139416635,-0.5557432832414284
1772031872325170200,6.641170166015625,-0.13901801006793976,-0.7567647084861994,-0.5828575001383199
1772031872335119400,6.651119384765625,-0.43060383212864395,-0.3708782622233033,-0.426135856401734
1772031872345068500,6.661068603515625,-0.9044809887945652,0.12599690819233655,-0.172398118959181
1772031872355016400,6.671016357421875,-1.3957809894263744,0.5570467305228114,0.15459369179718196
1772031872364965400,6.68096533203125,-1.8557921178251504,0.83081340277642,0.45640097507759925
1772031872374914300,6.690914306640625,-2.285696861773729,0.937732393272221,0.6242934897132217
1772031872384863500,6.700863525390625,-2.5358219616770743,0.9906778015181422,0.7124236816521734
1772031872394812400,6.7108125,-2.4622283176779747,1.028446391159296,0.7508094533435999
1772031872404761300,6.72076123046875,-2.057407161581516,1.0014818118661641,0.6562384147021919
1772031872414710300,6.730710205078125,-1.5487807630956172,0.952889338132739,0.4359980193223804
1772031872424659200,6.7406591796875,-1.0247697484731673,0.9420958491787313,0.20110952365333212
1772031872434608400,6.7506083984375,-0.6631359921962022,0.911333338907361,-0.019324056211020797
1772031872444557300,6.760557373046875,-0.46532560141980644,0.7952931765839457,-0.18789417784726245
1772031872454506500,6.770506591796875,-0.2630541395813227,0.7036366371497511,-0.31881160957328974
1772031872464455400,6.780455322265625,-0.11059972483515738,0.6648375354170799,-0.39912100822608915
1772031872474404400,6.790404296875,0.004375730866193771,0.6605015520393848,-0.44238600332643835
1772031872484353300,6.800353271484375,0.01748831041753292,0.6236176362782716,-0.46984958165027196
1772031872494302200,6.81030224609375,0.018170447462797164,0.604675912182033,-0.4234539603739977
1772031872504251100,6.820251220703125,-0.037115386429429055,0.5987459376111627,-0.3486463374752551
1772031872514200600,6.83020068359375,-0.12575579291284084,0.6448728980138898,-0.19611511289952321
1772031872524149500,6.8401494140625,-0.23296938244104384,0.7149623332843184,-0.04146542573194019
1772031872534097400,6.850097412109375,-0.3745464293420315,0.7687193501740693,0.09092151229106821
1772031872544046300,6.86004638671875,-0.5237830510854721,0.8353089606299996,0.2404665697960183
1772031872553995300,6.869995361328125,-0.5837824694961309,0.9547384731307625,0.35747528489064423
1772031872563944400,6.8799443359375,-0.5508318015307188,1.0623568440675735,0.42054910577796395
1772031872573893400,6.889893310546875,-0.3445943586707115,1.1638576089069246,0.47032709950152785
1772031872583842300,6.89984228515625,-0.07907704384624957,1.2372115989312529,0.43492454487197096
1772031872593791200,6.909791259765625,0.2760486457109451,1.282299863936007,0.3488007973846048
1772031872603740400,6.919740478515625,0.65480363265872,1.2560343728229402,0.3143377520948648
1772031872613689300,6.929689453125,1.0536439607799053,1.1410180005893111,0.24283613020526243
1772031872623638300,6.93963818359375,1.415406896394491,0.8653186067074536,0.09289884937917813
1772031872633587500,6.94958740234375,1.643933912473917,0.5567948015883565,-0.03455032171439379
1772031872643536400,6.959536376953125,1.7742887236148117,0.33903935489207504,-0.07476509893126786
1772031872653485300,6.9694853515625,1.8418161994427442,0.1633323671132326,-0.0865248025689274
1772031872663434200,6.979434326171875,1.9323650698959827,0.022824118487536908,-0.04863499770089984
1772031872673383400,6.989383544921875,1.9183377135872839,-0.11318418837040663,0.026570538474246858
1772031872683332400,6.999332275390625,1.798805909755826,-0.25170447804927826,0.11901318678483366
1772031872693281500,7.009281494140625,1.6327759741216896,-0.3367836849197745,0.2064474688814953
1772031872703230500,7.01923046875,1.4940110620319842,-0.3839695067256689,0.2997165215462446
1772031872713179400,7.029179443359375,1.4056950651973485,-0.3750654847800731,0.36165216871649025
1772031872723127300,7.039127197265625,1.2331845353722573,-0.35858255201280115,0.3248697405684739
1772031872733076200,7.049076171875,0.9159101453036069,-0.32978520433455705,0.28306316411551086
1772031872743025400,7.059025390625,0.5123614933609962,-0.2924208115801215,0.28782639646194874
1772031872752974300,7.068974365234375,0.13257657884359358,-0.22714754441976545,0.28829094523377713
1772031872762923300,7.07892333984375,-0.15945347985327243,-0.1348591368228197,0.3067592796646058
1772031872772872400,7.08887255859375,-0.05204992071092129,-0.18785189134180544,0.22929208216778932
1772031872782821400,7.0988212890625,0.2473492054492235,-0.4657701303169131,0.07496361717805267
1772031872792770300,7.108770263671875,0.21462883910834787,-0.47385523709505795,0.17895079200565814
1772031872802719200,7.11871923828125,0.12414017440974712,-0.4100441514417529,0.3898598068732768
1772031872812668400,7.12866845703125,0.0705927086174488,-0.5600067493721842,0.5084484846357256
1772031872822617300,7.138617431640625,0.153376205766201,-0.7676639959022402,0.5604772164281457
1772031872832566300,7.148566162109375,0.24851591114103794,-0.8406158348664641,0.5715731954600661
1772031872842515500,7.158515380859375,0.28454700946509837,-0.8994546850651503,0.5486353874649852
1772031872852464400,7.16846435546875,0.3231312994033098,-0.982703461638093,0.504140046852082
1772031872862413300,7.178413330078125,0.41144262006282806,-1.035712290509045,0.4342673961374908
1772031872872362500,7.188362548828125,0.5363759906768798,-0.9476622511342168,0.35706301429532467
1772031872882311400,7.1983115234375,0.8254787637501955,-1.0123433976203202,0.07547704659290612
