time,seconds_elapsed,z,y,x
1772031865758864000,0.07486376953125,-0.3204757869243622,0.37944531440734863,-0.10018222779035568
1772031865768812800,0.084812744140625,-0.33388420939445496,0.22691255807876587,0.13547316193580627
1772031865778762000,0.094761962890625,-0.3130737543106079,0.12176510691642761,0.34685277938842773
1772031865788711000,0.1047109375,-0.25935855507850647,0.07927213609218597,0.5101342797279358
1772031865798660000,0.11466015625,-0.201248899102211,0.08531405031681061,0.6092904210090637
1772031865808609000,0.124609130859375,-0.16102507710456848,0.1268855631351471,0.6368276476860046
1772031865818558000,0.134557861328125,-0.11615109443664551,0.18297812342643738,0.5951124429702759
1772031865828507000,0.1445068359375,-0.07618282735347748,0.27056777477264404,0.4998604357242584
1772031865838455000,0.154455078125,-0.04165547713637352,0.34579354524612427,0.3786146938800812
1772031865848404000,0.164404052734375,-0.0205168966203928,0.3771529197692871,0.24253620207309723
1772031865858353000,0.174352783203125,-0.010484237223863602,0.3837288022041321,0.1100495308637619
1772031865868301800,0.1843017578125,-0.022159377112984657,0.36337849497795105,-0.018278446048498154
1772031865878250800,0.194250732421875,-0.0490138903260231,0.317500501871109,-0.13311980664730072
1772031865888200000,0.204199951171875,-0.08441483229398727,0.2617213726043701,-0.2286713421344757
1772031865898149000,0.214149169921875,-0.11786200851202011,0.21223266422748566,-0.31804463267326355
1772031865908098000,0.22409814453125,-0.14592602849006653,0.15858691930770874,-0.38344669342041016
1772031865918047000,0.234046875,-0.17623066902160645,0.07045944780111313,-0.38691332936286926
1772031865927996000,0.243995849609375,-0.20717188715934753,-0.08791886270046234,-0.322250097990036
1772031865937944800,0.25394482421875,-0.24971695244312286,-0.27948617935180664,-0.19773215055465698
1772031865947893800,0.263893798828125,-0.29429587721824646,-0.45224884152412415,-0.035277679562568665
1772031865957843000,0.273843017578125,-0.33917146921157837,-0.564213216304779,0.152195006608963
1772031865967792000,0.283792236328125,-0.37387827038764954,-0.6306845545768738,0.339287132024765
1772031865977741000,0.293740966796875,-0.41133856773376465,-0.69155353307724,0.5009415149688721
1772031865987690000,0.30368994140625,-0.4376525580883026,-0.7015907168388367,0.6129643321037292
1772031865997639000,0.313638916015625,-0.44676509499549866,-0.6477773189544678,0.674703061580658
1772031866007587800,0.323587890625,-0.4349961280822754,-0.5737749934196472,0.6803592443466187
1772031866017536800,0.333536865234375,-0.39111629128456116,-0.4883820414543152,0.6313759684562683
1772031866027485000,0.34348486328125,-0.3406485915184021,-0.3535607159137726,0.5435813665390015
1772031866037433900,0.353433837890625,-0.2695901393890381,-0.22963398694992065,0.41803833842277527
1772031866047382800,0.3633828125,-0.14591354131698608,-0.12369756400585175,0.24592149257659912
1772031866057332000,0.37333203125,0.00022263173013925552,-0.034864358603954315,0.05242579057812691
1772031866067281000,0.383281005859375,0.1297183334827423,0.011648846790194511,-0.13725534081459045
1772031866077230000,0.39322998046875,0.21185314655303955,-0.020359152927994728,-0.2955493628978729
1772031866087179000,0.403178955078125,0.26597458124160767,-0.10670656710863113,-0.40993377566337585
1772031866097128000,0.4131279296875,0.3040631115436554,-0.1970045119524002,-0.4867348074913025
1772031866107076900,0.423076904296875,0.3237690329551697,-0.21488642692565918,-0.5283982753753662
1772031866117025800,0.43302587890625,0.32405051589012146,-0.1643231213092804,-0.5113769173622131
1772031866126975000,0.44297509765625,0.30526718497276306,-0.13434304296970367,-0.4259182810783386
1772031866136924000,0.452923828125,0.2826513648033142,-0.16929249465465546,-0.3095748722553253
1772031866146873000,0.462873046875,0.22511090338230133,-0.21503183245658875,-0.161281019449234
1772031866156822000,0.472822021484375,0.15810950100421906,-0.27313321828842163,0.011489162221550941
1772031866166771000,0.48277099609375,0.1163249984383583,-0.308856338262558,0.1704760193824768
1772031866176720000,0.492719970703125,0.08751732110977173,-0.27513858675956726,0.3075108528137207
1772031866186668800,0.502668701171875,0.06921471655368805,-0.19268277287483215,0.4190281629562378
1772031866196617700,0.51261767578125,0.055073332041502,-0.09133166074752808,0.4899601340293884
1772031866206567200,0.522567138671875,-0.003946228884160519,0.0343807078897953,0.5393161773681641
1772031866216516000,0.53251611328125,-0.04867934808135033,0.14263367652893066,0.5437111854553223
1772031866226464500,0.542464599609375,-0.0587276928126812,0.23868528008460999,0.5093094110488892
1772031866236413400,0.552413330078125,-0.0405135340988636,0.34216028451919556,0.44689181447029114
1772031866246362400,0.5623623046875,0.0038895108737051487,0.4324512779712677,0.37348783016204834
1772031866256311300,0.572311279296875,0.07061208784580231,0.500764012336731,0.29925939440727234
1772031866266260500,0.582260498046875,0.1373996138572693,0.5475864410400391,0.21641436219215393
1772031866276209400,0.59220947265625,0.16511885821819305,0.5359372496604919,0.14958153665065765
1772031866286158300,0.602158447265625,0.13405606150627136,0.40049946308135986,0.1169179305434227
1772031866296107500,0.612107421875,0.051283419132232666,0.17294169962406158,0.10961980372667313
1772031866306056400,0.622056396484375,-0.04471786692738533,-0.0385160855948925,0.10300931334495544
1772031866316005400,0.63200537109375,-0.15468403697013855,-0.16283856332302094,0.09139207750558853
1772031866325954600,0.64195458984375,-0.23057793080806732,-0.21934592723846436,0.06446826457977295
1772031866335903500,0.651903564453125,-0.2749800384044647,-0.20030087232589722,0.017569199204444885
1772031866345852400,0.661852294921875,-0.2634553909301758,-0.13865576684474945,-0.0757586732506752
1772031866355801300,0.67180126953125,-0.1720985770225525,-0.05921686068177223,-0.22341576218605042
1772031866365750500,0.68175048828125,-0.012579821981489658,0.005573712754994631,-0.4089158773422241
1772031866375699500,0.691699462890625,0.1857692152261734,0.03943048045039177,-0.6035260558128357
1772031866385648400,0.7016484375,0.37387093901634216,0.02258598431944847,-0.7351943254470825
1772031866395597600,0.71159765625,0.5095158219337463,-0.13917309045791626,-0.7579106092453003
1772031866405546500,0.72154638671875,0.5519427061080933,-0.43938854336738586,-0.6439313888549805
1772031866415495400,0.731495361328125,0.48926016688346863,-0.8075609803199768,-0.41565585136413574
1772031866425443300,0.741443359375,0.3634750545024872,-1.087056040763855,-0.12036404013633728
1772031866435392300,0.751392333984375,0.237723246216774,-0.8397034406661987,0.08325006067752838
1772031866445341400,0.761341552734375,0.099460668861866,-0.496295690536499,0.23212236166000366
1772031866455290600,0.77129052734375,-0.10696414113044739,-0.252530962228775,0.3918302357196808
1772031866465239600,0.781239501953125,-0.3198172450065613,-0.09196492284536362,0.5660955309867859
1772031866475188500,0.7911884765625,-0.46711719036102295,-0.04172172397375107,0.702533483505249
1772031866485137400,0.801137451171875,-0.5347192883491516,-0.008404446765780449,0.766176164150238
1772031866495086300,0.81108642578125,-0.520575225353241,0.03636675328016281,0.7526201605796814
1772031866505035500,0.821035400390625,-0.43644899129867554,0.1145610362291336,0.6656530499458313
1772031866514984400,0.830984375,-0.28392016887664795,0.21130222082138062,0.5114706754684448
1772031866524933400,0.840933349609375,-0.07288233935832977,0.2799108326435089,0.3160480856895447
1772031866534882600,0.850882568359375,0.17803004384040833,0.3286362886428833,0.08891987800598145
1772031866544831500,0.86083154296875,0.38608333468437195,0.3528631925582886,-0.12834249436855316
1772031866554780400,0.870780517578125,0.5619425177574158,0.32928410172462463,-0.30077314376831055
1772031866564729300,0.880729248046875,0.7005221247673035,0.28127583861351013,-0.40344613790512085
1772031866574678500,0.890678466796875,0.7881653904914856,0.22929811477661133,-0.43791064620018005
1772031866584627500,0.90062744140625,0.825851321220398,0.1849793940782547,-0.41846391558647156
1772031866594576400,0.910576416015625,0.8224494457244873,0.16517187654972076,-0.36241742968559265
1772031866604525300,0.920525390625,0.7909671068191528,0.15381594002246857,-0.28705164790153503
1772031866614473200,0.93047314453125,0.743801474571228,0.15370088815689087,-0.21004687249660492
1772031866624422700,0.940422607421875,0.683214008808136,0.16332300007343292,-0.1407208889722824
1772031866634371600,0.95037158203125,0.6135789752006531,0.1786859780550003,-0.07450778782367706
1772031866644320500,0.960320556640625,0.5463312268257141,0.149419367313385,-0.01650332473218441
1772031866654269400,0.97026953125,0.48786449432373047,0.10470675677061081,0.01744798570871353
1772031866664218400,0.98021826171875,0.444947749376297,0.08928359299898148,0.026011887937784195
1772031866674167300,0.990167236328125,0.41899576783180237,0.07163668423891068,0.018247708678245544
1772031866684116500,1.000116455078125,0.41745832562446594,0.03968246653676033,-0.01242210902273655
1772031866694065400,1.0100654296875,0.4327499270439148,0.004210758022964001,-0.07429053634405136
1772031866704014600,1.0200146484375,0.44172418117523193,0.014274456538259983,-0.1882420927286148
1772031866713963500,1.029963623046875,0.4177032709121704,0.0828053206205368,-0.3276734948158264
1772031866723912400,1.039912353515625,0.36052611470222473,0.17386098206043243,-0.46049490571022034
1772031866733861400,1.049861328125,0.3002382814884186,0.25864937901496887,-0.5725604295730591
1772031866743810300,1.059810302734375,0.23721127212047577,0.34264492988586426,-0.6626734137535095
1772031866753759500,1.069759521484375,0.1648917943239212,0.4207029640674591,-0.7067812085151672
1772031866763708400,1.07970849609375,0.08380956202745438,0.4610215425491333,-0.7002496719360352
1772031866773657600,1.08965771484375,0.02095390111207962,0.49019408226013184,-0.6496112942695618
1772031866783606500,1.0996064453125,-0.024978913366794586,0.4808158278465271,-0.5491962432861328
1772031866793555500,1.109555419921875,-0.05967298150062561,0.41468873620033264,-0.4162741005420685
1772031866803504400,1.11950439453125,-0.07582257688045502,0.32260340452194214,-0.2700114846229553
1772031866813452500,1.12945263671875,-0.09088301658630371,0.2533279359340668,-0.13160274922847748
1772031866823401500,1.1394013671875,-0.10779847949743271,0.2078152298927307,0.014384802430868149
1772031866833350400,1.149350341796875,-0.13108836114406586,0.16782546043395996,0.1604709029197693
1772031866843299300,1.15929931640625,-0.14747841656208038,0.12266015261411667,0.29534441232681274
1772031866853248300,1.169248291015625,-0.16416259109973907,0.08728671073913574,0.3943788409233093
1772031866863197400,1.179197509765625,-0.18925446271896362,0.03402293100953102,0.44232413172721863
1772031866873146600,1.189146728515625,-0.22281454503536224,0.014897972345352173,0.4284626543521881
1772031866883095600,1.199095458984375,-0.23353111743927002,0.037032175809144974,0.3616522550582886
1772031866893044500,1.20904443359375,-0.2242548018693924,0.06518658250570297,0.2794143855571747
1772031866902993400,1.218993408203125,-0.1941390335559845,0.06396659463644028,0.1947876513004303
1772031866912942300,1.2289423828125,-0.153864324092865,0.07444293797016144,0.12572841346263885
1772031866922891300,1.238891357421875,-0.11709507554769516,0.11272183060646057,0.08734248578548431
1772031866932840400,1.24884033203125,-0.08830150961875916,0.1315660923719406,0.09216786921024323
1772031866942789600,1.25878955078125,-0.07998616248369217,0.10864624381065369,0.1308443397283554
1772031866952738600,1.268738525390625,-0.0959550142288208,-0.000024572014808654785,0.18423911929130554
1772031866962687500,1.2786875,-0.15891923010349274,-0.20127511024475098,0.2461308240890503
1772031866972636400,1.288636474609375,-0.2523365318775177,-0.3895030617713928,0.288256973028183
1772031866982585300,1.29858544921875,-0.3360956013202667,-0.4774474501609802,0.32051554322242737
1772031866992534300,1.3085341796875,-0.36023715138435364,-0.42201533913612366,0.3447313904762268
1772031867002483500,1.3184833984375,-0.32450976967811584,-0.2777649164199829,0.3552406132221222
1772031867012432400,1.328432373046875,-0.26038429141044617,-0.0790875107049942,0.327011376619339
1772031867022380300,1.33838037109375,-0.17075780034065247,0.11619018763303757,0.2193976193666458
1772031867032329500,1.34832958984375,-0.06676401942968369,0.3166561722755432,0.02292025089263916
1772031867042278700,1.358278564453125,0.06573450565338135,0.5599033832550049,-0.2283269464969635
1772031867052227600,1.3682275390625,0.20502927899360657,0.7976781129837036,-0.45370280742645264
1772031867062176500,1.378176513671875,0.3117557466030121,0.9565404653549194,-0.576055645942688
1772031867072125400,1.38812548828125,0.3578476011753082,0.9838637113571167,-0.5382595062255859
1772031867082074400,1.398074462890625,0.36929771304130554,0.7642476558685303,-0.3666669726371765
1772031867092023300,1.408023193359375,0.3144453763961792,0.401784211397171,-0.10489073395729065
1772031867101972200,1.41797216796875,0.1523107886314392,0.06417671591043472,0.18307213485240936
1772031867111921700,1.427921630859375,-0.07581373304128647,-0.19521251320838928,0.45574280619621277
1772031867121870600,1.43787060546875,-0.30654555559158325,-0.2948337197303772,0.6616227626800537
1772031867131819500,1.447819580078125,-0.48131895065307617,-0.26120519638061523,0.7831140160560608
1772031867141768400,1.4577685546875,-0.6212547421455383,-0.17919008433818817,0.8395841717720032
1772031867151717400,1.46771728515625,-0.7180765867233276,-0.10214456915855408,0.8334863185882568
1772031867161666300,1.477666259765625,-0.7649332284927368,-0.04591783136129379,0.7584339380264282
1772031867171615500,1.487615478515625,-0.7678725123405457,0.016887493431568146,0.6188216805458069
1772031867181564400,1.497564453125,-0.7471936941146851,0.09470097720623016,0.45329710841178894
1772031867191513600,1.507513671875,-0.7018837332725525,0.17310203611850739,0.29232072830200195
1772031867201462500,1.517462646484375,-0.6417248845100403,0.24214138090610504,0.14830905199050903
1772031867211411500,1.527411376953125,-0.5660120248794556,0.294388085603714,0.029070276767015457
1772031867221359600,1.537359619140625,-0.5135849714279175,0.3390669822692871,-0.055565834045410156
1772031867231308500,1.54730859375,-0.48852142691612244,0.3522983491420746,-0.11300887912511826
1772031867241257700,1.5572578125,-0.4896888732910156,0.3290208876132965,-0.15150725841522217
1772031867251206700,1.56720654296875,-0.5049753785133362,0.26196223497390747,-0.17095179855823517
1772031867261155600,1.577155517578125,-0.5264356732368469,0.1442355066537857,-0.17142802476882935
1772031867271104500,1.5871044921875,-0.5573046207427979,0.003955088090151548,-0.15133580565452576
1772031867281053400,1.597053466796875,-0.5994282960891724,-0.1507347971200943,-0.08538120239973068
1772031867291002600,1.607002685546875,-0.6390207409858704,-0.3196878731250763,0.008276580832898617
1772031867300951600,1.61695166015625,-0.674030065536499,-0.48124733567237854,0.11888494342565536
1772031867310900500,1.626900390625,-0.7058820128440857,-0.6252968907356262,0.2229090929031372
1772031867320849700,1.636849609375,-0.7203392386436462,-0.7530897259712219,0.27397260069847107
1772031867330798600,1.646798583984375,-0.7293777465820312,-0.8299267292022705,0.2614525258541107
1772031867340747500,1.65674755859375,-0.7243062257766724,-0.8472036719322205,0.18280737102031708
1772031867350696400,1.666696533203125,-0.7061788439750671,-0.82832270860672,0.06222102418541908
1772031867360645600,1.676645751953125,-0.6650263071060181,-0.7679504156112671,-0.08574454486370087
1772031867370594600,1.686594482421875,-0.6079808473587036,-0.6646512150764465,-0.23849095404148102
1772031867380543500,1.69654345703125,-0.5317850112915039,-0.5868996381759644,-0.36175429821014404
1772031867390492700,1.70649267578125,-0.39778807759284973,-0.533068060874939,-0.4798937141895294
1772031867400441600,1.716441650390625,-0.2482302188873291,-0.4619443118572235,-0.5858107805252075
1772031867410389800,1.7263896484375,-0.12501293420791626,-0.38795289397239685,-0.6770237684249878
1772031867420338700,1.736338623046875,-0.01378902979195118,-0.3215670585632324,-0.7484923005104065
1772031867430287600,1.74628759765625,0.0756516307592392,-0.25595104694366455,-0.8093327283859253
1772031867440236500,1.756236572265625,0.1511215716600418,-0.18145304918289185,-0.8357282280921936
1772031867450185500,1.766185546875,0.21075160801410675,-0.12814216315746307,-0.831588089466095
1772031867460134400,1.776134521484375,0.24153642356395721,-0.09954511374235153,-0.7838769555091858
1772031867470083600,1.78608349609375,0.25520244240760803,-0.08798246830701828,-0.7045943737030029
1772031867480032800,1.79603271484375,0.2569940984249115,-0.08204272389411926,-0.5993738174438477
1772031867489981700,1.805981689453125,0.2512155771255493,-0.118676096200943,-0.48009616136550903
1772031867499930600,1.8159306640625,0.23847825825214386,-0.18935750424861908,-0.3576793670654297
1772031867509879600,1.825879638671875,0.23759861290454865,-0.25693413615226746,-0.2518956661224365
1772031867519828500,1.835828369140625,0.2523249387741089,-0.2894405424594879,-0.18344943225383759
1772031867529777400,1.84577734375,0.2696482539176941,-0.3091455399990082,-0.15097644925117493
1772031867539726600,1.8557265625,0.2832541763782501,-0.31199246644973755,-0.14536039531230927
1772031867549675500,1.865675537109375,0.30027392506599426,-0.28671136498451233,-0.16641667485237122
1772031867559624700,1.875624755859375,0.3302220106124878,-0.20972540974617004,-0.20895345509052277
1772031867569573600,1.88557373046875,0.3519837558269501,-0.0978151187300682,-0.2697235643863678
1772031867579522600,1.8955224609375,0.3536030054092407,0.0011438550427556038,-0.3291710317134857
1772031867589471500,1.905471435546875,0.3405713438987732,0.09364476054906845,-0.37088361382484436
1772031867599420700,1.915420654296875,0.31717923283576965,0.19435036182403564,-0.40081101655960083
1772031867609368600,1.92536865234375,0.2747049927711487,0.26641976833343506,-0.3909040689468384
1772031867619317500,1.9353173828125,0.2016102522611618,0.23313234746456146,-0.3250710964202881
1772031867629266400,1.945266357421875,0.08591216057538986,0.09623788297176361,-0.19361428916454315
1772031867639215400,1.95521533203125,-0.04986346885561943,-0.0741574615240097,-0.03131477162241936
1772031867649164800,1.965164794921875,-0.18133628368377686,-0.18787896633148193,0.12521225214004517
1772031867659113700,1.97511376953125,-0.3233846127986908,-0.22825975716114044,0.2417263388633728
1772031867669062700,1.985062744140625,-0.43518438935279846,-0.2321098893880844,0.2927998900413513
1772031867679011600,1.995011474609375,-0.492297887802124,-0.14714539051055908,0.24586065113544464
1772031867688960500,2.00496044921875,-0.48872819542884827,0.07958336174488068,0.10684123635292053
1772031867698909400,2.014909423828125,-0.3169154226779938,0.3713703453540802,-0.14070147275924683
1772031867708858400,2.0248583984375,-0.029288683086633682,0.7042449116706848,-0.4363030195236206
1772031867718807600,2.0348076171875,0.25725218653678894,0.9561527371406555,-0.6827144026756287
1772031867728756700,2.0447568359375,0.4908929169178009,1.0262622833251953,-0.8120777010917664
1772031867738705700,2.05470556640625,0.6535659432411194,0.9131566286087036,-0.7732093334197998
1772031867748654600,2.064654541015625,0.738694429397583,0.6077362298965454,-0.5969493389129639
1772031867758603500,2.074603515625,0.7178913950920105,0.2003290206193924,-0.331511914730072
1772031867768552400,2.084552490234375,0.5645819902420044,-0.22124671936035156,-0.03046579472720623
1772031867778501600,2.094501708984375,0.3323834240436554,-0.5387285351753235,0.24470768868923187
1772031867788450600,2.104450439453125,0.10699480772018433,-0.6907521486282349,0.47723495960235596
1772031867798399500,2.1143994140625,-0.09932808578014374,-0.7029198408126831,0.6702390909194946
1772031867808347400,2.124347412109375,-0.27325567603111267,-0.6097326874732971,0.8537108898162842
1772031867818296600,2.134296630859375,-0.3908708393573761,-0.4959968328475952,1.0378109216690063
1772031867828245800,2.144245849609375,-0.43755632638931274,-0.40875542163848877,1.2041041851043701
1772031867838194700,2.154194580078125,-0.4179894030094147,-0.3550116717815399,1.3232395648956299
1772031867848143600,2.1641435546875,-0.3608691096305847,-0.295040488243103,1.3766357898712158
1772031867858092500,2.174092529296875,-0.2563807964324951,-0.2321985363960266,1.340834617614746
1772031867868041500,2.18404150390625,-0.0913257896900177,-0.1378840208053589,1.2197918891906738
1772031867877990400,2.193990478515625,0.10331016033887863,-0.023728851228952408,1.0427253246307373
1772031867887939300,2.203939208984375,0.3063892424106598,0.08675025403499603,0.826897144317627
1772031867897888800,2.213888671875,0.4898890256881714,0.17434148490428925,0.5996845364570618
1772031867907837700,2.223837646484375,0.6467002034187317,0.23170225322246552,0.3638208508491516
1772031867917786600,2.23378662109375,0.7543760538101196,0.23613718152046204,0.14683008193969727
1772031867927735600,2.243735595703125,0.8179867267608643,0.20537979900836945,-0.04621793329715729
1772031867937684500,2.2536845703125,0.8560909628868103,0.15063618123531342,-0.19532547891139984
1772031867947633400,2.26363330078125,0.8715503811836243,0.09387330710887909,-0.2874988317489624
1772031867957582600,2.27358251953125,0.8717736005783081,0.03657941520214081,-0.31889602541923523
1772031867967531800,2.28353173828125,0.86811763048172,-0.03627721592783928,-0.297504723072052
1772031867977480700,2.293480712890625,0.8603731989860535,-0.09457748383283615,-0.23916874825954437
1772031867987429600,2.3034296875,0.8571092486381531,-0.1412845253944397,-0.16982802748680115
1772031867997378600,2.313378662109375,0.8703947067260742,-0.1717972457408905,-0.11458238214254379
1772031868007327500,2.323327392578125,0.9061305522918701,-0.17086248099803925,-0.09938638657331467
1772031868017275600,2.333275634765625,0.9438798427581787,-0.13426607847213745,-0.13235747814178467
1772031868027224600,2.343224609375,0.969935417175293,-0.08615393936634064,-0.20342259109020233
1772031868037173500,2.353173583984375,0.9938793182373047,-0.02694348618388176,-0.2975060045719147
1772031868047122400,2.363122314453125,1.0005278587341309,0.027616696432232857,-0.4014694094657898
1772031868057071400,2.3730712890625,0.9701574444770813,0.07811756432056427,-0.49080801010131836
1772031868067020500,2.3830205078125,0.9026428461074829,0.09146186709403992,-0.5547260046005249
1772031868076969700,2.3929697265625,0.811835765838623,0.08370096981525421,-0.5973484516143799
1772031868086918700,2.402918701171875,0.684010922908783,0.0882192924618721,-0.625582754611969
1772031868096867600,2.41286767578125,0.5239055752754211,0.10895094275474548,-0.6341174840927124
1772031868106816500,2.42281640625,0.35213273763656616,0.12407956272363663,-0.6185070872306824
1772031868116765400,2.432765380859375,0.18768450617790222,0.12973450124263763,-0.5678383708000183
1772031868126714400,2.44271435546875,0.06088581308722496,0.13582274317741394,-0.47718146443367004
1772031868136663600,2.45266357421875,-0.02005358412861824,0.1583031415939331,-0.36073580384254456
1772031868146612700,2.46261279296875,-0.07158122956752777,0.19379401206970215,-0.2315024435520172
1772031868156561700,2.472561767578125,-0.0839867889881134,0.22710520029067993,-0.09234870225191116
1772031868166510600,2.482510498046875,-0.07162812352180481,0.2591515779495239,0.0348031222820282
1772031868176459500,2.49245947265625,-0.07000546157360077,0.2764878273010254,0.14668361842632294
1772031868186408400,2.502408447265625,-0.10055698454380035,0.26862403750419617,0.23141074180603027
1772031868196357400,2.512357421875,-0.1532634049654007,0.24843500554561615,0.27689626812934875
1772031868206305500,2.522305419921875,-0.22955605387687683,0.24287353456020355,0.2784952223300934
1772031868216254500,2.53225439453125,-0.31603339314460754,0.24872758984565735,0.2381058633327484
1772031868226203400,2.542203369140625,-0.4048785865306854,0.2571756839752197,0.1793738603591919
1772031868236152300,2.55215234375,-0.4894944131374359,0.24780848622322083,0.10961157828569412
1772031868246101500,2.5621015625,-0.5637105703353882,0.20961156487464905,0.03368911147117615
1772031868256050400,2.572050537109375,-0.6313087344169617,0.15925519168376923,-0.05640026181936264
1772031868265999600,2.58199951171875,-0.6750490069389343,0.12499016523361206,-0.1648300737142563
1772031868275948500,2.591948486328125,-0.6668325066566467,0.19494211673736572,-0.30634504556655884
1772031868285897500,2.6018974609375,-0.5814710259437561,0.4429910480976105,-0.4704647362232208
1772031868295846400,2.611846435546875,-0.4440849721431732,0.759957492351532,-0.6263934969902039
1772031868305795300,2.62179541015625,-0.31524789333343506,1.0327829122543335,-0.7272591590881348
1772031868315744500,2.63174462890625,-0.22205626964569092,1.148268461227417,-0.7382012009620667
1772031868325693400,2.641693359375,-0.1622011810541153,1.076600432395935,-0.6256464123725891
1772031868335642400,2.651642333984375,-0.13184110820293427,0.8517827391624451,-0.4149511158466339
1772031868345591600,2.661591552734375,-0.12618933618068695,0.553009569644928,-0.16861484944820404
1772031868355540500,2.67154052734375,-0.15569783747196198,0.28535252809524536,0.0450119823217392
1772031868365489400,2.681489501953125,-0.20585155487060547,0.13649830222129822,0.18950098752975464
1772031868375438300,2.691438232421875,-0.28757110238075256,0.04172823950648308,0.29949796199798584
1772031868385387500,2.701387451171875,-0.38335859775543213,-0.116838239133358,0.4251951575279236
1772031868395336400,2.71133642578125,-0.4740711450576782,-0.31381142139434814,0.5893794298171997
1772031868405284400,2.721284423828125,-0.5475243330001831,-0.5072333216667175,0.7698578834533691
1772031868415233300,2.7312333984375,-0.6370565295219421,-0.6663414835929871,0.9485388398170471
1772031868425182500,2.741182373046875,-0.7134056091308594,-0.7863238453865051,1.0902161598205566
1772031868435131600,2.751131591796875,-0.7617321014404297,-0.827668309211731,1.1704384088516235
1772031868445080600,2.76108056640625,-0.7893723249435425,-0.77895188331604,1.17778742313385
1772031868455029500,2.771029541015625,-0.7883732318878174,-0.6575483083724976,1.1093404293060303
1772031868464978400,2.780978515625,-0.7714278101921082,-0.4700670838356018,0.9802954196929932
1772031868474927400,2.79092724609375,-0.7332051992416382,-0.2672061622142792,0.8091082572937012
1772031868484876300,2.800876220703125,-0.6679585576057434,-0.08144721388816833,0.6192246079444885
1772031868494825500,2.810825439453125,-0.5735595226287842,0.06784287095069885,0.42824772000312805
1772031868504774400,2.8207744140625,-0.4617680609226227,0.18217530846595764,0.24016809463500977
1772031868514723600,2.8307236328125,-0.34471625089645386,0.27101415395736694,0.07628986239433289
1772031868524672500,2.840672607421875,-0.230313241481781,0.33030062913894653,-0.05590146780014038
1772031868534621400,2.850621337890625,-0.10796170681715012,0.3832533061504364,-0.17818817496299744
1772031868544570400,2.8605703125,0.024785947054624557,0.4728465676307678,-0.30186402797698975
1772031868554519300,2.870519287109375,0.1534416526556015,0.5548363327980042,-0.4250304698944092
1772031868564468500,2.880468505859375,0.25562477111816406,0.570917010307312,-0.5102489590644836
1772031868574417400,2.89041748046875,0.3422178030014038,0.4719962179660797,-0.5414488315582275
1772031868584366600,2.90036669921875,0.3756287693977356,0.2736165523529053,-0.500847339630127
1772031868594315500,2.9103154296875,0.3492863178253174,-0.03079712949693203,-0.40068742632865906
1772031868604264400,2.920264404296875,0.25662267208099365,-0.36392876505851746,-0.2581166923046112
1772031868614212600,2.930212646484375,0.11881611496210098,-0.6607939004898071,-0.10646103322505951
1772031868624161500,2.94016162109375,-0.029165619984269142,-0.8482120037078857,0.03854728862643242
1772031868634110500,2.9501103515625,-0.14525386691093445,-0.9415379166603088,0.14032229781150818
1772031868644059400,2.960059326171875,-0.226767897605896,-0.9495790600776672,0.20843183994293213
1772031868654008300,2.97000830078125,-0.2617133855819702,-0.8959602117538452,0.23572349548339844
1772031868663957200,2.979957275390625,-0.2622643709182739,-0.8307609558105469,0.22831884026527405
1772031868673906400,2.989906494140625,-0.2331998199224472,-0.7623512744903564,0.19159050285816193
1772031868683855600,2.999855712890625,-0.16940991580486298,-0.6897189021110535,0.12556302547454834
1772031868693804500,3.009804443359375,-0.08249669522047043,-0.6066152453422546,0.037414148449897766
1772031868703753500,3.01975341796875,0.015781402587890625,-0.5221853256225586,-0.07431371510028839
1772031868713702400,3.029702392578125,0.11445674300193787,-0.4208502173423767,-0.20511603355407715
1772031868723651300,3.0396513671875,0.21150553226470947,-0.30662164092063904,-0.33761629462242126
1772031868733600300,3.049600341796875,0.3075920641422272,-0.20152553915977478,-0.44733405113220215
1772031868743549400,3.059549560546875,0.3778529167175293,-0.12188690155744553,-0.5309820771217346
1772031868753498600,3.06949853515625,0.42668911814689636,-0.07250930368900299,-0.5881242752075195
1772031868763447600,3.079447509765625,0.456115186214447,-0.016203688457608223,-0.6199498176574707
1772031868773396500,3.089396484375,0.46296054124832153,0.04279859736561775,-0.6130390763282776
1772031868783345400,3.099345458984375,0.4531286656856537,0.06811673194169998,-0.5710849761962891
1772031868793294300,3.10929443359375,0.43804487586021423,0.089906707406044,-0.4999014437198639
1772031868803242500,3.119242431640625,0.41336536407470703,0.11438648402690887,-0.43261322379112244
1772031868813191400,3.12919140625,0.3894488513469696,0.1403174102306366,-0.3797609210014343
1772031868823140400,3.139140380859375,0.36076581478118896,0.17633213102817535,-0.3399738371372223
1772031868833089300,3.14908935546875,0.3377465009689331,0.21152207255363464,-0.3140426278114319
1772031868843038500,3.15903857421875,0.3169640004634857,0.2264440357685089,-0.2857270836830139
1772031868852987600,3.168987548828125,0.29532793164253235,0.24620255827903748,-0.254410982131958
1772031868862936600,3.1789365234375,0.2623175382614136,0.2523840367794037,-0.21115538477897644
1772031868872885500,3.188885498046875,0.22537870705127716,0.2331141084432602,-0.14782020449638367
1772031868882834400,3.19883447265625,0.16888320446014404,0.18896742165088654,-0.06347762048244476
1772031868892783400,3.208783447265625,0.11685164272785187,0.1285170316696167,0.028959065675735474
1772031868902732300,3.218732177734375,0.08725540339946747,0.10388892889022827,0.09594769030809402
1772031868912681200,3.22868115234375,0.07875043153762817,0.1191568672657013,0.12261912971735
1772031868922630700,3.238630615234375,0.08780491352081299,0.14782500267028809,0.1083078384399414
1772031868932579600,3.24857958984375,0.09299267083406448,0.16664917767047882,0.07735476642847061
1772031868942528500,3.258528564453125,0.10845924913883209,0.16274763643741608,0.030695388093590736
1772031868952477400,3.2684775390625,0.11233385652303696,0.16526253521442413,-0.01414872333407402
1772031868962426400,3.27842626953125,0.10582508891820908,0.13879817724227905,-0.027349747717380524
1772031868972375300,3.288375244140625,0.09001139551401138,0.09745896607637405,-0.00764218857511878
1772031868982324500,3.298324462890625,0.05078916251659393,0.05109972134232521,0.027592230588197708
1772031868992272400,3.3082724609375,-0.012741779908537865,0.014446565881371498,0.06218394264578819
1772031869002221300,3.31822119140625,-0.09715653210878372,-0.004221393261104822,0.0703931376338005
1772031869012170500,3.32817041015625,-0.1986299455165863,-0.03501289337873459,0.05312724411487579
1772031869022119400,3.338119384765625,-0.2569848597049713,0.003635966219007969,-0.029109835624694824
1772031869032068600,3.348068603515625,-0.19151608645915985,0.21523414552211761,-0.20787431299686432
1772031869042017500,3.358017578125,0.04388337582349777,0.521858274936676,-0.48233917355537415
1772031869051966500,3.367966552734375,0.3824758231639862,0.8140087127685547,-0.8066914677619934
1772031869061915400,3.377915283203125,0.6897695064544678,1.0775585174560547,-1.0702635049819946
1772031869071864300,3.3878642578125,0.927875280380249,1.1294392347335815,-1.1577836275100708
1772031869081813200,3.397813232421875,1.0459386110305786,0.9694200754165649,-1.0242478847503662
1772031869091762400,3.407762451171875,1.059421181678772,0.5970515012741089,-0.7163916826248169
1772031869101711600,3.417711669921875,0.9161389470100403,0.1767279952764511,-0.29747170209884644
1772031869111660500,3.42766064453125,0.6033943295478821,-0.1804329752922058,0.15356531739234924
1772031869121609500,3.437609375,0.20859716832637787,-0.46521836519241333,0.5755186676979065
1772031869131558400,3.447558349609375,-0.17345629632472992,-0.6141326427459717,0.9150279760360718
1772031869141507300,3.45750732421875,-0.47517964243888855,-0.6365146636962891,1.1574733257293701
1772031869151456300,3.467456298828125,-0.7173364162445068,-0.5474358797073364,1.333197832107544
1772031869161405400,3.477405517578125,-0.8657381534576416,-0.4769260287284851,1.438452959060669
1772031869171354600,3.487354736328125,-0.8970344066619873,-0.41214215755462646,1.4732074737548828
1772031869181302500,3.497302490234375,-0.8386829495429993,-0.33388036489486694,1.435222864151001
1772031869191251500,3.50725146484375,-0.7093514800071716,-0.24922455847263336,1.3285984992980957
1772031869201200400,3.517200439453125,-0.5306642651557922,-0.16535308957099915,1.1648889780044556
1772031869211149600,3.527149658203125,-0.30770203471183777,-0.05901005119085312,0.966743528842926
1772031869221098500,3.537098388671875,-0.08134051412343979,0.04928126558661461,0.755082905292511
1772031869231047700,3.547047607421875,0.10539845377206802,0.14477497339248657,0.5542974472045898
1772031869240996600,3.55699658203125,0.24029794335365295,0.17765675485134125,0.3792497217655182
1772031869250945800,3.56694580078125,0.3178863823413849,0.16455881297588348,0.23743055760860443
1772031869260894700,3.576894775390625,0.3525588810443878,0.12992599606513977,0.12812910974025726
1772031869270843600,3.58684375,0.3514832854270935,0.06281745433807373,0.057836778461933136
1772031869280792800,3.596792724609375,0.32248756289482117,-0.03285207599401474,0.016084803268313408
1772031869290741800,3.60674169921875,0.27070552110671997,-0.11780797690153122,-0.0007607322186231613
1772031869300690700,3.616690673828125,0.20305590331554413,-0.18071956932544708,-0.005334445275366306
1772031869310639600,3.6266396484375,0.13688422739505768,-0.224297434091568,-0.00608635600656271
1772031869320588500,3.636588623046875,0.07925209403038025,-0.23294445872306824,-0.006652544252574444
1772031869330537700,3.646537841796875,0.03717249631881714,-0.23137351870536804,-0.018265027552843094
1772031869340486700,3.656486572265625,0.014033623039722443,-0.22744642198085785,-0.04302683472633362
1772031869350435800,3.666435791015625,0.0025292993523180485,-0.23315010964870453,-0.08134333044290543
1772031869360384800,3.676384765625,0.01521846279501915,-0.24914903938770294,-0.1349940299987793
1772031869370333700,3.686333740234375,0.051224485039711,-0.2457592636346817,-0.20996080338954926
1772031869380282600,3.69628271484375,0.09331761300563812,-0.2158690243959427,-0.3053104877471924
1772031869390230500,3.70623046875,0.1365244835615158,-0.17622622847557068,-0.4230470657348633
1772031869400179700,3.7161796875,0.17763757705688477,-0.1322537064552307,-0.5512567162513733
1772031869410128600,3.726128662109375,0.19240248203277588,-0.09674791991710663,-0.6869261264801025
1772031869420077800,3.736077880859375,0.17895059287548065,-0.0732460543513298,-0.8028191924095154
1772031869430026800,3.74602685546875,0.15279754996299744,-0.04934711381793022,-0.893641471862793
1772031869439975700,3.7559755859375,0.117649145424366,-0.04234859347343445,-0.9470674395561218
1772031869449924600,3.765924560546875,0.07084710896015167,-0.052917905151844025,-0.957729697227478
1772031869459873800,3.775873779296875,0.013381150551140308,-0.08573231101036072,-0.9247552752494812
1772031869469822700,3.78582275390625,-0.05230854079127312,-0.13449129462242126,-0.8501232862472534
1772031869479771600,3.795771728515625,-0.134362131357193,-0.1933913677930832,-0.7526246905326843
1772031869489720600,3.805720458984375,-0.24226346611976624,-0.2453557252883911,-0.6414991021156311
1772031869499669800,3.815669677734375,-0.36939823627471924,-0.2722161114215851,-0.5340237617492676
1772031869509618700,3.82561865234375,-0.4945821762084961,-0.25576838850975037,-0.4417147636413574
1772031869519567600,3.835567626953125,-0.5945372581481934,-0.20730231702327728,-0.3659994900226593
1772031869529516800,3.845516845703125,-0.6755131483078003,-0.1393636167049408,-0.3097229301929474
1772031869539465700,3.8554658203125,-0.7227333784103394,-0.0761934444308281,-0.2710959017276764
1772031869549414700,3.86541455078125,-0.7330527901649475,-0.020220674574375153,-0.24838320910930634
1772031869559363600,3.875363525390625,-0.701704204082489,0.038661547005176544,-0.2368764877319336
1772031869569312500,3.8853125,-0.6402574777603149,0.0919809639453888,-0.22947748005390167
1772031869579260700,3.8952607421875,-0.5722821354866028,0.14385613799095154,-0.21084865927696228
1772031869589209900,3.9052099609375,-0.5246930122375488,0.17883123457431793,-0.16946396231651306
1772031869599158800,3.91515869140625,-0.5048069357872009,0.20169393718242645,-0.09476468712091446
1772031869609107700,3.925107666015625,-0.5042502284049988,0.21483172476291656,-0.011373263783752918
1772031869619056600,3.935056640625,-0.5351833701133728,0.19487427175045013,0.0937291830778122
1772031869629005600,3.945005615234375,-0.5938342213630676,0.11560375988483429,0.2180601805448532
1772031869638954800,3.954954833984375,-0.6323121190071106,0.05050944164395332,0.3187154233455658
1772031869648903700,3.964903564453125,-0.6247063279151917,0.030242059379816055,0.3825586438179016
1772031869658852600,3.9748525390625,-0.6062780618667603,0.04219432920217514,0.4020460546016693
1772031869668801800,3.9848017578125,-0.5652928948402405,0.06354209035634995,0.38636985421180725
1772031869678750700,3.994750732421875,-0.5059598088264465,0.10732285678386688,0.35317808389663696
1772031869688699600,4.00469970703125,-0.45155736804008484,0.1266961395740509,0.3105810284614563
1772031869698648600,4.014648681640625,-0.40141379833221436,0.1677711457014084,0.2556847631931305
1772031869708597800,4.02459765625,-0.3579827547073364,0.27463674545288086,0.21226941049098969
1772031869718546700,4.034546630859375,-0.32004281878471375,0.4321286380290985,0.19234630465507507
1772031869728495600,4.04449560546875,-0.2977900207042694,0.5705172419548035,0.20009489357471466
1772031869738444800,4.05444482421875,-0.2785857021808624,0.7039533257484436,0.2074926197528839
1772031869748393700,4.064393798828125,-0.27012142539024353,0.7595221996307373,0.21951057016849518
1772031869758342700,4.0743427734375,-0.2769013047218323,0.6795661449432373,0.2740188241004944
1772031869768290800,4.084290771484375,-0.2794334292411804,0.49312281608581543,0.3679969310760498
1772031869778239700,4.09423974609375,-0.29473063349723816,0.2604227364063263,0.49085894227027893
1772031869788188700,4.104188720703125,-0.33645883202552795,0.05911416932940483,0.6307702660560608
1772031869798137600,4.1141376953125,-0.3648422658443451,-0.05557992309331894,0.7469993829727173
1772031869808086500,4.12408642578125,-0.37599247694015503,-0.07670330256223679,0.8180504441261292
1772031869818035700,4.13403564453125,-0.37693148851394653,-0.042752787470817566,0.8411555290222168
1772031869827985000,4.14398486328125,-0.35557636618614197,0.018387096002697945,0.8145703077316284
1772031869837933800,4.153933837890625,-0.31859278678894043,0.07176908850669861,0.7549442648887634
1772031869847882800,4.1638828125,-0.2640555202960968,0.09850810468196869,0.677163302898407
1772031869857831700,4.173831787109375,-0.19133710861206055,0.10551781207323074,0.5886579155921936
1772031869867780600,4.183780517578125,-0.11347122490406036,0.09180042147636414,0.49237462878227234
1772031869877729500,4.1937294921875,-0.03775356709957123,0.0882783904671669,0.3887885808944702
1772031869887678700,4.2036787109375,0.026406673714518547,0.054035574197769165,0.2935772240161896
1772031869897627600,4.213627685546875,0.07362665235996246,0.014074573293328285,0.20195569097995758
1772031869907576800,4.223576904296875,0.11779922246932983,-0.04190618917346001,0.12137836217880249
1772031869917525800,4.23352587890625,0.16533158719539642,-0.11947181820869446,0.05658259242773056
1772031869927474700,4.243474609375,0.19378866255283356,-0.20975622534751892,0.012541670352220535
1772031869937423600,4.253423583984375,0.20861820876598358,-0.30332720279693604,-0.011943166144192219
1772031869947372800,4.263372802734375,0.21025565266609192,-0.4064081013202667,-0.018362462520599365
1772031869957320700,4.27332080078125,0.19216212630271912,-0.4848552346229553,-0.0081068966537714
1772031869967269600,4.28326953125,0.15648852288722992,-0.5379579663276672,0.010036595165729523
1772031869977218600,4.293218505859375,0.10960488766431808,-0.5676500797271729,0.02176302671432495
1772031869987167500,4.30316748046875,0.06929492950439453,-0.5789414644241333,0.029997624456882477
1772031869997117000,4.313116943359375,0.03753354400396347,-0.5861833691596985,0.03074171394109726
1772031870007065900,4.32306591796875,0.02370755560696125,-0.5814143419265747,0.021565206348896027
1772031870017014800,4.333014892578125,0.02912815287709236,-0.5621434450149536,-0.004891965538263321
1772031870026963700,4.342963623046875,0.05010611563920975,-0.5055162906646729,-0.051468197256326675
1772031870036912600,4.35291259765625,0.07372622191905975,-0.43685388565063477,-0.12126965075731277
1772031870046861600,4.362861572265625,0.09192240983247757,-0.3639228940010071,-0.1900702714920044
1772031870056810500,4.372810546875,0.10514846444129944,-0.30505824089050293,-0.26347336173057556
1772031870066759700,4.382759765625,0.11231105029582977,-0.248733252286911,-0.3283461630344391
1772031870076708900,4.392708984375,0.11127614974975586,-0.20219452679157257,-0.3854736387729645
1772031870086657800,4.40265771484375,0.10474573820829391,-0.16253367066383362,-0.4249991774559021
1772031870096606700,4.412606689453125,0.09551095962524414,-0.13106629252433777,-0.447124719619751
1772031870106555600,4.4225556640625,0.0878836140036583,-0.10976133495569229,-0.4483559727668762
1772031870116504600,4.432504638671875,0.08086857944726944,-0.09034635871648788,-0.42526236176490784
1772031870126453800,4.442453857421875,0.07431726157665253,-0.08230021595954895,-0.3862805962562561
1772031870136402700,4.452402587890625,0.06274396181106567,-0.06623788923025131,-0.3383285105228424
1772031870146350600,4.4623505859375,0.055627383291721344,-0.03427582234144211,-0.28906211256980896
1772031870156299500,4.472299560546875,0.04369881749153137,-0.005573867820203304,-0.24468904733657837
1772031870166248700,4.482248779296875,0.03803115710616112,0.028670916333794594,-0.2138262391090393
1772031870176198000,4.492197998046875,0.03526546433568001,0.07561392337083817,-0.1981058567762375
1772031870186146800,4.502146728515625,0.03964921087026596,0.12953801453113556,-0.19603148102760315
1772031870196095700,4.512095703125,0.05209336429834366,0.1837538480758667,-0.20289471745491028
1772031870206044700,4.522044677734375,0.07383496314287186,0.24755717813968658,-0.21152660250663757
1772031870215993600,4.53199365234375,0.09971050173044205,0.3088535666465759,-0.21811605989933014
1772031870225942500,4.541942626953125,0.12387143820524216,0.3510856330394745,-0.22592101991176605
1772031870235891000,4.551890869140625,0.1604832410812378,0.39547199010849,-0.23696354031562805
1772031870245840000,4.56183984375,0.200020432472229,0.4381958842277527,-0.26018431782722473
1772031870255788800,4.571788818359375,0.22199657559394836,0.46698248386383057,-0.27732229232788086
1772031870265737700,4.58173779296875,0.22465825080871582,0.441982239484787,-0.265230655670166
1772031870275686700,4.591686767578125,0.21099835634231567,0.3358227610588074,-0.22527526319026947
1772031870285635600,4.601635498046875,0.17594170570373535,0.17288680374622345,-0.15024198591709137
1772031870295585000,4.6115849609375,0.14182794094085693,0.016446862369775772,-0.05335564911365509
1772031870305534000,4.621533935546875,0.1404096484184265,-0.07198284566402435,0.03452051058411598
1772031870315483000,4.63148291015625,0.15113605558872223,-0.1374201774597168,0.08883780986070633
1772031870325431800,4.641431884765625,0.14454694092273712,-0.18697109818458557,0.08498656004667282
1772031870335379700,4.651379638671875,0.18197767436504364,-0.13869944214820862,0.0066243791952729225
1772031870345329000,4.661328857421875,0.3259212076663971,0.05235778167843819,-0.1463375687599182
1772031870355277800,4.67127783203125,0.5427595376968384,0.30400145053863525,-0.3538966178894043
1772031870365226800,4.681226806640625,0.7782553434371948,0.4906361699104309,-0.583124577999115
1772031870375175700,4.69117578125,0.9646143317222595,0.6551707983016968,-0.7656627297401428
1772031870385124900,4.701124755859375,1.0936191082000732,0.6893596649169922,-0.8336414098739624
1772031870395073800,4.71107373046875,1.115822672843933,0.5981696248054504,-0.737820565700531
1772031870405023000,4.72102294921875,1.0477768182754517,0.3616490960121155,-0.48472291231155396
1772031870414972000,4.730971923828125,0.9191417694091797,0.047697290778160095,-0.14332962036132812
1772031870424920800,4.7409208984375,0.7070042490959167,-0.2159791886806488,0.22590263187885284
1772031870434869800,4.750869873046875,0.4413051903247833,-0.37233710289001465,0.5778931379318237
1772031870444818700,4.760818603515625,0.21404026448726654,-0.44132906198501587,0.8675564527511597
1772031870454767600,4.770767578125,0.09122460335493088,-0.37241390347480774,1.0664581060409546
1772031870464716800,4.780716796875,0.04219039902091026,-0.2374289184808731,1.1897681951522827
1772031870474666000,4.790666015625,0.03868408128619194,-0.11719625443220139,1.2496283054351807
1772031870484615000,4.800614990234375,0.08267729729413986,-0.04260750859975815,1.255215048789978
1772031870494563800,4.810563720703125,0.16115905344486237,0.006502778735011816,1.2106646299362183
1772031870504512800,4.8205126953125,0.24275091290473938,0.06194270774722099,1.1383333206176758
1772031870514461000,4.8304609375,0.3298642337322235,0.12066860496997833,1.0308135747909546
1772031870524409900,4.840409912109375,0.41934165358543396,0.17702548205852509,0.8928635716438293
1772031870534358800,4.85035888671875,0.49793311953544617,0.25974059104919434,0.7301111817359924
1772031870544307700,4.8603076171875,0.567541241645813,0.3443748652935028,0.5582465529441833
1772031870554257000,4.8702568359375,0.636576235294342,0.392885684967041,0.39577215909957886
1772031870564205800,4.880205810546875,0.7037959694862366,0.38047918677330017,0.2444586455821991
1772031870574154800,4.89015478515625,0.7590099573135376,0.3646259307861328,0.12161900103092194
1772031870584104000,4.90010400390625,0.7895153164863586,0.3612019419670105,0.031558819115161896
1772031870594052900,4.910052978515625,0.7949510812759399,0.3613918125629425,-0.004093981347978115
1772031870604001800,4.920001708984375,0.7757073640823364,0.3590954542160034,0.006918392144143581
1772031870613950700,4.92995068359375,0.7452274560928345,0.36317193508148193,0.06283332407474518
1772031870623899600,4.939899658203125,0.7077184319496155,0.3611365854740143,0.1385931819677353
1772031870633848800,4.949848876953125,0.6619501113891602,0.3403588533401489,0.21041011810302734
1772031870643797800,4.9597978515625,0.6075802445411682,0.29384270310401917,0.2716597318649292
1772031870653747000,4.969746826171875,0.5444326996803284,0.23850010335445404,0.31405991315841675
1772031870663696000,4.97969580078125,0.4587607681751251,0.17808738350868225,0.3419102728366852
1772031870673644800,4.989644775390625,0.3869190812110901,0.09420260787010193,0.34466293454170227
1772031870683593700,4.99959375,0.31675541400909424,0.028200527653098106,0.31870126724243164
1772031870693542700,5.009542724609375,0.2584654688835144,0.001370245823636651,0.2769647538661957
1772031870703490800,5.01949072265625,0.2180843949317932,0.015111456625163555,0.21823233366012573
1772031870713439700,5.029439697265625,0.1918645054101944,0.05526873096823692,0.1513286679983139
1772031870723389000,5.039388916015625,0.18620514869689941,0.09397663921117783,0.05048033595085144
1772031870733337900,5.049337890625,0.18546879291534424,0.1527339667081833,-0.08097009360790253
1772031870743286800,5.059286865234375,0.18446069955825806,0.23289965093135834,-0.24113471806049347
1772031870753235700,5.069235595703125,0.16919812560081482,0.31328529119491577,-0.38207346200942993
1772031870763185000,5.079184814453125,0.13963943719863892,0.36194270849227905,-0.4643600881099701
1772031870773133800,5.0891337890625,0.11092230677604675,0.347969114780426,-0.47124436497688293
1772031870783082800,5.099082763671875,0.0821424201130867,0.2676498293876648,-0.43263816833496094
1772031870793032000,5.109031982421875,0.053340598940849304,0.1898636817932129,-0.3724062442779541
1772031870802980900,5.11898095703125,-0.021406203508377075,0.11505340784788132,-0.29945194721221924
1772031870812929800,5.1289296875,-0.11050678789615631,0.039939478039741516,-0.21878665685653687
1772031870822878700,5.138878662109375,-0.20224136114120483,-0.01954282633960247,-0.1301228404045105
1772031870832828000,5.148827880859375,-0.27286678552627563,-0.03861771896481514,-0.03952743113040924
1772031870842776800,5.15877685546875,-0.2979964017868042,-0.027331145480275154,0.03393758088350296
1772031870852725800,5.168725830078125,-0.313138872385025,0.013766489923000336,0.10167082399129868
1772031870862674700,5.1786748046875,-0.3063400089740753,0.0965370461344719,0.15898726880550385
1772031870872623900,5.188623779296875,-0.27982664108276367,0.19603008031845093,0.20094403624534607
1772031870882572800,5.19857275390625,-0.2244003415107727,0.2966747283935547,0.22717779874801636
1772031870892521000,5.20852099609375,-0.17590603232383728,0.3836221396923065,0.2528645396232605
1772031870902470000,5.218469970703125,-0.12586188316345215,0.41671693325042725,0.294301837682724
1772031870912418800,5.228418701171875,-0.07981209456920624,0.3966558873653412,0.35048016905784607
1772031870922367700,5.23836767578125,-0.05027683824300766,0.30197131633758545,0.41568660736083984
1772031870932316700,5.248316650390625,-0.04962170124053955,0.16226138174533844,0.4672243595123291
1772031870942265900,5.258265869140625,-0.06566701084375381,0.04344679042696953,0.4819951355457306
1772031870952214800,5.26821484375,-0.08773662149906158,-0.03604670241475105,0.44719481468200684
1772031870962164000,5.2781640625,-0.11200308054685593,-0.06417141109704971,0.3596004843711853
1772031870972113000,5.28811279296875,-0.12536177039146423,-0.012581724673509598,0.22060905396938324
1772031870982061800,5.298061767578125,-0.13917584717273712,0.07714590430259705,0.057201508432626724
1772031870992010800,5.3080107421875,-0.1594552844762802,0.16983509063720703,-0.10225792229175568
1772031871001959700,5.317959716796875,-0.17335906624794006,0.25321754813194275,-0.22825974225997925
1772031871011908900,5.327908935546875,-0.16206327080726624,0.2788699269294739,-0.30416515469551086
1772031871021857800,5.33785791015625,-0.14037413895130157,0.2561008036136627,-0.34513261914253235
1772031871031806700,5.347806640625,-0.11888828873634338,0.19204272329807281,-0.3602742850780487
1772031871041756000,5.357755859375,-0.09763522446155548,0.1157243475317955,-0.34704890847206116
1772031871051704800,5.367704833984375,-0.08813333511352539,-0.018000690266489983,-0.2850816547870636
1772031871061653800,5.37765380859375,-0.09853252023458481,-0.20464526116847992,-0.1711084544658661
1772031871071603000,5.38760302734375,-0.14205017685890198,-0.4003111720085144,-0.008928862400352955
1772031871081550800,5.39755078125,-0.19580243527889252,-0.5683708190917969,0.16586190462112427
1772031871091499800,5.407499755859375,-0.24317634105682373,-0.6577494740486145,0.31610360741615295
1772031871101448700,5.41744873046875,-0.32477250695228577,-0.6753556728363037,0.4411705434322357
1772031871111397600,5.427397705078125,-0.394546777009964,-0.6749809384346008,0.5192147493362427
1772031871121346800,5.437346923828125,-0.46473777294158936,-0.6352773904800415,0.5484964847564697
1772031871131296000,5.4472958984375,-0.532468855381012,-0.5593327879905701,0.5243061780929565
1772031871141245000,5.457244873046875,-0.5852963328361511,-0.46608075499534607,0.45377466082572937
1772031871151193900,5.46719384765625,-0.6178524494171143,-0.36943143606185913,0.3320447504520416
1772031871161142800,5.477142822265625,-0.6243872046470642,-0.26003992557525635,0.16630282998085022
1772031871171091700,5.487091796875,-0.6098612546920776,-0.15126660466194153,-0.026518292725086212
1772031871181040600,5.49704052734375,-0.5637375712394714,-0.08912882208824158,-0.21586544811725616
1772031871190989800,5.50698974609375,-0.49796009063720703,-0.08548455685377121,-0.38161662220954895
1772031871200938800,5.516938720703125,-0.4099177420139313,-0.08226592093706131,-0.5357768535614014
1772031871210888000,5.526887939453125,-0.3196711838245392,-0.028966475278139114,-0.6630200147628784
1772031871220836900,5.5368369140625,-0.24506326019763947,0.038989655673503876,-0.7384862899780273
1772031871230785800,5.546785888671875,-0.1911824643611908,0.07423153519630432,-0.730441153049469
1772031871240734700,5.556734619140625,-0.1663651019334793,0.07272550463676453,-0.6494177579879761
1772031871250684000,5.566683837890625,-0.1732560247182846,0.019703300669789314,-0.5237855315208435
1772031871260631800,5.5766318359375,-0.2209668606519699,-0.06334449350833893,-0.367697536945343
1772031871270580700,5.586580810546875,-0.30685004591941833,-0.1852128803730011,-0.2021498680114746
1772031871280530000,5.596530029296875,-0.4092620611190796,-0.30755728483200073,-0.04420623555779457
1772031871290478800,5.606478759765625,-0.4934304654598236,-0.37859392166137695,0.08861172944307327
1772031871300428000,5.616427978515625,-0.5612083077430725,-0.4044876992702484,0.1938517987728119
1772031871310377000,5.626376953125,-0.6167887449264526,-0.3802958130836487,0.27848225831985474
1772031871320326000,5.636325927734375,-0.6332853436470032,-0.3262159526348114,0.3222089111804962
1772031871330274800,5.64627490234375,-0.6285459995269775,-0.2614430785179138,0.33615005016326904
1772031871340223700,5.6562236328125,-0.6121819615364075,-0.19117867946624756,0.30974411964416504
1772031871350172700,5.666172607421875,-0.5840150713920593,-0.11980009824037552,0.25240597128868103
1772031871360121900,5.676121826171875,-0.5295289158821106,-0.05127914994955063,0.1644468605518341
1772031871370071000,5.686071044921875,-0.46550440788269043,0.011438561603426933,0.0688961073756218
1772031871380020000,5.69602001953125,-0.40029385685920715,0.05679009109735489,-0.02126910910010338
1772031871389969000,5.705968994140625,-0.3335294723510742,0.0966179296374321,-0.10030986368656158
1772031871399917800,5.715917724609375,-0.2796200215816498,0.12661398947238922,-0.1598527431488037
1772031871409866800,5.72586669921875,-0.23764197528362274,0.13852018117904663,-0.1892005205154419
1772031871419815700,5.735815673828125,-0.20368202030658722,0.14991453289985657,-0.19666585326194763
1772031871429763800,5.745763916015625,-0.172783762216568,0.14285476505756378,-0.17736512422561646
1772031871439712800,5.755712646484375,-0.14594121277332306,0.13926592469215393,-0.13388118147850037
1772031871449662000,5.765661865234375,-0.1287134885787964,0.15041978657245636,-0.06808431446552277
1772031871459611000,5.77561083984375,-0.10389194637537003,0.16581551730632782,0.026963142678141594
1772031871469559800,5.785559814453125,-0.08872897177934647,0.14630866050720215,0.1489151567220688
1772031871479509000,5.795509033203125,-0.07657614350318909,0.10555154085159302,0.269214004278183
1772031871489458000,5.8054580078125,-0.06697571277618408,0.06107914447784424,0.3497626483440399
1772031871499406800,5.81540673828125,-0.05342831462621689,0.025631241500377655,0.38787928223609924
1772031871509355800,5.825355712890625,-0.034627996385097504,0.02085086703300476,0.3831058442592621
1772031871519304700,5.8353046875,-0.016037562862038612,0.039152733981609344,0.36362332105636597
1772031871529254000,5.84525390625,-0.002552380319684744,0.04623567685484886,0.35047024488449097
1772031871539202800,5.855202880859375,-0.0013303628657013178,0.016296397894620895,0.33420833945274353
1772031871549152000,5.865152099609375,-0.005081691779196262,-0.019519923254847527,0.30682066082954407
1772031871559101000,5.875100830078125,0.02054644003510475,-0.012145765125751495,0.24477563798427582
1772031871569049900,5.8850498046875,0.059639252722263336,0.024877233430743217,0.1652909368276596
1772031871578998800,5.894998779296875,0.11323826760053635,0.04627969488501549,0.09195161610841751
1772031871588947700,5.90494775390625,0.16698431968688965,0.03141818940639496,0.0566713884472847
1772031871598896600,5.914896728515625,0.20507216453552246,-0.036735933274030685,0.05844731256365776
1772031871608845800,5.924845703125,0.1953502893447876,-0.17345622181892395,0.10592801123857498
1772031871618794000,5.9347939453125,0.14434826374053955,-0.36673420667648315,0.19679538905620575
1772031871628743000,5.944742919921875,0.05279838666319847,-0.5906370878219604,0.29016634821891785
1772031871638691800,5.95469189453125,-0.07005363702774048,-0.7452075481414795,0.3445504903793335
1772031871648640800,5.964640869140625,-0.18107709288597107,-0.7315998673439026,0.3548169732093811
1772031871658590000,5.97458984375,-0.17023757100105286,-0.5754407048225403,0.3185141384601593
1772031871668539000,5.984538818359375,-0.027392003685235977,-0.2735402584075928,0.22354499995708466
1772031871678487800,5.99448779296875,0.1889575570821762,0.15334612131118774,0.024599891155958176
1772031871688436700,6.004436767578125,0.4429062008857727,0.5508684515953064,-0.2494811862707138
1772031871698386000,6.014385986328125,0.6463930010795593,0.7863458395004272,-0.5002356767654419
1772031871708334800,6.0243349609375,0.7975425720214844,0.8047693371772766,-0.6788850426673889
1772031871718283800,6.03428369140625,0.8511365056037903,0.6443911790847778,-0.7429766058921814
1772031871728233000,6.04423291015625,0.7741237282752991,0.3229002356529236,-0.6665306091308594
1772031871738182000,6.054181884765625,0.5814636945724487,-0.053564246743917465,-0.4675176739692688
1772031871748130800,6.064130859375,0.33740469813346863,-0.3681221902370453,-0.19854745268821716
1772031871758079700,6.074079833984375,0.12669244408607483,-0.577470064163208,0.0734822005033493
1772031871768029000,6.08402880859375,-0.09138395637273788,-0.5952746272087097,0.3313789963722229
1772031871777977900,6.093977783203125,-0.2336064577102661,-0.5828223824501038,0.5449990034103394
1772031871787927000,6.103927001953125,-0.3034031093120575,-0.5246357917785645,0.7038214206695557
1772031871797875000,6.113875,-0.2976170778274536,-0.42426154017448425,0.7934853434562683
1772031871807824000,6.123823974609375,-0.25165650248527527,-0.30832695960998535,0.8225979208946228
1772031871817772800,6.133772705078125,-0.19331048429012299,-0.19209465384483337,0.8033578991889954
1772031871827721700,6.1437216796875,-0.13417339324951172,-0.09149374812841415,0.7456117868423462
1772031871837671000,6.1536708984375,-0.10088635981082916,-0.049477048218250275,0.6669337153434753
1772031871847619800,6.163619873046875,-0.08986832946538925,-0.046297233551740646,0.5674611926078796
1772031871857568800,6.17356884765625,-0.09025901556015015,-0.04722106456756592,0.4524923264980316
1772031871867518000,6.18351806640625,-0.08297713100910187,-0.058743759989738464,0.3104081451892853
1772031871877467000,6.193466796875,-0.06661049276590347,-0.038525164127349854,0.15241298079490662
1772031871887415800,6.203415771484375,-0.036837946623563766,-0.009877542033791542,-0.007611039560288191
1772031871897364700,6.21336474609375,-0.004097812809050083,0.012326715514063835,-0.14648093283176422
1772031871907314000,6.22331396484375,0.02681988850235939,0.033515091985464096,-0.24650368094444275
1772031871917262800,6.233262939453125,0.06777720153331757,0.07003918290138245,-0.3213924169540405
1772031871927211800,6.243211669921875,0.1116570383310318,0.1318112015724182,-0.36435505747795105
1772031871937161000,6.253160888671875,0.16590477526187897,0.18298988044261932,-0.37913617491722107
1772031871947110000,6.26310986328125,0.21354979276657104,0.2116638720035553,-0.3586428761482239
1772031871957058800,6.273058837890625,0.24069318175315857,0.18292611837387085,-0.3098958134651184
1772031871967008000,6.283008056640625,0.24670740962028503,0.12675100564956665,-0.260649174451828
1772031871976957000,6.29295703125,0.24349677562713623,0.08841332048177719,-0.22719164192676544
1772031871986904800,6.30290478515625,0.22873885929584503,0.08714885264635086,-0.2227255254983902
1772031871996853800,6.312853759765625,0.21936357021331787,0.10748966038227081,-0.2354791909456253
1772031872006802700,6.322802734375,0.20392441749572754,0.14361411333084106,-0.25061580538749695
1772031872016751900,6.332751953125,0.1855441778898239,0.1598220020532608,-0.25316935777664185
1772031872026701000,6.342701171875,0.16242021322250366,0.1585032045841217,-0.2441098392009735
1772031872036650000,6.35264990234375,0.1354173719882965,0.13031910359859467,-0.24976880848407745
1772031872046599000,6.362598876953125,0.10100080072879791,0.08592181652784348,-0.27839595079421997
1772031872056547800,6.3725478515625,0.05794425308704376,0.015758328139781952,-0.3229076564311981
1772031872066496800,6.382496826171875,-0.0005105340387672186,-0.07551486045122147,-0.3725769519805908
1772031872076445700,6.39244580078125,-0.06720391660928726,-0.17527037858963013,-0.40837445855140686
1772031872086395000,6.402394775390625,-0.15063250064849854,-0.2599242627620697,-0.41910940408706665
1772031872096343800,6.41234375,-0.2246093899011612,-0.293503999710083,-0.39242076873779297
1772031872106293000,6.42229296875,-0.29326409101486206,-0.2876650094985962,-0.330140620470047
1772031872116242000,6.432241943359375,-0.35122406482696533,-0.2535873353481293,-0.24235986173152924
1772031872126190800,6.44219091796875,-0.3923243582248688,-0.21400663256645203,-0.14952978491783142
1772031872136139800,6.452139892578125,-0.4222736060619354,-0.16997894644737244,-0.06660006195306778
1772031872146089000,6.4620888671875,-0.43506476283073425,-0.11297423392534256,-0.004883965943008661
1772031872156038000,6.472037841796875,-0.42599576711654663,-0.0643392950296402,0.023409025743603706
1772031872165986800,6.48198681640625,-0.40961334109306335,-0.020037615671753883,0.028262902051210403
1772031872175934700,6.491934814453125,-0.3980776369571686,0.004940361715853214,0.02207447774708271
1772031872185883600,6.501883544921875,-0.3981005549430847,-0.009244166314601898,0.02357437089085579
1772031872195833000,6.5118330078125,-0.41158756613731384,-0.04525015503168106,0.03425983712077141
1772031872205782000,6.521781982421875,-0.43525296449661255,-0.110642209649086,0.06214046850800514
1772031872215731000,6.53173095703125,-0.4735424816608429,-0.18724028766155243,0.1023482009768486
1772031872225680000,6.541679931640625,-0.5169141888618469,-0.2697159945964813,0.14571937918663025
1772031872235629300,6.55162939453125,-0.5535668730735779,-0.33062466979026794,0.1814398616552353
1772031872245578200,6.561578125,-0.585298478603363,-0.36757680773735046,0.21936647593975067
1772031872255527200,6.571527099609375,-0.5986054539680481,-0.3717988431453705,0.25260794162750244
1772031872265476400,6.581476318359375,-0.596143364906311,-0.35802575945854187,0.26448190212249756
1772031872275425500,6.591425537109375,-0.5905638933181763,-0.34747564792633057,0.2581012547016144
1772031872285374500,6.60137451171875,-0.5807368159294128,-0.3382003903388977,0.22487832605838776
1772031872295323400,6.611323486328125,-0.5603126287460327,-0.29276442527770996,0.15998856723308563
1772031872305272300,6.621272216796875,-0.5420111417770386,-0.20197807252407074,0.06120100989937782
1772031872315221200,6.63122119140625,-0.5225940346717834,-0.04749403893947601,-0.03712022304534912
1772031872325170200,6.641170166015625,-0.5103932619094849,0.1357695311307907,-0.10025844722986221
1772031872335119400,6.651119384765625,-0.5172830820083618,0.28295040130615234,-0.08979194611310959
1772031872345068500,6.661068603515625,-0.52818763256073,0.3841766119003296,-0.030389072373509407
1772031872355016400,6.671016357421875,-0.5406918525695801,0.4351974129676819,0.0363917201757431
1772031872364965400,6.68096533203125,-0.5720955729484558,0.3865979313850403,0.11794064193964005
1772031872374914300,6.690914306640625,-0.6147822141647339,0.22500839829444885,0.21169975399971008
1772031872384863500,6.700863525390625,-0.6523138880729675,0.009956013411283493,0.31752339005470276
1772031872394812400,6.7108125,-0.6748645901679993,-0.17553581297397614,0.41509997844696045
1772031872404761300,6.72076123046875,-0.6865673661231995,-0.29740527272224426,0.4842795729637146
1772031872414710300,6.730710205078125,-0.6880312561988831,-0.3001217544078827,0.5378491282463074
1772031872424659200,6.7406591796875,-0.67241370677948,-0.23080819845199585,0.5854209065437317
1772031872434608400,6.7506083984375,-0.6463921666145325,-0.1746598482131958,0.6327020525932312
1772031872444557300,6.760557373046875,-0.6113918423652649,-0.12048555165529251,0.6552406549453735
1772031872454506500,6.770506591796875,-0.574978232383728,-0.05444273352622986,0.6344068646430969
1772031872464455400,6.780455322265625,-0.5446850657463074,0.010285662487149239,0.5731991529464722
1772031872474404400,6.790404296875,-0.4994242787361145,0.05073433369398117,0.4733976423740387
1772031872484353300,6.800353271484375,-0.45421499013900757,0.09164981544017792,0.3527582883834839
1772031872494302200,6.81030224609375,-0.39768388867378235,0.12377084791660309,0.21741405129432678
1772031872504251100,6.820251220703125,-0.338426411151886,0.136979341506958,0.08433748036623001
1772031872514200600,6.83020068359375,-0.2800023555755615,0.1376640498638153,-0.04202570393681526
1772031872524149500,6.8401494140625,-0.220979243516922,0.1099967360496521,-0.15915685892105103
1772031872534097400,6.850097412109375,-0.1739424765110016,0.04892604798078537,-0.2593252956867218
1772031872544046300,6.86004638671875,-0.13501451909542084,-0.04688942804932594,-0.33565282821655273
1772031872553995300,6.869995361328125,-0.10140964388847351,-0.177638441324234,-0.3708341717720032
1772031872563944400,6.8799443359375,-0.08588553965091705,-0.31311821937561035,-0.37084510922431946
1772031872573893400,6.889893310546875,-0.0922011211514473,-0.4663510024547577,-0.3518134653568268
1772031872583842300,6.89984228515625,-0.12529915571212769,-0.5898862481117249,-0.312867671251297
1772031872593791200,6.909791259765625,-0.17407694458961487,-0.6894122958183289,-0.27340075373649597
1772031872603740400,6.919740478515625,-0.2103329449892044,-0.744540274143219,-0.23997993767261505
1772031872613689300,6.929689453125,-0.22259625792503357,-0.7306222915649414,-0.22267401218414307
1772031872623638300,6.93963818359375,-0.21497322618961334,-0.6607270836830139,-0.22503143548965454
1772031872633587500,6.94958740234375,-0.20875415205955505,-0.5991126298904419,-0.22068165242671967
1772031872643536400,6.959536376953125,-0.18480008840560913,-0.55450838804245,-0.22157754004001617
1772031872653485300,6.9694853515625,-0.14763811230659485,-0.49579548835754395,-0.22904345393180847
1772031872663434200,6.979434326171875,-0.09963304549455643,-0.41246330738067627,-0.2571201026439667
1772031872673383400,6.989383544921875,-0.028850510716438293,-0.33375272154808044,-0.3072394132614136
1772031872683332400,6.999332275390625,0.04928237572312355,-0.2772790491580963,-0.3678918182849884
1772031872693281500,7.009281494140625,0.1209968775510788,-0.24264435470104218,-0.44076061248779297
1772031872703230500,7.01923046875,0.18248102068901062,-0.17929574847221375,-0.5100224614143372
1772031872713179400,7.029179443359375,0.23686674237251282,-0.10424204170703888,-0.5651021599769592
1772031872723127300,7.039127197265625,0.27717819809913635,-0.04841819405555725,-0.5821192264556885
1772031872733076200,7.049076171875,0.28852134943008423,-0.0481409952044487,-0.5435909032821655
1772031872743025400,7.059025390625,0.2837878465652466,-0.08597386628389359,-0.4735913574695587
1772031872752974300,7.068974365234375,0.23901672661304474,-0.18496374785900116,-0.3770431578159332
1772031872762923300,7.07892333984375,0.1890699416399002,-0.27183523774147034,-0.18665508925914764
1772031872772872400,7.08887255859375,0.22094225883483887,-0.15709422528743744,0.05077904462814331
1772031872782821400,7.0988212890625,0.23110142350196838,-0.01313519012182951,0.18608573079109192
1772031872792770300,7.108770263671875,0.18997088074684143,0.059631481766700745,0.2153727412223816
1772031872802719200,7.11871923828125,0.1594286859035492,0.05478452891111374,0.19161708652973175
1772031872812668400,7.12866845703125,0.15362344682216644,0.016224510967731476,0.1425417810678482
1772031872822617300,7.138617431640625,0.14368106424808502,0.006133261602371931,0.06343232095241547
1772031872832566300,7.148566162109375,0.1292155534029007,-0.038574736565351486,-0.0434647761285305
1772031872842515500,7.158515380859375,0.10956701636314392,-0.11739178746938705,-0.15916287899017334
1772031872852464400,7.16846435546875,0.07970371097326279,-0.18877145648002625,-0.2689419984817505
1772031872862413300,7.178413330078125,0.024205300956964493,-0.26733312010765076,-0.33228927850723267
1772031872872362500,7.188362548828125,0.009136260487139225,-0.18621443212032318,-0.3169920742511749
1772031872882311400,7.1983115234375,0.026897147297859192,0.004732084460556507,-0.25489354133605957
