time,seconds_elapsed,z,y,x
1772048301119047200,0.092047119140625,0.07020575512647628,0.004703428450599312,0.0049471649454440915
1772048301128998100,0.101998046875,0.07514613413810729,0.004352569186314941,-0.0013512410790193826
1772048301138949000,0.11194921875,0.10267302348911761,0.011496449591591953,-0.018066247302806003
1772048301148901000,0.121901123046875,0.08201485086381435,0.003383504958450794,-0.006440737104602158
1772048301158852000,0.13185205078125,0.05224222841262817,0.012267799290269613,0.0017686810398008673
1772048301168803300,0.14180322265625,0.08336158929765224,0.011603709358349442,-0.008284218679973854
1772048301178754000,0.151754150390625,0.10100245992839335,0.009610197453573346,-0.011332043676963076
1772048301188705300,0.161705322265625,0.0855897867411375,0.001971373138204217,-0.010786821751203388
1772048301198657000,0.171656982421875,0.07662088286578655,-0.001939516695216298,-0.004165092923352495
1772048301208608300,0.181608154296875,0.07362403913736343,0.016963628956303,0.006588548077456653
1772048301218559000,0.19155908203125,0.09053601097166537,0.008086933409050107,-0.0028039515048265454
1772048301228510200,0.20151025390625,0.09352700948119164,0.004682312597334384,-0.005143810895550996
1772048301238462200,0.211462158203125,0.0811024121940136,0.01627732719257474,-0.005282516113342717
1772048301248413200,0.2214130859375,0.06374561920166015,0.015802914613857865,-0.0022747217326425013
1772048301258370000,0.2313701171875,0.08231120346188545,-0.005464402885735035,-0.0042818694371264425
1772048301268321300,0.2413212890625,0.08410042496621609,0.0013526567179709672,-0.004476588291628286
1772048301278272300,0.251272216796875,0.0659960284769535,0.0046267099525779485,-0.006475598355429247
1772048301288224300,0.261224365234375,0.08126023310422897,0.006086918698251247,-0.005719153964938595
1772048301298175200,0.27117529296875,0.08065934460163116,0.008225611227378249,-0.013424933436140417
1772048301308126200,0.281126220703125,0.08245148871541023,0.0028927988320589064,-0.008332752263126894
1772048301318077400,0.291077392578125,0.08289923248291015,0.009321882031485438,-0.002144218087615445
1772048301328028200,0.301028076171875,0.07421849789917469,0.004944909056276083,-0.0007811404403299093
1772048301337980200,0.310980224609375,0.07946049020588397,0.00397255689278245,-0.005026221531024202
1772048301347931100,0.32093115234375,0.07750351091921329,0.0008662614405155182,-0.01650713562676683
1772048301357882400,0.33088232421875,0.06927636532187462,0.0011290770951658488,-0.0015698887983802705
1772048301367833300,0.340833251953125,0.07527297538816928,0.013500921281799673,-0.00915021525900811
1772048301377784300,0.350784423828125,0.08484802846312522,0.010220365241169928,-0.0033374007944017648
1772048301387736300,0.360736328125,0.08275017940104007,0.007423281868547201,-0.009343774202885105
1772048301397687300,0.370687255859375,0.08334113103151321,0.010388707545399665,-0.010581334907514974
1772048301407638300,0.38063818359375,0.07570727515220642,0.01655811689533293,-0.010010065225046128
1772048301417589200,0.39058935546875,0.07571545845866202,0.007759455020353198,-0.005049620672920719
1772048301427540200,0.400540283203125,0.07392974408566952,0.00760609108954668,-0.003528703849110752
1772048301437492500,0.410492431640625,0.08575228382647038,0.015532207913696765,-0.002883857473777607
1772048301447443200,0.420443115234375,0.0812543878853321,0.021669322429224848,-0.001252794806379825
1772048301457394400,0.43039453125,0.07870704149007797,0.013056173188984393,-0.004657479550177231
1772048301467345200,0.44034521484375,0.09172200588583945,-0.005432473377510905,-0.008653572582174092
1772048301477297400,0.45029736328125,0.07854746701419353,-0.00592296030819416,-0.006187620860058814
1772048301487248100,0.460248046875,0.07152326746582985,0.004998612004891038,-0.0003458634287584573
1772048301497199400,0.470199462890625,0.08872925381064414,0.0063785951212048525,-0.003333729266282171
1772048301507150000,0.480150146484375,0.09500468081831931,0.008167743560299277,-0.008014973284536972
1772048301517101300,0.490101318359375,0.07239888125658035,0.012836027632281184,-0.0028758476972579957
1772048301527053300,0.50005322265625,0.0713467418551445,0.010206555911526083,-0.009274526625266299
1772048301537004300,0.51000439453125,0.08421265316903591,0.0012448854945600032,-0.0033838337520137427
1772048301546955300,0.519955322265625,0.06834814456105232,-0.0003714636608958244,-0.0027894297891296444
1772048301556906200,0.52990625,0.08046294524669646,-0.002226151616871357,-0.010024952266924082
1772048301566857200,0.539857177734375,0.09422492861747742,-0.0015482523553073406,-0.007093593256454914
1772048301576809200,0.549809326171875,0.07611176429986953,0.012903466845303774,-0.006782883339468389
1772048301586760200,0.55976025390625,0.06983166111707687,0.0035481209356337784,-0.004607137602427974
1772048301596711200,0.569711181640625,0.07251753920018672,0.006640607058256864,-0.008994138781307264
1772048301606662400,0.579662353515625,0.07071370464861393,0.01080452180467546,-0.0035971933749038725
1772048301616613000,0.589613037109375,0.07461188113093375,0.01158938857205212,-0.011248621443519367
1772048301626565000,0.599565185546875,0.08015256412327289,0.0018023732468485831,-0.005704741847096011
1772048301636516400,0.609516357421875,0.07402092950046062,0.0024847294878214596,-0.0038336050798185167
1772048301646467300,0.61946728515625,0.07328443191945552,0.003945595820620656,0.006143032799661159
1772048301656418300,0.629418212890625,0.0858726953357458,0.006204699859023094,0.0028718930413480846
1772048301666369300,0.639369384765625,0.07182020458579064,0.013037395423278211,0.004622937959758565
1772048301676321300,0.6493212890625,0.05777531262040138,0.021394743271544576,0.00627417576550506
1772048301686272300,0.659272216796875,0.05721124899685383,0.01998473034314811,0.0031625922167673706
1772048301696223200,0.66922314453125,0.06517886687517166,0.019104586507752538,0.009229664570232853
1772048301706174500,0.679174560546875,0.06729600515961646,0.01846563101708889,0.005892464705230668
1772048301716126200,0.689126220703125,0.09919336467981338,0.0051233343631029125,-0.013493185499915853
1772048301726077400,0.699077392578125,0.08859481377601623,0.01152998653501272,-0.007146328090690076
1772048301736028200,0.709028076171875,0.0686971041291952,0.011795870929583906,-0.013960857810592277
1772048301745979400,0.7189794921875,0.08562076640129089,-0.004432867880910634,-0.011176158995507285
1772048301755930000,0.72893017578125,0.086827219581604,0.006632642947509884,-0.013320285751577466
1772048301765882400,0.73888232421875,0.0881780496686697,0.015109087130799888,-0.01980490766367875
1772048301775833300,0.748833251953125,0.07949497699737548,0.001573679057508707,-0.015616150736948475
1772048301785784300,0.758784423828125,0.07799918548166751,0.0026028029095381496,-0.006249205721030012
1772048301795735300,0.7687353515625,0.07439969968497753,0.0029882950957864523,-0.0065696333144325755
1772048301805686300,0.778686279296875,0.10446516760289669,-0.005489756522700191,-0.02033979999166913
1772048301815638300,0.78863818359375,0.07886427787840367,0.00039630584120750427,-0.00680324114090763
1772048301825589200,0.79858935546875,0.06329144569337368,-0.013693813505396247,0.004730343856988475
1772048301835540200,0.808540283203125,0.08287468256354331,-0.00774286921173334,-0.00881284566395916
1772048301845491200,0.8184912109375,0.1313379769593477,-0.01822510025948286,-0.018468517093919216
1772048301855442200,0.828442138671875,0.0358843833297491,0.015759440798312426,0.0012352226170711219
1772048301865394400,0.83839453125,0.06909457901418209,0.005226356346160173,0.003745671068038791
1772048301875345200,0.84834521484375,0.1268149465769529,0.00224595229588449,-0.027254273821553213
1772048301885296400,0.85829638671875,0.06287994228303433,0.007863719112426042,-0.00964111318164505
1772048301895247000,0.8682470703125,0.06255728619992733,-0.003257175165042281,0.0031080307516269385
1772048301905199400,0.878199462890625,0.0589507861405611,0.003191124191507697,0.011607563549559562
1772048301915150000,0.888150146484375,0.05087035553753376,0.030780557384714483,0.01103293286622502
1772048301925101300,0.898101318359375,0.07422200503051281,0.020591317934170364,0.01011816524202004
1772048301935052000,0.908052001953125,0.06271978328526019,0.008085691300034522,0.005113488822523504
1772048301945003300,0.918003173828125,0.05032616565823555,0.011909633502364158,0.0009485785622615366
1772048301954955300,0.927955322265625,0.07982756995260715,0.005882482167333364,-0.013867389107169583
1772048301964906200,0.93790625,0.09898819749653338,0.011522095489501952,-0.008653444718010724
1772048301974857200,0.947857177734375,0.08912380608618259,0.014065715557709335,0.0006923661783337592
1772048301984808200,0.95780810546875,0.08118132264912128,0.019218787471950053,-0.009612754736840725
1772048301994759400,0.967759521484375,0.0914805983453989,0.03045183688700199,-0.008133174570417031
1772048302004711200,0.977711181640625,0.08608487678170204,0.024632263888046145,-0.00044081170321442185
1772048302014662100,0.987662109375,0.08098609233796596,0.012349413159117101,-0.005555853162007406
1772048302024613400,0.99761328125,0.09250526521801948,0.01610189756043255,-0.008876832544570789
1772048302034564400,1.007564453125,0.08740063555538653,0.02068761791549623,-0.011980214520543812
1772048302044515300,1.017515380859375,0.08352116377353667,0.01287657883837819,-0.002143797962507233
1772048302054467300,1.02746728515625,0.06466448761224747,0.005925736787170171,-0.002672899870527908
1772048302064418300,1.037418212890625,0.086504563498497,-0.0012224544670432806,-0.017668069164920596
1772048302074369300,1.047369384765625,0.07423837164342403,0.002615077869221568,-0.014575290781352668
1772048302084320300,1.0573203125,0.060329088756442065,-0.006539996227994561,-0.005970324847567826
1772048302094272300,1.067272216796875,0.05778466497063636,-0.005247837525606155,0.0007833597968798131
1772048302104223200,1.07722314453125,0.07454641467928887,-0.0037706045798957346,-0.014003107783431187
1772048302114174500,1.087174560546875,0.06542553511261939,-0.002204451241716742,-0.002094570259610191
1772048302124125200,1.097125244140625,0.04882102179229259,-0.0014133739292621612,0.006669632223341613
1772048302134076400,1.107076416015625,0.06589958236515521,-0.005496551589667797,-0.007990825223969295
1772048302144028200,1.117028076171875,0.0897024827569723,-0.002057517051696777,-0.01178957818611525
1772048302153979400,1.1269794921875,0.250054372754693,0.007133066750317812,-0.005602505315328016
1772048302163930000,1.13693017578125,0.17882921145260333,-0.040121874769032,-0.030682531237183137
1772048302173881300,1.14688134765625,-0.15364625487923622,0.019033347902446984,-0.004962216384103522
1772048302183832000,1.15683203125,0.07678805612623692,0.004803747019916773,0.019691757012251763
1772048302193784300,1.166784423828125,0.115557639503479,0.006824366127327084,-0.0028670981352217494
1772048302203735300,1.1767353515625,0.05019406371116638,0.017860723926499483,-0.020857622453849763
1772048302213686300,1.186686279296875,0.0911971052289009,0.025569836999103427,0.0002956128125544637
1772048302223637200,1.19663720703125,0.14177227721214294,0.0064876815188676116,0.0015887670287862419
1772048302233588200,1.206588134765625,0.07774667202532291,0.0034551819551736115,-0.014488334017107262
1772048302243540200,1.216540283203125,0.02268178740739822,0.025172946636006235,-0.0054500683997059235
1772048302253491200,1.2264912109375,0.028525837260484695,0.017171280357614158,0.013115712223341687
1772048302263440000,1.23643994140625,0.01912438718676567,0.01874700524173677,-0.0012486026884522287
1772048302273391000,1.24639111328125,0.06509586476683617,0.00198320970647037,-0.004282344361161813
1772048302283342800,1.2563427734375,0.12514555206000805,-0.007488967515900731,0.039627999438019465
1772048302293294000,1.266294189453125,0.15032500150203704,0.016896555069461465,-0.01953254786254838
1772048302303244800,1.276244873046875,0.12488777790665626,0.03475216442942619,-0.07258131601824425
1772048302313196000,1.286196044921875,0.034511925932765,0.015706833828240632,-0.013414823034079745
1772048302323146800,1.296146728515625,0.025532500663399696,0.009749313663318753,0.03947812437224202
1772048302333099000,1.30609912109375,0.11667641440033912,0.008060483793541788,-0.014418894643243401
1772048302343050000,1.316050048828125,0.06834580647349357,0.002119987828657031,-0.02024402060015127
1772048302353001000,1.3260009765625,0.06533493421971798,0.0012114216163754462,-0.013392291541863232
1772048302362952000,1.335951904296875,0.08627952257096767,-0.003132745067775249,0.010441442379634827
1772048302372903000,1.34590283203125,0.08120178091526031,0.007362199331074953,0.0041351544428151095
1772048302382855000,1.35585498046875,0.09228139333426952,0.014832389081269501,-0.017630604965053497
1772048302392806000,1.365805908203125,0.07207096447646617,0.008174757822975515,0.0029396975805517284
1772048302402756900,1.3757568359375,0.07027180610001087,-0.0014599895499646663,0.014172199006332084
1772048302412707800,1.385707763671875,0.0897375540703535,-0.0014973258856683968,-0.008828490757662802
1772048302422659800,1.395659912109375,0.08794950160980224,0.016403364725038408,-0.015299285073811187
1772048302432611000,1.405611083984375,0.08705869024991988,0.007109466679021716,-0.00459124591355212
1772048302442561800,1.415561767578125,0.08107260157763957,0.004754866376891732,-0.0033930399717763066
1772048302452513000,1.425512939453125,0.08585749776661396,0.007234846624359488,-0.002249084967887029
1772048302462463700,1.435463623046875,0.09646949267387389,-0.0014857815783470868,-0.015598368485085666
1772048302472416000,1.445416015625,0.09183423408865928,-0.004195771189406514,-0.004049403254967183
1772048302482366700,1.45536669921875,0.08016191647350787,0.005041647429019212,0.009966253482783212
1772048302492318000,1.46531787109375,0.06774725605845451,0.00370806073769927,0.0016173812019173056
1772048302502268700,1.4752685546875,0.08045826907157898,-0.0012538725186139344,-0.00559560978366062
1772048302512220000,1.485219970703125,0.08299509407281876,0.0015697335347533226,0.0063640825386624775
1772048302522172000,1.495171875,0.06549684678316116,-0.0012925970938056706,0.0027911194227170197
1772048302532123000,1.505122802734375,0.07223229251801967,0.0042124300632625815,-0.010796301965601742
1772048302542073900,1.515073974609375,0.08420037820935249,0.01313055359944701,-0.020722515698941422
1772048302552024800,1.52502490234375,0.08495265788137912,0.009501841708272694,-0.008459255586471408
1772048302561976000,1.53497607421875,0.07447977918386459,0.00976779916808009,-0.008762996906554327
1772048302571927800,1.544927734375,0.0877905116558075,0.010453735605627297,-0.0029001784209161997
1772048302581878800,1.554878662109375,0.07417173614799975,0.0034589813474565742,-0.007166895954683423
1772048302591829800,1.564829833984375,0.08195522963106631,-0.00046557168513536453,-0.002362628344958648
1772048302601781000,1.574781005859375,0.06803308726251125,0.010077230443432927,0.000037866058666259045
1772048302611733000,1.58473291015625,0.08179331706762313,0.004178820054605603,-0.0050927565617486835
1772048302621683700,1.59468359375,0.08209142323136329,0.0029902678571641444,-0.008916826628241687
1772048302631635000,1.604635009765625,0.08089198431372642,0.000926613325625658,-0.004551690221298485
1772048302641586000,1.6145859375,0.08209200775325298,0.0053555356837809084,0.0027490886455867436
1772048302651537000,1.624536865234375,0.07506488559544086,0.003732829852774739,-0.006242337588826194
1772048302661489000,1.634489013671875,0.07657002946138382,-0.0018044190734624861,-0.003869973301142454
1772048302671440000,1.64443994140625,0.0824094031393528,0.014597411281615494,-0.010732470348617061
1772048302681391000,1.65439111328125,0.08646247792243957,0.012885638927668332,-0.00653441587057896
1772048302691341800,1.664341796875,0.07464286079108715,0.02628492646589875,0.007418797489674761
1772048302701293000,1.67429296875,0.08436872051358223,-0.01101502275019884,-0.0029657088046427813
1772048302711244800,1.684244873046875,0.10742226384282111,0.009163111273199319,-0.005898373856209218
1772048302721196000,1.694196044921875,0.0761567724853754,0.00919328721575439,0.0031615510371513665
1772048302731146800,1.704146728515625,0.07183481763303279,0.0008307517357170581,-0.004678924197005108
1772048302741098000,1.714097900390625,0.09428981054723262,0.00035392800420522687,-0.005196892789658159
1772048302751050000,1.724050048828125,0.08740648077428341,0.007526596112549305,-0.015415833258721976
1772048302761001000,1.7340009765625,0.06391863768100738,0.0012914280500262974,-0.010781213994324206
1772048302770952000,1.743951904296875,0.07140519404411315,0.0062708969630301,-0.012466682863235472
1772048302780903000,1.75390283203125,0.08817512705922126,0.004596972401440144,-0.008689858605107292
1772048302790854000,1.76385400390625,0.08444120122790336,0.011640899563580751,-0.01231952034435235
1772048302800806000,1.773805908203125,0.08130407224595547,0.006293693316727876,-0.008937577155325562
1772048302810756900,1.7837568359375,0.07606617159247397,0.004632555171474814,-0.0188349757861346
1772048302820707800,1.793707763671875,0.07097498593330383,0.015593655777350068,-0.007760687996214255
1772048302830658800,1.803658935546875,0.07546528308987617,0.011525894881784916,-0.011841417971206828
1772048302840609800,1.81360986328125,0.07906009271144866,-0.00008095628172159194,-0.0037035854919813573
1772048302850561800,1.823561767578125,0.06843699188828468,-0.00252915315143764,-0.008492600733647122
1772048302860513000,1.833512939453125,0.09268880509138107,0.004032835712656379,0.0007207246231380849
1772048302870463700,1.843463623046875,0.0799777920782566,0.011966405190899967,0.005063037276919931
1772048302880415000,1.8534150390625,0.08148059785664082,0.014999927667900918,-0.009133401121525093
1772048302890366700,1.86336669921875,0.08058569484353065,0.006598083090782165,0.0016790299949701875
1772048302900318000,1.87331787109375,0.09270224909484386,0.007094269109889865,-0.005408544512651861
1772048302910268700,1.8832685546875,0.09000701866149902,0.010403832049295306,-0.00007837159899063408
1772048302920220000,1.893219970703125,0.07309329326152801,0.0016278934627771376,-0.004771671381220221
1772048302930171000,1.9031708984375,0.07772446019351482,0.003988265918567776,-0.005513466191850602
1772048302940123000,1.913122802734375,0.08804828580915927,0.0051758682679384944,-0.0014141411142423747
1772048302950073900,1.923073974609375,0.06770166335105895,-0.0017862258296459912,-0.007416075809625908
1772048302960024800,1.93302490234375,0.06755962453186512,-0.0010353343971073628,-0.007951114268088713
1772048302969976000,1.94297607421875,0.07578969273865223,0.011089695421606302,0.004764584053307771
1772048302979926800,1.9529267578125,0.07907645932435989,0.005908128065243363,0.005418609248939901
1772048302989878800,1.962878662109375,0.10269523532092571,0.014708689636364578,-0.007138592308806255
1772048302999830000,1.972830078125,0.048796471872925753,0.02835581445582211,-0.029760283559421074
1772048303009781000,1.982781005859375,0.04670680611729622,-0.006427402698993683,0.02616144621670246
1772048303019732000,1.99273193359375,0.10075754525661468,-0.004530263840779662,0.01932232091166079
1772048303029683700,2.00268359375,0.09044482555687428,0.01440079273097217,-0.04101624805917963
1772048303039635000,2.012635009765625,0.058097968703508376,0.02176715678051114,-0.06244039095514454
1772048303049586000,2.0225859375,0.07048924824297428,0.00008197919502854347,0.0030572047466877845
1772048303059537000,2.032536865234375,0.08517068454623222,-0.0031838176678866147,0.059017330304440105
1772048303069487900,2.04248779296875,0.09372282431423663,0.01017776820845902,-0.0007680982956662773
1772048303079440000,2.05243994140625,0.0901256766051054,0.021525383913889525,-0.04881745072887279
1772048303089391000,2.06239111328125,0.07305179220736026,0.004393120392411947,0.002614566412568092
1772048303099341800,2.072341796875,0.1025298156261444,-0.009424830949306488,0.048793750192876906
1772048303109293000,2.08229296875,0.09131634769439696,0.0027061171535402535,-0.020622936915140597
1772048303119244800,2.092244873046875,0.06676642832756043,0.03233648158982396,-0.042289555930625645
1772048303129196000,2.102196044921875,0.0956330418497324,-0.009264598886296152,0.012968723234394564
1772048303139146800,2.112146728515625,0.09773439804315566,-0.003052738634124398,0.013603596204984933
1772048303149098000,2.122097900390625,0.08636369372308254,0.019201909402385354,-0.018628913553711025
1772048303159048700,2.132048583984375,0.07139233456254004,0.01148812015466392,-0.022049645250011234
1772048303169001000,2.1420009765625,0.08905658606886863,-0.004777078208699822,0.005469407854415476
1772048303178952000,2.151951904296875,0.09489537522494793,-0.004498553528264165,-0.0007718794216401874
1772048303188903000,2.16190283203125,0.07993512198030948,0.004728124500438571,-0.031475407781079406
1772048303198854000,2.17185400390625,0.06286416019201278,0.013258783088997006,0.0007756057486869394
1772048303208804900,2.181804931640625,0.08471066581904887,0.0044258536182343955,0.01958693579775281
1772048303218756900,2.1917568359375,0.08127075449824332,-0.008563099553436041,0.0082767477595713
1772048303228707800,2.201707763671875,0.07708382420241833,-0.00022431027516722679,-0.012385461720032617
1772048303238658800,2.211658935546875,0.0799170018017292,0.022992826117947698,-0.010191467940248548
1772048303248609800,2.22160986328125,0.09772153856158255,0.011760215094313025,0.006492430759221315
1772048303258561800,2.231561767578125,0.12061550741493701,0.0039034371793270108,0.005356421599769965
1772048303268510500,2.241510498046875,0.07213175475299358,0.011361059708893298,-0.011708265711367129
1772048303278461400,2.25146142578125,0.05986497837603092,0.007837050301209092,-0.00014790230439975857
1772048303288412400,2.261412353515625,0.08950725244581699,-0.011991247371211647,-0.006033243149099871
1772048303298363400,2.27136328125,0.09236556448638439,-0.013440715527161955,-0.04178406322705559
1772048303308315400,2.2813154296875,0.02966623946726322,0.026978900079429147,-0.01680806393525563
1772048303318266400,2.291266357421875,0.04553016355335712,0.015455635546147822,-0.003586215323163196
1772048303328217600,2.301217529296875,0.11018646785914897,-0.011655147284641862,-0.0037212672791443763
1772048303338168300,2.311168212890625,0.09882453136742114,0.02106163885965943,0.006585479337535798
1772048303348119600,2.32111962890625,0.06636427726745606,0.019085078089684248,0.0005605473590549081
1772048303358071300,2.3310712890625,0.09436521387100219,0.006061199735105037,-0.010583125005802139
1772048303368022500,2.3410224609375,0.10604980644583702,0.008095920433104038,0.002068951761163771
1772048303377973200,2.35097314453125,0.07209317630827426,0.010742635549604891,0.008270199287775903
1772048303387924500,2.360924560546875,0.07524959451258183,0.003127849696949124,0.009324813774088397
1772048303397876500,2.37087646484375,0.09113163877725601,0.0006212737035006284,0.015592349736252798
1772048303407827500,2.380827392578125,0.08156067735552787,0.005303440170362592,-0.012768159160995855
1772048303417778400,2.3907783203125,0.07064999176263809,0.004789426233619451,-0.00651623175991699
1772048303427729400,2.4007294921875,0.07738836010694504,0.011536270145326852,0.001510267565632239
1772048303437680400,2.410680419921875,0.08458031743764877,0.005027034381777048,-0.009297633506217972
1772048303447632400,2.42063232421875,0.08190262266099453,0.0059996788062155245,0.0011554719117470085
1772048303457583400,2.430583251953125,0.060952773612737654,0.017803221585601568,0.004947776866797358
1772048303467534300,2.440534423828125,0.06738777509629726,0.009963614001125097,0.013562643140088766
1772048303477485300,2.4504853515625,0.08280687802433967,0.012080167763680219,-0.0009412446391768753
1772048303487437600,2.4604375,0.07712649430036544,0.011097001945227385,-0.009352249770285561
1772048303497388300,2.47038818359375,0.06695698246359824,0.009188611040636896,0.00951803479124792
1772048303507339500,2.480339599609375,0.08446399758160114,-0.00025477847866714,0.009219709431799127
1772048303517290200,2.490290283203125,0.07293956400454044,0.0028857115041464564,-0.0011151947002857924
1772048303527241500,2.500241455078125,0.06036416006982326,0.005347425442561507,-0.0012479725007899104
1772048303537193200,2.510193115234375,0.06215396609604358,0.011998919221013784,-0.003918726080004126
1772048303547144400,2.52014453125,0.07201835750639438,0.007071034364774823,0.0045843503818847236
1772048303557095200,2.53009521484375,0.08055646874904632,0.003924260771647096,-0.003063899348955601
1772048303567046400,2.54004638671875,0.08490063543319702,0.007446881939843297,-0.010256295071076602
1772048303576998400,2.549998291015625,0.07951309717595577,0.01223747721724212,-0.008566296157520263
1772048303586949400,2.559949462890625,0.07846855655908584,0.009798486567288637,-0.003625414822390303
1772048303596900400,2.569900390625,0.070706105864048,0.00801269912905991,-0.007232526803109794
1772048303606851300,2.579851318359375,0.08642448399960995,0.00644676498658955,-0.006253160376939922
1772048303616802600,2.589802490234375,0.0819341868430376,0.005152195131406188,0.00911234920034185
1772048303626754300,2.59975439453125,0.0814893656849861,-0.0020989450406283137,0.0031352018863428383
1772048303636705300,2.609705322265625,0.069669164031744,0.005650646172836423,-0.0027770086989738047
1772048303646656300,2.61965625,0.09061199881732464,-0.012814838713780044,-0.006906007395638153
1772048303656607500,2.629607421875,0.08836392762959003,-0.00346745691485703,-0.0029177506102249025
1772048303666559500,2.6395595703125,0.06784896286725997,0.0004820113632827997,0.00044989919196814296
1772048303676510200,2.64951025390625,0.07950900552272797,0.009925693143531679,0.0038526933727785944
1772048303686461400,2.65946142578125,0.09207914876043796,0.003496317683160305,-0.0007217475364450365
1772048303696412400,2.669412353515625,0.07441957342922687,0.0033817513927817343,-0.009687527872947976
1772048303706363400,2.67936328125,0.06080372053086757,0.011740195219591259,-0.0011336071398109198
1772048303716315400,2.6893154296875,0.08339899869859219,0.005438537792116403,0.0008790295905433595
1772048303726266400,2.699266357421875,0.09401976143419742,0.00982990461885929,0.001950001556612551
1772048303736217600,2.709217529296875,0.08518471307158469,0.007697714895755052,-0.005292562583321705
1772048303746168300,2.719168212890625,0.0783043059080839,0.010351298144459724,0.00436499027647078
1772048303756119600,2.72911962890625,0.07291735217273235,0.005268222726508975,-0.0017572189308702945
1772048303766071300,2.7390712890625,0.08188684056997299,0.001203676701337099,-0.006203740877797827
1772048303776022500,2.7490224609375,0.07694412347078323,0.005315642064809799,0.0030804486249573527
1772048303785973200,2.75897314453125,0.08487199386060237,0.0027953298069536684,0.000217871401226148
1772048303795924500,2.768924560546875,0.08277297575473785,0.007641893055289983,-0.008112469709105789
1772048303805876500,2.77887646484375,0.08052548908889293,0.01902151133418083,-0.0028204094492830334
1772048303815827500,2.788827392578125,0.08816109853386879,0.009978884635493158,0.00009477474451996385
1772048303825778400,2.7987783203125,0.07439969968497753,0.008090878931805491,-0.0029745222987607118
1772048303835729400,2.8087294921875,0.07455050633251667,0.0067308426249772305,-0.0016704174302518368
1772048303845680400,2.818680419921875,0.0738087480545044,0.010508169206604362,-0.006334975175186991
1772048303855632400,2.82863232421875,0.08232990816235541,0.002819879726320505,-0.006570510097267106
1772048303865583400,2.838583251953125,0.07215396658480167,0.010294526455923915,0.003843761147651821
1772048303875534300,2.848534423828125,0.06586217296421527,0.0030541999388486144,0.0021241160145029424
1772048303885485300,2.8584853515625,0.07543254986405372,0.007656725298240781,-0.0018264299758709965
1772048303895437600,2.8684375,0.0832154588252306,0.0032606092311441895,0.0027078798523638395
1772048303905388300,2.87838818359375,0.08157353683710097,-0.004576806396245956,-0.003609057342633605
1772048303915339500,2.888339599609375,0.07813011838495731,-0.0005156213719397783,-0.004043512370297685
1772048303925290200,2.898290283203125,0.07901742261350155,0.0014610855285078286,0.0016974881002679465
1772048303935241500,2.908241455078125,0.07707330280840397,0.003990677071362733,0.0014724654390476644
1772048303945193200,2.918193115234375,0.08290449317991733,0.011981968086212873,-0.002736411827104166
1772048303955144400,2.92814453125,0.08231178798377513,0.015754983818903563,-0.009432265337090939
1772048303965095200,2.93809521484375,0.07199205402135848,-0.00018207856863737106,-0.0029356607262510806
1772048303975046400,2.94804638671875,0.07708090159296989,0.007435483762994408,-0.007874751963093876
1772048303984998400,2.957998291015625,0.08022212222814559,0.013313874277099966,0.003937640843028202
1772048303994949400,2.967949462890625,0.09877309344112872,0.003804652979969978,0.0003144636434968561
1772048304004900400,2.977900390625,0.09128653707802295,-0.0010340922880917786,-0.00617298041335307
1772048304014851300,2.987851318359375,0.06764847185909748,0.007283142745494842,0.007224809287535027
1772048304024802600,2.997802490234375,0.08215922777056693,-0.0031526188120245932,0.0075562240658327935
1772048304034754300,3.00775439453125,0.09802607446610927,-0.0005336684852838516,-0.0002584591399412602
1772048304044705300,3.017705322265625,0.07197685645222664,0.00802607006728649,-0.005477308033080771
1772048304054656500,3.027656494140625,0.06718319243490696,0.007649345709383487,0.00585194089859724
1772048304064607500,3.037607421875,0.08603285433351993,0.010731164307519792,0.0030233481428585947
1772048304074559500,3.0475595703125,0.0879728824853897,0.013689429591223597,-0.0034891755563206967
1772048304084510200,3.05751025390625,0.0791542007356882,0.005910831478983163,-0.0060624235778115685
1772048304094461400,3.06746142578125,0.07795359277427195,0.008806406790018081,-0.004730197726516052
1772048304104412400,3.077412353515625,0.07570669063031674,0.013639014578238129,-0.010187476751720532
1772048304114363400,3.08736328125,0.08782733653485775,0.005870937860012054,-0.0041170890631619834
1772048304124315400,3.0973154296875,0.0857248112976551,0.012441183095797895,-0.0006312014424707741
1772048304134266400,3.107266357421875,0.06880991685390472,0.0026367782443761823,-0.0005127900940366089
1772048304144217600,3.117217529296875,0.08452303429245948,0.0081537150349468,0.008462077731220052
1772048304154168300,3.127168212890625,0.08242576975226402,0.0035620763957500455,-0.005115260654501617
1772048304164120300,3.137120361328125,0.07823825493454933,0.01041493796519935,-0.0006350373673718422
1772048304174071300,3.1470712890625,0.0629722967416048,0.009719576112180947,0.0078131397026591
1772048304184022500,3.1570224609375,0.07658405798673629,0.011465396866202354,-0.007695431607123464
1772048304193973200,3.16697314453125,0.07838204731941223,0.012773849116265773,-0.00023150720093399285
1772048304203924500,3.176924560546875,0.07450608266890049,0.005371098579093813,-0.004608754170779139
1772048304213876500,3.18687646484375,0.08781973775029182,0.00048822190836071965,-0.007989510049717501
1772048304223827500,3.196827392578125,0.08153437387049198,0.012171353178471326,-0.00904503785148263
1772048304233778400,3.2067783203125,0.0692640903621912,0.012334580916166306,-0.0012211392927914857
1772048304243729400,3.2167294921875,0.08961480447351931,0.0038547757320106027,-0.0033261944137979297
1772048304253681400,3.226681396484375,0.08093523893356323,0.00536992953531444,-0.007005494847893715
1772048304263632100,3.236632080078125,0.06866495542526245,0.010902648416906595,-0.015473235134920105
1772048304273582800,3.246582763671875,0.07794424042403697,0.0026581132933497426,-0.004035228599142283
1772048304283534000,3.2565341796875,0.08498246849775314,0.0010785159517079591,0.0011735372914001346
1772048304293484800,3.26648486328125,0.06958499287962913,0.005475143475458025,0.003804315053252503
1772048304303437000,3.27643701171875,0.0764700762182474,0.00961238941065967,-0.005033025731146335
1772048304313388000,3.286387939453125,0.08455050682127475,0.005151756739988923,-0.005367381385201588
1772048304323339000,3.296339111328125,0.07750877161622047,0.005010083246976137,0.004966591165121644
1772048304333290000,3.3062900390625,0.07616086413860321,0.005767988942191005,-0.005450922349654138
1772048304343242000,3.316241943359375,0.08244213636517524,0.013457593596726655,-0.010712021215632557
1772048304353193000,3.32619287109375,0.07660276268720627,0.004536109059676528,-0.0071816368660889566
1772048304363144000,3.33614404296875,0.08452887951135635,0.008939896976575256,-0.007413902118848637
1772048304373095000,3.346094970703125,0.09185995305180548,0.00791764125674963,-0.0016226966978516429
1772048304383046000,3.3560458984375,0.07779694090783595,0.016869155605882404,-0.0019120532995555548
1772048304392998000,3.365997802734375,0.08782441392540931,0.0014595511585474012,0.0011929178453050553
1772048304402949000,3.37594921875,0.09605214404463767,0.005693389336019754,-0.011137617083406074
1772048304412900000,3.385900146484375,0.06867255420982837,0.019553133992850778,-0.0028266656601335853
1772048304422851000,3.39585107421875,0.07705226002037524,0.007286211485415696,-0.0011819671930279581
1772048304432802800,3.405802734375,0.08513444418907165,0.006667275869473814,0.0003981050726491958
1772048304442754000,3.415754150390625,0.07270867785811423,0.010356193515285848,-0.0072424362757708876
1772048304452705000,3.425705078125,0.07719897501468657,0.015125453743711112,-0.0037937114608474075
1772048304462656000,3.435656005859375,0.0842389566540718,0.010689590188115834,-0.007764852714678272
1772048304472607000,3.44560693359375,0.07390168703496455,0.014608298001810908,0.0005429751697462052
1772048304482559000,3.45555908203125,0.0765922412931919,0.006107888421043753,-0.008498034960590303
1772048304492510200,3.46551025390625,0.08840367511808872,0.014952216068655252,-0.001566637395368889
1772048304502461000,3.4754609375,0.07477730082571506,0.017073153745383023,0.00035264022941701114
1772048304512412200,3.485412109375,0.07133212880790234,0.011740998937189578,-0.004145292244339361
1772048304522364000,3.495364013671875,0.10887947691380977,0.013977671948075294,-0.005551898506097495
1772048304532315100,3.505315185546875,0.09511632449924945,0.000334054259955883,-0.005901442596130073
1772048304542266000,3.51526611328125,0.05621405465304851,0.010007891534268856,-0.0026278825518675146
1772048304552217000,3.525217041015625,0.07521803033053874,0.006398688061162829,0.0014376589871477334
1772048304562168000,3.53516796875,0.0895896700322628,0.012710939947888255,0.0018461849891114978
1772048304572120000,3.5451201171875,0.08720482072234154,0.015580284839123486,-0.007093246196582913
1772048304582071000,3.555071044921875,0.07479191387295722,-0.003055515113100409,-0.0008794862482696771
1772048304592022000,3.56502197265625,0.07658581155240535,0.006993658279627561,-0.0027758487883489578
1772048304601973000,3.574972900390625,0.08617138602137565,0.016759703882038592,-0.00698517357907258
1772048304611925200,3.58492529296875,0.08467676354944706,0.005535714556276798,-0.006573688435042277
1772048304621876000,3.5948759765625,0.07374678873419761,0.006363835943490267,-0.005852744616195559
1772048304631827200,3.6048271484375,0.06642156041264534,0.007300970663130283,0.008510483450209721
1772048304641778000,3.61477783203125,0.08108779914677143,0.0039876813966780895,-0.011133169237151741
1772048304651729200,3.624729248046875,0.09379472050666808,0.009881780936568975,-0.01661446845876053
1772048304661681000,3.634680908203125,0.07239595864713191,-0.000143280928209424,0.0012142437611240894
1772048304671632100,3.644632080078125,0.07433657132089137,0.006084434480220079,-0.003686186832608655
1772048304681582800,3.654582763671875,0.0852630390048027,0.00843618523813784,-0.005080856061400845
1772048304691534000,3.6645341796875,0.07509002003669739,0.008391030922159553,-0.004415030830120668
1772048304701486000,3.674486083984375,0.07777589811980724,0.005801598950847983,-0.0071298153473064296
1772048304711437000,3.68443701171875,0.07777180646657943,0.009596753450110554,-0.0060569528182502835
1772048304721388000,3.694387939453125,0.07986147222220898,0.013127484859526157,0.003037778527010232
1772048304731339000,3.704339111328125,0.07328793905079364,0.0017477935153990983,-0.005970808904757723
1772048304741290000,3.7142900390625,0.07912614368498325,0.005591463331505656,-0.004715392883028835
1772048304751242000,3.724241943359375,0.06940262205004692,0.0030001316640526055,0.005492533001676202
1772048304761193000,3.73419287109375,0.06760989341437816,0.0038458617731928824,-0.006253333906875923
1772048304771144000,3.74414404296875,0.07973755358159541,0.00031140403673052784,-0.008780669560562818
1772048304781095000,3.754094970703125,0.07599778253138065,-0.0012229659236967564,-0.008664906826941297
1772048304791047200,3.764047119140625,0.08513561323285103,0.005216346408799291,-0.0006191000127233565
1772048304800998000,3.773997802734375,0.08154840239584446,0.010528919733688235,-0.00415408747214824
1772048304810949000,3.78394921875,0.07824994537234306,0.00763181005269289,-0.008132398252282291
1772048304820899800,3.79389990234375,0.06807400379478931,0.00807210116609931,-0.0011588694452308117
1772048304830852000,3.80385205078125,0.08289455630779266,0.007824848406761883,-0.0029676085007842626
1772048304840802800,3.813802734375,0.08273848896324634,0.01555317763648927,0.003513853339850902
1772048304850754000,3.823754150390625,0.08842764051556587,0.0078546590231359,-0.004289267292292788
1772048304860705000,3.833705078125,0.08917816662192345,0.0054226095706224435,-0.010530572834657505
1772048304870656000,3.843656005859375,0.07989829710125923,0.010701572886854409,0.00483282698392868
1772048304880608000,3.85360791015625,0.07121405538618564,0.002695668824762106,0.006644653045712039
1772048304890559000,3.86355908203125,0.09051672174930572,0.006868643660470843,-0.013803813218511641
1772048304900510000,3.873510009765625,0.08378069149255753,0.01453209096044302,-0.009605996202491224
1772048304910461000,3.8834609375,0.07704875288903713,0.009133739048242568,0.00032264694995246825
1772048304920413000,3.893412841796875,0.08662789761722087,0.011154723481833934,-0.00406703937635757
1772048304930364200,3.9033642578125,0.07899111912846565,0.010185732319206,-0.006893157047219574
1772048304940315100,3.913315185546875,0.07450374458134174,0.0070439271621406075,-0.0032916436902247367
1772048304950266000,3.92326611328125,0.07570727515220642,0.005283054969459772,-0.009759725459478796
1772048304960217000,3.933217041015625,0.0755593911141157,0.007637874467298388,0.00003213957077823579
1772048304970169000,3.943169189453125,0.07315992875695228,0.006810775993391871,-0.00495886451639235
1772048304980120000,3.9531201171875,0.08378478314578533,0.0075436933778226375,0.0025486615695059296
1772048304990071000,3.963071044921875,0.08184183238446711,0.004192702449485659,0.001325366852246225
1772048305000022000,3.97302197265625,0.07616203318238259,0.007700272179022431,-0.003074393343506381
1772048305009974000,3.98297412109375,0.07901099287271499,0.016898454765602946,-0.010983111508283764
1772048305019925000,3.992925048828125,0.09009002076983451,0.004392462805286049,-0.009176966268615796
1772048305029876000,4.0028759765625,0.08037059078812599,0.006063026366010308,-0.008633753636851905
1772048305039827200,4.0128271484375,0.07259060443639755,0.008590937408432364,-0.00022917824652977285
1772048305049778000,4.02277783203125,0.0865051480203867,0.014726663684472441,-0.0015501429182942957
1772048305059730200,4.032730224609375,0.07723112371861934,-0.000009790741652250289,-0.005805699737230315
1772048305069681000,4.042680908203125,0.06615209582149982,-0.0006727846950292587,-0.006810986055945977
1772048305079632100,4.052632080078125,0.08634674258828162,0.007488163798302412,-0.00997244576155208
1772048305089582800,4.062582763671875,0.07392272982299328,0.016868424953520297,-0.006474246648559346
1772048305099535000,4.07253515625,0.07541676777303219,0.007320698276907205,-0.007815285993972793
1772048305109486000,4.082486083984375,0.08080430603027343,0.008058145705983042,-0.005073047214280813
1772048305119437000,4.09243701171875,0.07661328408122062,0.009881050284206867,-0.0011203914652112871
1772048305129388000,4.102387939453125,0.08110124315023422,0.004989698046073317,-0.005784985742764547
1772048305139340000,4.112340087890625,0.08574410052001476,0.004497603680193424,-0.006959408950153738
1772048305149291000,4.122291015625,0.06883914294838905,0.010558218893408775,-0.005686292874952778
1772048305159242000,4.132241943359375,0.07647767500281333,-0.006909560192748904,-0.0013328103731852024
1772048305169193000,4.14219287109375,0.0878466257572174,0.011254895920678973,-0.00315901202019304
1772048305179144000,4.15214404296875,0.06899053411781787,0.00886317847855389,-0.007344243549276143
1772048305189096000,4.162095947265625,0.08006196323037147,0.005274798597767949,-0.0023699440017342565
1772048305199047200,4.172047119140625,0.0812590640604496,0.0067830842688679695,-0.004545406610984355
1772048305208998000,4.181997802734375,0.07168342646360397,0.015894465354830026,-0.0009969751480966805
1772048305218949000,4.19194921875,0.07632862192094325,0.010845219141244887,-0.002398996566282585
1772048305228900900,4.20190087890625,0.07677344307899475,0.007014262676239013,-0.002249706022394821
1772048305238852000,4.21185205078125,0.07451485049724578,0.01605199400410056,-0.0017363679390866309
1772048305248802800,4.221802734375,0.0881295343518257,-0.0030617256581783295,-0.005960506706451997
1772048305258754000,4.231754150390625,0.07796002251505851,0.005545139971747994,0.0002298084341920912
1772048305268704800,4.241704833984375,0.06374035850465297,0.0018679858289659022,-0.0017494740158319473
1772048305278656800,4.25165673828125,0.07990297327637672,-0.0020544483117759227,-0.01021903180060908
1772048305288607500,4.261607421875,0.09382394660115241,0.005499693394824862,-0.0022788316521793603
1772048305298558700,4.271558837890625,0.07946165924966335,-0.00008212532550096511,-0.010956168702431022
1772048305308509700,4.281509765625,0.05686404299437999,0.006538681053742766,0.004160416748235002
1772048305318461700,4.291461669921875,0.07393149765133858,0.007725187424570321,0.0041602614846080535
1772048305328412400,4.301412353515625,0.0996720881074667,0.0048055736508220434,0.0005255856435280293
1772048305338363600,4.31136376953125,0.07603285384476184,0.010908274440094828,-0.0018835578574333339
1772048305348314600,4.321314697265625,0.06286942088901996,-0.002454334349557757,-0.004595794224506244
1772048305358266600,4.3312666015625,0.08097206381261349,0.008794058765098452,-0.0014001034557353704
1772048305368217600,4.341217529296875,0.09353636183142662,0.013191270810738205,-0.008730966933630407
1772048305378168600,4.35116845703125,0.07767009965777397,0.01345277129113674,0.00042485608225688337
1772048305388119800,4.361119873046875,0.07213233927488327,0.017811770218238234,0.004462130508013069
1772048305398070500,4.371070556640625,0.07048048041462898,0.012815057909488677,0.0007202131664846092
1772048305408022500,4.3810224609375,0.0942775355875492,0.003018909429758787,-0.003799867206998169
1772048305417973800,4.390973876953125,0.08693886326253414,0.005240092610567808,-0.009071660996926948
1772048305427924700,4.4009248046875,0.07001753907799721,0.003044482262432575,0.00014157302831299603
1772048305437875700,4.410875732421875,0.0821346778512001,0.006844020675867796,-0.0009633103405125438
1772048305447827500,4.420827392578125,0.09321545931398868,0.004804258476570248,0.001853071387624368
1772048305457778700,4.43077880859375,0.07241758595705032,0.007627864529937505,0.005399173896107823
1772048305467729700,4.440729736328125,0.07286474520266055,0.0022724749766290186,-0.0034141832245048135
1772048305477680600,4.4506806640625,0.07570844419598578,0.007796426029875874,-0.004002915498428046
1772048305487631600,4.460631591796875,0.07736147210001945,0.010516279447823762,0.0003066091306041926
1772048305497583600,4.47058349609375,0.07302665776610374,0.0059440030962228775,-0.006106198787456378
1772048305507534800,4.480534912109375,0.08544073365926742,0.008738309989869594,-0.00016829663845710456
1772048305517485600,4.490485595703125,0.0751110628247261,0.010321195267140865,-0.0035312702655326575
1772048305527436800,4.500436767578125,0.0779518392086029,-0.005957666295394301,-0.005936760504683479
1772048305537388500,4.510388427734375,0.08858195429444313,0.00024257658421993254,-0.008071306581655517
1772048305547339800,4.52033984375,0.06957680957317351,0.009861687996610998,0.0004717822302132845
1772048305557290500,4.53029052734375,0.07930792999267577,-0.003088759795576334,0.0009506791878025979
1772048305567241700,4.54024169921875,0.08350947333574295,0.0028474253203719852,-0.010094784366432576
1772048305577192400,4.5501923828125,0.07468027019202708,0.011214490845054388,-0.006369489366142079
1772048305587144700,4.560144775390625,0.07633037548661231,0.003805237501859665,-0.006726084251469
1772048305597095700,4.570095703125,0.08590718212723732,0.007404942494258284,-0.008862785752909257
1772048305607046700,4.580046630859375,0.07602350149452686,0.013636018903553485,0.004258296765293925
1772048305616997600,4.58999755859375,0.07198036358356476,0.007079802193120122,-0.004136104290885851
1772048305626949600,4.59994970703125,0.08679039470255374,0.002808846875652671,-0.00463073767372407
1772048305636900600,4.609900634765625,0.08589198455810547,0.013289543553441762,-0.0070015401919838035
1772048305646851600,4.6198515625,0.06853460704386234,0.0077586513027548785,0.002214196317596361
1772048305656802600,4.629802490234375,0.07929799312055111,0.005531184511631727,-0.0026315266805235294
1772048305666754800,4.6397548828125,0.10160510199666023,0.0071613429967314,-0.0061377812358085065
1772048305676705500,4.64970556640625,0.07408347334265708,0.010004092141985893,-0.003600189049588516
1772048305686656800,4.65965673828125,0.07364215931594371,0.006175619895011186,0.0014189451535232365
1772048305696607500,4.669607421875,0.08051262960731982,0.00771532361768186,-0.003048181190015748
1772048305706558700,4.679558837890625,0.07631108626425266,0.0035348961278796193,-0.0018824162131175397
1772048305716510500,4.689510498046875,0.0863438199788332,-0.0059784898877143855,-0.004841339083947241
1772048305726461700,4.699461669921875,0.07751403231322765,0.006453413923084735,-0.001839353389525786
1772048305736412400,4.709412353515625,0.0776595782637596,0.004244286506250501,-0.0008764905735850334
1772048305746363600,4.71936376953125,0.0890367123246193,0.010323094963282346,0.00019657288487069308
1772048305756315600,4.729315673828125,0.08828560169637202,0.015176014887169003,-0.004281832904508337
1772048305766266600,4.7392666015625,0.08454232351481913,0.0032557869255542752,-0.011098234921088442
1772048305776217600,4.749217529296875,0.0796031135469675,0.008363558393344283,-0.00873376167891547
1772048305786168600,4.75916845703125,0.07930734547078609,0.004425926683470607,-0.002336544055631384
1772048305796119800,4.769119873046875,0.07272504447102546,0.01007752270437777,-0.001835809725569561
1772048305806071800,4.77907177734375,0.07691314381062984,0.006825608236342668,-0.005691836699750274
1772048305816022500,4.7890224609375,0.07437164263427257,0.005166004461050033,0.003292118614260107
1772048305825973800,4.798973876953125,0.08424480187296866,0.013898103905841707,-0.0026027755100745706
1772048305835924700,4.8089248046875,0.08155132500529289,0.009404226552695035,0.00266528281965293
1772048305845876700,4.818876708984375,0.0882914469152689,0.005572612500563264,-0.0003555902383290231
1772048305855827500,4.828827392578125,0.07244388944208621,0.006096197983250022,-0.000756882781907916
1772048305865778700,4.83877880859375,0.0678086308568716,0.004978007608279585,-0.004957266214350238
1772048305875729700,4.848729736328125,0.09129647395014763,0.004764291792362928,-0.003213692216342315
1772048305885681700,4.858681640625,0.08157295231521129,0.006977876188606023,0.003422275199415162
1772048305895632600,4.868632568359375,0.07603577645421028,0.006841682588309049,-0.003188795237103477
1772048305905583600,4.87858349609375,0.08547112879753112,-0.0005948971532285213,-0.002392758621741086
1772048305915534800,4.888534912109375,0.06796586724519729,0.010134075197204946,-0.0014770776820834724
1772048305925485600,4.898485595703125,0.07336041976511477,0.01016542018353939,0.0006614687165711075
1772048305935437600,4.9084375,0.08413257367014884,0.018427856289967893,-0.005114219474885612
1772048305945388500,4.918388427734375,0.08083528569042682,0.00638100627399981,-0.001472017914475873
1772048305955339800,4.92833984375,0.07335749715566635,0.0021268559608608483,0.0037753172876313326
1772048305965290500,4.93829052734375,0.09161211577057837,0.006178980895876884,-0.004528035351075232
1772048305975242500,4.948242431640625,0.07290273912549018,0.0016267244189977644,-0.005507840168662369
1772048305985193700,4.95819384765625,0.07500409531891346,0.006765548612177372,-0.0025216091657988726
1772048305995144700,4.968144775390625,0.0892231748074293,0.004931611183285713,-0.0037194406482391057
1772048306005095700,4.978095703125,0.08248363741934299,0.0029101883582770822,0.0038790151241235435
1772048306015047400,4.98804736328125,0.06721943279206752,0.0015568740531802176,-0.0016095540884882211
1772048306024998700,4.99799853515625,0.0821872848212719,0.002237549793720245,-0.0009706533967517315
1772048306034949600,5.00794970703125,0.09011457068920135,-0.0005460895754396915,-0.002977499707136303
1772048306044900600,5.017900634765625,0.07202011107206344,0.0064413581591099495,-0.002729424963891506
1772048306054851600,5.0278515625,0.08205459835231303,0.01092880577147007,-0.007380502172745764
1772048306064803600,5.037803466796875,0.07172785012722015,0.013343246502056717,-0.0015238394332583993
1772048306074754800,5.0477548828125,0.0754769735276699,0.0075279843520373105,0.002539373151352629
1772048306084705500,5.05770556640625,0.07428221078515053,0.0012029460489749908,-0.005356248069833964
1772048306094656800,5.06765673828125,0.08116495603621006,0.008223273139819503,-0.003416886638244614
1772048306104608500,5.0776083984375,0.07428571791648865,0.013538988269865512,0.0023323610708583147
1772048306114559700,5.087559814453125,0.07938450236022472,0.004395677675679326,-0.0014337773964740335
1772048306124510500,5.097510498046875,0.07938333331644534,0.004846636313572526,-0.004657525215949863
1772048306134461700,5.107461669921875,0.07429390122294426,0.0002373889524489641,-0.0010498835122678429
1772048306144413700,5.11741357421875,0.08567571145892143,0.005946195053309202,-0.001336089175660163
1772048306154364700,5.12736474609375,0.09509761979877948,0.00901661547459662,0.0015223872616887092
1772048306164315600,5.137315673828125,0.07788871084451675,0.010812705111131072,-0.0018407690284773705
1772048306174266600,5.1472666015625,0.08058160319030284,-0.004597191597148776,-0.004332814173074439
1772048306184217600,5.157217529296875,0.08881108687520027,0.012019669748097657,-0.0037160979136824607
1772048306194169600,5.167169677734375,0.06906827552914618,0.0051331251047551625,0.009055540979187935
1772048306204120600,5.17712060546875,0.07866086426079273,0.0045656274151057,-0.000357736529642716
1772048306214071800,5.18707177734375,0.09751286424696445,0.007895210229232907,-0.004112385488580912
1772048306224022500,5.1970224609375,0.06968026994764805,0.005366057077795267,-0.000783460261579603
1772048306233974800,5.206974853515625,0.06279226399958134,0.006053162559121847,0.0023982750470750032
1772048306243925500,5.216925537109375,0.0817950706332922,0.008022855196893214,-0.0016481599326711148
1772048306253876700,5.226876708984375,0.08283727316260338,-0.0029779198322445154,-0.006718211472267284
1772048306263827500,5.236827392578125,0.07161971357762813,0.002334288166463375,-0.0013591595239937305
1772048306273779700,5.24677978515625,0.07895137163996696,0.008177753497660159,-0.004331745593994856
1772048306283730400,5.25673046875,0.08373977496027946,0.013854703155532479,-0.004993935829773545
1772048306293681700,5.266681640625,0.07821253597140311,0.007736001079529524,-0.0024030973526649175
1772048306303632400,5.27663232421875,0.07013444345593452,-0.0027511984042823314,-0.0019473803412634878
1772048306313583600,5.28658349609375,0.07806640549898147,-0.002028729348629713,-0.0008952226735185831
1772048306323535400,5.296535400390625,0.07343874569833278,0.003333601402118802,0.001367872553411871
1772048306333486600,5.306486572265625,0.07942834150195122,-0.001070697971433401,-0.006553056638967245
1772048306343437600,5.3164375,0.08196633554697036,-0.0020284370876848695,-0.004106120144575834
1772048306353388500,5.326388427734375,0.06849836668670177,-0.005761193875223398,-0.0021657084002159534
1772048306363340500,5.336340576171875,0.07762742955982685,0.014098010392114519,-0.007068796741915866
1772048306373291500,5.34629150390625,0.08630348796844482,0.012947963574156165,-0.00548782942709513
1772048306383242500,5.356242431640625,0.07762392242848873,0.01579809230826795,0.0012849161108490078
1772048306393193500,5.366193359375,0.08106032661795616,-0.005209843602776527,-0.0007176832826808094
1772048306403144700,5.376144775390625,0.08719488385021686,-0.0014579437233507631,-0.00672523486809805
1772048306413096700,5.3860966796875,0.06984452059864997,0.00828165226355195,-0.006174569582240655
1772048306423047400,5.39604736328125,0.08301789042651653,0.005369783404842019,-0.004712141480017453
1772048306432998700,5.40599853515625,0.08032324451506137,0.012254428352043031,-0.001199612447572872
1772048306442949600,5.41594970703125,0.08211363506317138,0.007563859383016824,-0.009993835609452799
1772048306452901600,5.425901611328125,0.07612520830333233,0.002833542925491929,-0.004088666686275974
1772048306462852400,5.435852294921875,0.07971300366222858,0.002885857634618878,-0.006169025757443159
1772048306472803600,5.445803466796875,0.06535246987640857,0.005642097540199756,-0.00351643802258186
1772048306482754600,5.455754638671875,0.07179039396941661,0.002442059389874339,-0.0022843024117406457
1772048306492706600,5.46570654296875,0.08945522999763489,0.0033764176305383442,-0.00035717027406208213
1772048306502657500,5.475657470703125,0.07868249157071112,0.005620616360753774,0.004600269470224157
1772048306512608500,5.4856083984375,0.08033376590907573,0.007637216880172491,-0.0021719006789848207
1772048306522559700,5.495559814453125,0.07795008564293385,0.011370485124364494,0.0011056962195783852
1772048306532511500,5.505511474609375,0.07180734510421752,0.017759747770056126,0.0059404137664940205
1772048306542462500,5.51546240234375,0.07839782941043376,0.01647175378613174,0.003485613626055419
1772048306552413400,5.525413330078125,0.08483107732832432,0.011120748146995901,0.0009692742904182523
1772048306562364700,5.53536474609375,0.09021452393233775,0.0061118339437991375,-0.00020539551214314997
1772048306572315400,5.5453154296875,0.07315875971317291,0.008341200431063771,-0.0017570636672433464
1772048306582267600,5.555267578125,0.07704466123580932,0.00767089995406568,0.0021933087931945918
1772048306592218600,5.565218505859375,0.08018354378342628,0.016697086974605917,0.004684933812683448
1772048306602169600,5.575169677734375,0.08841653459966183,0.015170315798744559,0.006520725271943956
1772048306612120600,5.58512060546875,0.08272387591600418,0.0016821809332817792,-0.004655388057790697
1772048306622072600,5.595072509765625,0.07269757194221019,0.006638195905461907,0.00503491629413329
1772048306632023600,5.6050234375,0.08182663481533527,0.007664908604696393,0.0027814291457645595
1772048306641974500,5.614974609375,0.07105798804163932,0.00431610963344574,0.001113404601998627
1772048306651925500,5.624925537109375,0.07794950112104415,0.004253711921721697,-0.001138429445400834
1772048306661877800,5.634877685546875,0.0701700992912054,0.006959098422899842,-0.0033325236898846923
1772048306671828500,5.644828369140625,0.07181552841067314,0.007598053913563489,-0.006250785756763071
1772048306681779700,5.65477978515625,0.06432137326300144,0.006165902218595146,-0.0037010373418685048
1772048306691730400,5.66473046875,0.08750643401741981,0.0024459318473935127,0.013201737405825406
1772048306701681700,5.674681640625,0.0648942047148943,0.0034783436350524425,-0.00236713099014014
1772048306711633400,5.68463330078125,0.07310790630877018,-0.0038845863483846187,-0.008013849906530231
1772048306721584600,5.694584716796875,0.08551379889547825,0.005482961455732583,-0.006959682944789529
1772048306731535600,5.70453564453125,0.08504676590561866,-0.002277370347455144,-0.01292463749749586
1772048306741486600,5.714486572265625,0.07546937474310397,-0.0006110445704311132,-0.011388568770326674
1772048306751438600,5.7244384765625,0.07096797167062759,0.0009582505729049444,-0.006206882682954892
1772048306761389600,5.7343896484375,0.08996376404166222,0.00007576864995062351,-0.012473313533421605
1772048306771340500,5.744340576171875,0.0830669902652502,0.005082783157005906,-0.010363463506288827
1772048306781291500,5.75429150390625,0.07198971593379974,0.010851575816795229,-0.0016681798073928803
1772048306791243500,5.764243408203125,0.09172843562662601,-0.001197466156259179,-0.008679583806265144
1772048306801194800,5.77419482421875,0.09576105214357375,-0.004373977300524711,-0.008386007687170058
1772048306811145500,5.7841455078125,0.09575111527144908,-0.0006418050348758697,0.002509562534978613
1772048306821096700,5.7940966796875,0.091855276876688,0.005416179829835891,0.0012277790961321442
1772048306831047400,5.80404736328125,0.07405015559494495,0.008806772116199135,-0.003690589013090357
1772048306840999700,5.813999755859375,0.06656944445073604,0.007100552720203995,0.005615273465355858
1772048306850950400,5.823950439453125,0.08302432016730309,0.014954919482395052,-0.002868933899281546
1772048306860901600,5.833901611328125,0.08344926758110523,-0.0027473259467631576,-0.011692008696310222
1772048306870852400,5.843852294921875,0.06967091759741306,0.00967091466486454,0.005798338414682075
1772048306880804600,5.8538046875,0.062195467150211334,0.012648249975219367,-0.0009405505194328724
1772048306890755600,5.863755615234375,0.06563187133967877,0.02156476607620716,-0.004110695854993537
1772048306900706600,5.87370654296875,0.07116320198178291,-0.001393646315485239,0.007223210985492915
1772048306910657500,5.883657470703125,0.07268354341685772,0.00441379785425961,0.016543750443262978
1772048306920609500,5.893609619140625,0.0943956090092659,0.007520677828416228,0.0029114669999107715
1772048306930560500,5.903560546875,0.10863339319825172,0.00934058673195541,0.006545923645282164
1772048306940511500,5.913511474609375,0.08275836270749569,0.01663585830666125,0.017447302553709597
1772048306950462500,5.92346240234375,0.08634615806639194,0.00004515431597828865,-0.0026945271804463115
1772048306960413400,5.933413330078125,0.09126783237755298,0.015706979958713053,-0.008499907257268204
1772048306970365400,5.943365478515625,0.08915478574633598,0.0115014910928905,0.011634424157021567
1772048306980316700,5.953316650390625,0.08660451674163341,0.00006137479841709136,0.005465827657841146
1772048306990267400,5.963267333984375,0.07013268989026546,0.004040361431986093,0.023629626184143125
1772048307000218600,5.973218505859375,0.07595394338965415,0.030855522317066786,-0.0011744780063163488
1772048307010170400,5.98317041015625,0.11543722799420356,0.011304726411774754,-0.0204835467107594
1772048307020121600,5.99312158203125,0.08309504731595516,0.02221826154887676,0.009726645173784345
1772048307030072600,6.003072509765625,0.05972703121006488,-0.0014012451000511646,-0.018808169977599754
1772048307040023600,6.0130234375,0.07601999436318874,0.00005304536148905754,-0.04130536719886586
1772048307049975600,6.0229755859375,0.056698038777709,-0.0006376403164118527,-0.028140664734644813
1772048307059926500,6.032926513671875,0.030351883643865582,0.0018302111018449066,-0.01624834769326262
1772048307069877500,6.04287744140625,0.04247486763596534,0.00449906498491764,-0.01513720811358653
1772048307079828500,6.052828369140625,0.05893617309331894,0.010193477234244346,-0.020083971200231462
1772048307089779700,6.06277978515625,0.0797206024467945,0.008263678215444088,-0.0298127626653295
1772048307099731500,6.0727314453125,0.08795183969736099,0.0043042730651795865,-0.010644381073210387
1772048307109682400,6.082682373046875,0.07074468430876732,0.004128624237328768,0.005591993054468184
1772048307119633700,6.092633544921875,0.06386895332038402,0.016010712145641447,-0.005704760113405064
1772048307129584600,6.102584716796875,0.08675473886728287,0.008401990707591175,-0.01426246197251603
1772048307139536600,6.11253662109375,0.09139759623706341,0.00012691431529819966,0.021338017248781396
1772048307149487600,6.122487548828125,0.08123100700974464,-0.02925071746893227,-0.0012352317502256481
1772048307159438600,6.1324384765625,0.10114332970380782,0.00034304128400981424,0.00013015658515505492
1772048307169389600,6.1423896484375,0.11340718347132206,0.03253565742373466,-0.018056958884652703
1772048307179341600,6.152341552734375,0.10472820245325565,-0.010596578142419457,-0.000935983942169696
1772048307189292500,6.16229248046875,0.06672025109827517,0.009016469344124197,0.04043840250545181
1772048307199243500,6.172243408203125,0.049963762086629865,0.018643910193443296,0.05118587862695567
1772048307209194800,6.18219482421875,0.05969312894046306,0.0269151141282171,0.03233500201879069
1772048307219145500,6.1921455078125,0.095758714056015,0.009221928788349033,0.0032069610814563928
1772048307229097700,6.20209765625,0.09262100055217742,0.00872026287652552,0.001444581918278709
1772048307239048400,6.21204833984375,0.09321779740154743,0.0003736556179821491,-0.012494411120377481
1772048307248999700,6.221999755859375,0.08094576032757758,-0.008438523325696588,-0.0022454865050036458
1772048307258950400,6.231950439453125,0.08677578165531158,-0.013748174041137099,-0.0008430540948640555
1772048307268902400,6.24190234375,0.060279988917708395,0.002715104177594185,-0.0023323428045492617
1772048307278853400,6.251853271484375,0.04277005119025707,0.0045725686125457285,-0.0007427537918556481
1772048307288804400,6.261804443359375,0.05907996547818183,0.00786269619911909,0.0026752836238592864
1772048307298755300,6.27175537109375,0.09828267957568168,0.005622516056895256,0.00450925758536905
1772048307308707600,6.28170751953125,0.10426643016040324,-0.0019779490094631908,-0.009888018881110475
1772048307318658300,6.291658203125,0.08345452827811241,0.005245207177102565,-0.0170736652020365
1772048307328609500,6.301609619140625,0.040966801160573954,-0.0011008008487522602,-0.0023231913837138563
1772048307338560300,6.311560302734375,0.0504109213322401,-0.0022466829482465983,0.012891475013410671
1772048307348512500,6.321512451171875,0.09203530961871147,0.012394786670804023,0.004383384449686855
1772048307358463200,6.331463134765625,0.07573357863724231,0.002081190188229084,0.0007949406368192285
1772048307368414500,6.34141455078125,0.06049801558256149,0.0036066461898386477,0.0015728205409832297
1772048307378365200,6.351365234375,0.07487783859074115,0.010777852993458509,0.005333031591027975
1772048307388316400,6.36131640625,0.1003343514084816,0.015190700999647378,0.003781299503846094
1772048307398268400,6.371268310546875,0.08343991523087024,0.015543971416726707,-0.00351295829070732
1772048307408219400,6.381219482421875,0.0647369683265686,0.013586992130056022,-0.014692578751780093
1772048307418170400,6.39117041015625,0.08434007894098758,0.012848667918145656,-0.002548798566823825
1772048307428121300,6.401121337890625,0.10586275944113731,0.013142390167713165,-0.012388375196326523
1772048307438073300,6.4110732421875,0.09805003986358642,0.008050400790944694,-0.013376162390969693
1772048307448024300,6.4210244140625,0.08497370066940783,0.007014554937183857,-0.0031302608497440812
1772048307457975300,6.430975341796875,0.077289575907588,0.010236001201719046,0.0041198929416015745
1772048307467926500,6.440926513671875,0.07559680051505566,0.006431859678402542,0.005430802010232582
1772048307477878300,6.450878173828125,0.08547171331942081,0.0008514291975647211,0.0006090809422079473
1772048307487829500,6.46082958984375,0.016118775629997254,-0.020152853451669214,0.02795554482555017
1772048307497780200,6.4707802734375,0.06629179655313491,0.008918854188546538,0.023531563503993675
1772048307507731500,6.4807314453125,0.17032441795766354,0.013482435777038336,-0.04565279441918246
1772048307517682400,6.490682373046875,0.012501169654726982,-0.0020929536912590264,0.008349182808119804
1772048307527634400,6.500634521484375,0.10329553930163383,0.05634637579582631,0.004211863807681948
1772048307537585400,6.51058544921875,0.1281195994347334,-0.014282500113546847,-0.013391359960101544
1772048307547536400,6.520536376953125,0.015445990934967993,0.0057372284777462475,0.05563630956402048
1772048307557487400,6.5304873046875,0.11152969916164875,0.009484013790637255,0.01927693826681934
1772048307567439400,6.540439453125,0.08143442062735558,0.008909574903547763,-0.026947938685584812
1772048307577390300,6.550390380859375,0.09323533305823803,-0.004010623880848288,-0.027452883399883284
1772048307587341300,6.56034130859375,0.08964929126501082,-0.004797171148657798,0.021622323216032236
1772048307597292500,6.57029248046875,0.06810615249872207,0.0031570027261972424,0.015624945964757352
1772048307607244500,6.58024462890625,0.08487140933871269,0.012919322001561522,-0.02343543705260381
1772048307617195300,6.5901953125,0.09336100526452064,0.016032120259851217,-0.0567439237460494
1772048307627146500,6.600146484375,0.11995441315770149,0.010215908261761069,0.004089643933810293
1772048307637097500,6.610097412109375,0.07071545821428299,0.021737346164137125,0.013752384425373748
1772048307647048400,6.62004833984375,0.04107727579772472,-0.00625321517586708,-0.04333266264223493
1772048307657000200,6.630000244140625,0.07875263419747353,0.03642323944680392,-0.042894152493961155
1772048307666951400,6.639951416015625,0.07437105811238288,0.021517931259796022,-0.00513999323695898
1772048307676902400,6.64990234375,0.06373626685142517,-0.04308642366304993,-0.003072018723329529
1772048307686853400,6.659853271484375,0.025573417195677756,-0.0005519347943365574,0.00892237958619371
1772048307696805400,6.669805419921875,0.04263093498051166,-0.022106910128891467,-0.0405833000020124
1772048307706756400,6.67975634765625,0.11894026767909525,0.013572232952341437,-0.025245445616636424
1772048307716707600,6.68970751953125,0.10890519587695598,0.031979996302351356,0.021110967027256265
1772048307726658300,6.699658203125,0.022253332862257957,-0.019297113405168057,0.022851508817961438
1772048307736610300,6.7096103515625,0.02269055523574352,0.00839972568526864,0.03438059117067605
1772048307746561300,6.719561279296875,0.11380699644386767,-0.001963774353638291,0.013500017099501565
1772048307756512500,6.729512451171875,0.13414777368307113,0.015207579069212078,0.006305054960958659
1772048307766463200,6.739463134765625,0.07009001979231834,0.007369871180877089,0.021630387791479005
1772048307776414500,6.74941455078125,0.0628986469835043,-0.0005767769746482372,0.016539247798081486
1772048307786366500,6.759366455078125,0.08458207100331783,0.008132745312154292,0.017525765484245493
1772048307796317400,6.7693173828125,0.11704875484406947,0.007782689765468239,0.009196045428421349
1772048307806268400,6.779268310546875,0.07455752059519291,0.011478475543484091,0.013470069485809652
1772048307816219400,6.789219482421875,0.05705050547719001,0.006527063681185245,0.01141764873433858
1772048307826171400,6.79917138671875,0.08519231185615062,0.01336662737764418,0.0029455062668304888
1772048307836122400,6.809122314453125,0.12484510780870914,0.009042626698687672,-0.011669933861820027
1772048307846073300,6.8190732421875,0.13097031269073486,0.011462985713407396,-0.011402496830979362
1772048307856024600,6.829024658203125,0.08443184887766837,0.007594035325571894,-0.001763182880776003
1772048307865976300,6.838976318359375,0.07604863593578338,0.007378054487332701,-0.004989661513455212
1772048307875927600,6.848927490234375,0.08486322603225707,0.011210399191826582,-0.01286982030402869
1772048307885878300,6.858878173828125,0.07496142522096634,0.003091536274552345,-0.014652283274009822
1772048307895829500,6.86882958984375,0.07076163544356823,0.002071253316104412,-0.00801097296285443
1772048307905781500,6.878781494140625,0.07552490432262421,0.007868249157071114,-0.00943895080620423
1772048307915732500,6.888732421875,0.08134791138768195,-0.004765533901378512,-0.007525838060723617
1772048307925683500,6.898683349609375,0.061597501257061954,-0.003884805544093251,-0.004553005395550281
1772048307935634400,6.908634521484375,0.06308218685686588,-0.00596292699240148,0.00043533181049861013
1772048307945586400,6.91858642578125,0.0662140551418066,0.007197364158183336,-0.00785135282119736
1772048307955537400,6.928537353515625,0.07369651985168457,0.005100099617987871,-0.014048572626663371
1772048307965488400,6.93848828125,0.06950900503396988,-0.0025330986741930244,-0.009683271822938695
1772048307975439400,6.948439453125,0.048559740507602686,-0.0033924919825047252,-0.007707907496206462
1772048307985390300,6.958390380859375,0.05634557207822799,-0.0004699555993080139,-0.0002553812668658793
1772048307995342600,6.968342529296875,0.07489186711609364,0.008035276287049054,-0.00858938020558562
1772048308005293300,6.978293212890625,0.07937515000998974,0.007993409906700253,-0.008463315273658373
1772048308015244500,6.98824462890625,0.09134265117943287,0.015567790683731436,-0.006544448640826158
1772048308025195300,6.9981953125,0.07847147916853428,0.006065802844986319,0.007968015170539728
1772048308035147500,7.0081474609375,0.07413608031272888,0.012612228813767433,0.008187649270589462
1772048308045098200,7.01809814453125,0.09358312358260154,0.009723594700172544,0.001198242474393919
1772048308055049500,7.028049560546875,0.10196224487125873,0.018447583903744815,0.0016365288603818044
1772048308065000200,7.038000244140625,0.09072948771715164,0.02194214802123606,0.008929256851552055
1772048308074951400,7.047951416015625,0.09670563951730728,0.012382803972065448,0.004701410023448989
1772048308084903400,7.0579033203125,0.1076280155479908,-0.001964724201709032,-0.0017771292077377438
1772048308094854400,7.0678544921875,0.1071703349083662,0.002673676188662648,0.0016651293337810783
1772048308104805400,7.077805419921875,0.0833674345165491,0.018866028511524198,0.011218746895063667
1772048308114756400,7.08775634765625,0.08064765416383743,0.008203253265097736,0.012881656872294842
1772048308124708400,7.097708251953125,0.10951076055467128,0.0156445091817528,0.0006401884665247052
1772048308134659300,7.107659423828125,0.09842238030731677,0.0027098434805870055,-0.00011447039225604384
1772048308144610300,7.1176103515625,0.08120528804659843,-0.004184665273502469,-0.0048232189053669565
1772048308154561300,7.127561279296875,0.07026654540300369,0.004418327898904681,-0.00991442283084616
1772048308164513300,7.13751318359375,0.07458850025534629,0.006459916729107499,-0.006335870224330574
1772048308174464500,7.147464599609375,0.0706844785541296,0.008309928509965538,-0.009637811546283773
1772048308184415200,7.157415283203125,0.04478840527534485,0.003931494230031967,-0.003748360782046802
1772048308194366500,7.167366455078125,0.03955576531887054,0.007906535340845584,-0.004966276071290485
1772048308204318200,7.177318115234375,0.05871873095035553,0.01089614561088383,-0.006546302671195007
1772048308214269400,7.18726953125,0.07563479443788527,-0.0034081279430538416,-0.008627428927342407
1772048308224220200,7.19722021484375,0.07848258508443832,-0.002100990867242217,-0.0008039961595321073
1772048308234171400,7.20717138671875,0.06517419070005416,-0.00044796296320855615,0.0047800601836526764
1772048308244122600,7.21712255859375,0.07685586066544055,-0.014527999307215213,-0.016205933323642237
1772048308254074400,7.227074462890625,0.10019698876440525,-0.005339242136105895,-0.009418602137919514
1772048308264025300,7.237025390625,0.09599719898700713,-0.001557604705542326,-0.001676947635738179
1772048308273977000,7.24697705078125,0.08895078760683536,0.0028179800301790237,0.0018783884919714182
1772048308283927800,7.256927734375,0.07502864523828029,0.014082666692510246,0.004073811610438861
1772048308293880000,7.266880126953125,0.07339256846904754,0.015124211634695529,0.0006991703784558922
1772048308303831000,7.2768310546875,0.09104337597191334,0.020751330801472068,0.0017908746052999048
1772048308313782000,7.286781982421875,0.08146773837506771,0.01789820639267564,-0.0009414455685764551
1772048308323733000,7.29673291015625,0.08880699522197245,0.014657397840544581,0.0018283570714760571
1772048308333685000,7.30668505859375,0.08416998307108879,0.020927564151212573,-0.0035180271914694457
1772048308343636000,7.316635986328125,0.07832534869611263,0.0289889977928251,0.006860866779391654
1772048308353587000,7.3265869140625,0.08072188844382762,0.014877908723428845,0.0034976785231847314
1772048308363538000,7.336537841796875,0.07653378910422325,0.0044929275050759315,-0.00509558327307459
1772048308373489000,7.346489013671875,0.08446750471293926,-0.0018129677060991524,-0.014371886296896263
1772048308383441000,7.35644091796875,0.08118073812723159,0.012168649764731526,-0.007326589161576703
1772048308393392000,7.36639208984375,0.07654197241067887,0.012775237355753779,0.000519082837505266
1772048308403342800,7.3763427734375,0.06276888312399387,-0.002264437800645828,-0.0022768862902652473
1772048308413294000,7.386294189453125,0.07729074495136737,0.0042144028246402735,-0.0034543873707298185
1772048308423245800,7.396245849609375,0.08777472956478595,-0.0005597527746111154,-0.014561065893177873
1772048308433197000,7.406197021484375,0.07206511925756931,0.005688420899957418,-0.002272506942669861
1772048308443147800,7.416147705078125,0.06996902376115322,0.0020930998217314483,-0.001693177251331508
1772048308453099000,7.42609912109375,0.08149754899144172,0.004694514491781592,-0.0011205923946108669
1772048308463051000,7.436051025390625,0.08285247073173523,0.0025181203007698058,0.0021891988736577332
1772048308473002000,7.446001953125,0.07222761634290217,0.001793313157558441,-0.004364282456994988
1772048308482953000,7.455952880859375,0.08091185805797577,-0.001726020075008273,-0.006944234213908202
1772048308492904000,7.465904052734375,0.07717033344209194,0.0075609367735683915,-0.006192223969940095
1772048308502856000,7.47585595703125,0.0713338823735714,0.017134309348091483,-0.006675386110693216
1772048308512807200,7.48580712890625,0.08255494908988475,0.0113185357414186,-0.0022874305171659217
1772048308522758000,7.4957578125,0.09526479305922984,0.0035187487106770276,-0.003929096776968799
1772048308532709000,7.505709228515625,0.08059796980321407,0.0019104367312043904,0.0017371807898394762
1772048308542660000,7.51566015625,0.09031915335059165,0.0037936931945383545,0.0023175836268346755
1772048308552612000,7.525612060546875,0.08493336865901946,0.007506357042118906,0.004642998933675699
1772048308562562800,7.535562744140625,0.07595160530209541,0.013988997059687971,-0.006547384950006381
1772048308572514000,7.54551416015625,0.07519055780172347,0.006856734026968478,-0.00005125526320189237
1772048308582465000,7.555465087890625,0.07727554738223552,0.00898468596637249,0.000013873261725530028
1772048308592417000,7.5654169921875,0.08055880683660507,0.004746390809491277,0.0018833477948792278
1772048308602368000,7.575367919921875,0.08444237027168273,0.007681859739497304,-0.0018651454179082064
1772048308612319000,7.585319091796875,0.0788888277977705,0.010941007665917277,-0.00645133613042999
1772048308622270200,7.595270263671875,0.06660860741734505,0.010050342436507344,-0.0017181381626520304
1772048308632222000,7.605221923828125,0.06930091524124145,0.008280337089300155,-0.0014556787010282276
1772048308642173000,7.6151728515625,0.0709457598388195,0.01727722495011985,-0.008994038316607474
1772048308652124000,7.6251240234375,0.06256956115961075,0.01020728656388819,-0.009702739141811616
1772048308662075100,7.6350751953125,0.0673597180455923,-0.012418971263989805,0.010970046530733815
1772048308672027100,7.645027099609375,0.08217442533969879,0.007914353321120143,0.002842388385650702
1772048308681978000,7.65497802734375,0.07813537908196448,0.006372676837071776,-0.0014060856719501317
1772048308691929000,7.66492919921875,0.07978840698599815,0.007791092267632484,-0.005241873575700447
1772048308701880000,7.674880126953125,0.07081131980419159,0.002682224821299314,-0.002870148608833551
1772048308711831000,7.6848310546875,0.06483049182891845,0.006953399334475398,0.0008921448004432022
1772048308721783000,7.694782958984375,0.07247662266790866,0.0018100450966507195,-0.0056984034378547216
1772048308731734000,7.704734130859375,0.07861585607528686,-0.0021286095265299083,-0.007924650952848606
1772048308741685000,7.71468505859375,0.07786708353459834,0.0007150894667953253,-0.005877066206699237
1772048308751636000,7.724635986328125,0.07787994301617145,0.005763824223726987,-0.006070163926272652
1772048308761588200,7.734588134765625,0.08776011651754378,0.006012099896371364,-0.007227174774557352
1772048308771539000,7.7445390625,0.08207447209656238,0.007189400047436356,0.004996301316795871
1772048308781490200,7.754490234375,0.09164543351829052,0.0048895256072282785,0.002961836347123608
1772048308791441000,7.76444091796875,0.08461305066347122,0.012243103240430354,-0.004921395749947987
1772048308801392000,7.77439208984375,0.07563420991599559,0.012859481573104858,0.008791245753504335
1772048308811344000,7.78434375,0.07862930007874966,0.0012818565040826797,-0.0022255214292090384
1772048308821295000,7.794295166015625,0.09733458507061005,-0.009061185268685221,-0.0023261185597395523
1772048308831245800,7.804245849609375,0.07579612247943877,0.005306143584102392,0.001464592659845948
1772048308841197000,7.814197021484375,0.0632248101979494,-0.005138751127943396,0.0053520468187518416
1772048308851149000,7.824149169921875,0.08446633566915988,0.0018430705834180116,-0.0005915544186718761
1772048308861100000,7.83410009765625,0.07563479443788527,0.013246069737896323,-0.0027387088154675436
1772048308871051000,7.844051025390625,0.07519932563006877,0.01137808390893042,0.003317326120752841
1772048308881002000,7.854001953125,0.08791969099342822,0.0064158583916723725,-0.0090857671540929
1772048308890954000,7.8639541015625,0.07833879269957542,0.006807634188234805,-0.0073655785982497035
1772048308900905200,7.8739052734375,0.0820779792279005,0.0030873715560883284,-0.004674279987928457
1772048308910856000,7.88385595703125,0.0737035341143608,0.003925649011135101,-0.002281046442152001
1772048308920807200,7.89380712890625,0.06950608242452144,0.0014978373423218726,-0.006069908197945915
1772048308930759000,7.903759033203125,0.06576221972107887,0.009302738939598203,-0.00021394414477981627
1772048308940710100,7.913710205078125,0.09296762203276157,0.010261574034392833,-0.010553506185673177
1772048308950660900,7.923660888671875,0.31046354101002216,0.05679879573844373,-0.05740102681475691
1772048308960612000,7.933612060546875,0.0843307265907526,-0.042685953103378416,-0.06353503605774603
1772048308970562800,7.943562744140625,-0.37189620709419247,-0.024322467286512255,0.13424918823093174
1772048308980515000,7.95351513671875,0.3247778975665569,0.022910408531501888,-0.033202327471808527
1772048308990466000,7.963466064453125,0.07118015311658382,-0.016339944100007414,-0.02255453516538255
1772048309000417000,7.9734169921875,-0.0432610495775938,0.022727380114793777,0.014155147406831383
1772048309010368000,7.983367919921875,0.14724047949016095,0.001039791376516223,0.005427450142521411
1772048309020320000,7.993320068359375,-0.025514965006709096,-0.005837108655646443,0.03481393195348791
1772048309030271000,8.00327099609375,0.00500233833193779,-0.02497727793343365,0.0015325524626765398
1772048309040222000,8.013221923828125,0.21318331647515296,0.015115370741114019,-0.029180035986052823
1772048309050173000,8.0231728515625,0.20806465828716753,0.02767214304059744,-0.01922357324492186
