time,seconds_elapsed,z,y,x
1772048301119047200,0.092047119140625,0.00036232220008969307,-0.0022284588776528835,-0.0017253807745873928
1772048301128998100,0.101998046875,0.0007833680137991905,-0.0019706650637090206,0.0007992959581315517
1772048301138949000,0.11194921875,-0.0005188898649066687,0.0027863045688718557,0.002435589674860239
1772048301148901000,0.121901123046875,0.0003985692746937275,-0.0015088417567312717,-0.0003884262405335903
1772048301158852000,0.13185205078125,0.0012165331281721592,-0.00040690694004297256,0.0013704081065952778
1772048301168803300,0.14180322265625,0.00023648981004953384,0.000538781750947237,0.002678553108125925
1772048301178754000,0.151754150390625,0.00216916436329484,0.0017289284151047468,0.0021570471581071615
1772048301188705300,0.161705322265625,0.0017166933976113796,-0.005031771957874298,0.000052617397159338
1772048301198657000,0.171656982421875,-0.0009587772656232119,0.0004070550203323364,-0.00023653963580727577
1772048301208608300,0.181608154296875,-0.00022587529383599758,-0.0007761875167489052,0.0007578846998512745
1772048301218559000,0.19155908203125,0.00019413884729146957,0.0024257241748273373,-0.0022450261749327183
1772048301228510200,0.20151025390625,-0.000718260183930397,-0.00008563674055039883,0.002094328636303544
1772048301238462200,0.211462158203125,-0.0006545735523104668,-0.0015590395778417587,0.0006514862179756165
1772048301248413200,0.2214130859375,0.003411807119846344,-0.0026815622113645077,-0.0020548179745674133
1772048301258370000,0.2313701171875,-0.0000018225982785224915,-0.00021306844428181648,0.00018109986558556557
1772048301268321300,0.2413212890625,0.000632542185485363,0.00023274472914636135,0.0005653942935168743
1772048301278272300,0.251272216796875,0.0002771979197859764,-0.0007872553542256355,0.0003364342264831066
1772048301288224300,0.261224365234375,-0.0009031149093061686,-0.00005222298204898834,-0.0006337552331387997
1772048301298175200,0.27117529296875,0.0008505615405738354,0.000332988565787673,-0.0007963483221828938
1772048301308126200,0.281126220703125,0.0008239299058914185,-0.0009043160825967789,0.0016098176129162312
1772048301318077400,0.291077392578125,-0.00046476488932967186,-0.0043631987646222115,0.0012484388425946236
1772048301328028200,0.301028076171875,0.0017674965783953667,-0.004060131497681141,-0.0011004693806171417
1772048301337980200,0.310980224609375,0.001282410230487585,0.0020568333566188812,0.00024961913004517555
1772048301347931100,0.32093115234375,0.0023316959850490093,0.0022222157567739487,0.0018983823247253895
1772048301357882400,0.33088232421875,-0.0005221134051680565,-0.0005180486477911472,-0.001488039270043373
1772048301367833300,0.340833251953125,0.0010456894524395466,-0.001882918644696474,0.0003886902704834938
1772048301377784300,0.350784423828125,-0.0011847116984426975,-0.0011812727898359299,0.0026393216103315353
1772048301387736300,0.360736328125,0.0019961679354310036,0.00045044603757560253,0.000314381904900074
1772048301397687300,0.370687255859375,-0.001103556016460061,0.00013598427176475525,-0.0006458628922700882
1772048301407638300,0.38063818359375,0.0006639841012656689,0.000017739832401275635,-0.0013806289061903954
1772048301417589200,0.39058935546875,-0.0007499342318624258,-0.00031396234408020973,-0.0006285603158175945
1772048301427540200,0.400540283203125,-0.0010000050533562899,0.00245119770988822,-0.0029423143714666367
1772048301437492500,0.410492431640625,-0.0006904865149408579,0.001785574946552515,0.0031507275998592377
1772048301447443200,0.420443115234375,0.00025759870186448097,0.003371221013367176,0.00007717357948422432
1772048301457394400,0.43039453125,-0.0003076731227338314,0.0020599891431629658,0.003489680588245392
1772048301467345200,0.44034521484375,0.00024200323969125748,0.004025668371468782,0.0005990853533148766
1772048301477297400,0.45029736328125,0.000838706735521555,-0.0007279752753674984,-0.0007940097711980343
1772048301487248100,0.460248046875,-0.000010841991752386093,-0.0022973762825131416,-0.0019066785462200642
1772048301497199400,0.470199462890625,0.002423145342618227,0.00040497537702322006,0.00047439243644475937
1772048301507150000,0.480150146484375,0.0006710519082844257,0.0006635682657361031,0.0041948286816477776
1772048301517101300,0.490101318359375,0.0004794416017830372,-0.00017665140330791473,0.0008279904723167419
1772048301527053300,0.50005322265625,-0.0002814235631376505,-0.001907705795019865,0.0013134847395122051
1772048301537004300,0.51000439453125,0.0005659861490130424,-0.0009780959226191044,-0.0002497951500117779
1772048301546955300,0.519955322265625,-0.0000750366598367691,0.0007697369437664747,0.00017418013885617256
1772048301556906200,0.52990625,-0.000054041389375925064,0.00016274349763989449,0.0021557745058089495
1772048301566857200,0.539857177734375,-0.00025883852504193783,-0.0016258354298770428,0.0019176879432052374
1772048301576809200,0.549809326171875,-0.0012356184888631105,-0.0017839809879660606,-0.0006967661902308464
1772048301586760200,0.55976025390625,0.0010416507720947266,-0.001681182999163866,-0.0017569707706570625
1772048301596711200,0.569711181640625,0.0011347848922014236,0.0007247515022754669,0.004450004547834396
1772048301606662400,0.579662353515625,0.0019798059947788715,-0.00017539691179990768,-0.00018336297944188118
1772048301616613000,0.589613037109375,0.00090041384100914,-0.001647641882300377,-0.001113522332161665
1772048301626565000,0.599565185546875,-0.00005299784243106842,-0.0028545865789055824,-0.0015167249366641045
1772048301636516400,0.609516357421875,0.0015253308229148388,-0.0006357533857226372,-0.0015039327554404736
1772048301646467300,0.61946728515625,0.000010258518159389496,-0.002550033852458,-0.0018450836651027203
1772048301656418300,0.629418212890625,-0.0002320287749171257,-0.000382827827706933,-0.002451819833368063
1772048301666369300,0.639369384765625,-0.0002075275406241417,0.0005831005983054638,-0.0012589897960424423
1772048301676321300,0.6493212890625,-0.001102435402572155,0.0018387085292488337,-0.003346729092299938
1772048301686272300,0.659272216796875,0.0010382132604718208,-0.0029488559812307358,-0.005802163854241371
1772048301696223200,0.66922314453125,-0.000019906554371118546,-0.0017425967380404472,-0.004654026590287685
1772048301706174500,0.679174560546875,0.0004243087023496628,0.0017376223113387823,-0.003858807496726513
1772048301716126200,0.689126220703125,-0.0020034764893352985,0.00406704843044281,-0.0039769914001226425
1772048301726077400,0.699077392578125,-0.0022229207679629326,0.0032750244718044996,0.0009607761166989803
1772048301736028200,0.709028076171875,-0.0020142742432653904,0.0006949824746698141,-0.0022482560016214848
1772048301745979400,0.7189794921875,-0.0012715186458081007,-0.001858456525951624,-0.002960918005555868
1772048301755930000,0.72893017578125,0.0016483296640217304,0.0009990972466766834,0.0015495282132178545
1772048301765882400,0.73888232421875,-0.00019244756549596786,0.005283324513584375,0.0007697544060647488
1772048301775833300,0.748833251953125,0.0006342697888612747,-0.0009198291227221489,-0.00021334411576390266
1772048301785784300,0.758784423828125,-0.0017082467675209045,-0.003296167589724064,0.000005301088094711304
1772048301795735300,0.7687353515625,-0.001922090072184801,0.0006391271017491817,0.001643614610657096
1772048301805686300,0.778686279296875,-0.0014315356966108084,0.002269780496135354,0.0020827699918299913
1772048301815638300,0.78863818359375,-0.0006912627723067999,-0.00033499859273433685,0.0017443452961742878
1772048301825589200,0.79858935546875,0.00020968448370695114,-0.004031199961900711,0.0008138366974890232
1772048301835540200,0.808540283203125,-0.0012598319444805384,-0.000057572266086936,0.006842548027634621
1772048301845491200,0.8184912109375,-0.0013216172810643911,-0.00007328484207391739,-0.003032452892512083
1772048301855442200,0.828442138671875,0.0009397482499480247,-0.005627133417874575,-0.0003251926973462105
1772048301865394400,0.83839453125,-0.0005548179615288973,-0.0015865853056311607,0.004559311084449291
1772048301875345200,0.84834521484375,-0.0000820280984044075,0.0036721257492899895,0.009064119309186935
1772048301885296400,0.85829638671875,-0.0017739345785230398,0.005603982601314783,0.004571367055177689
1772048301895247000,0.8682470703125,0.00008680112659931183,-0.00018984684720635414,0.0035208682529628277
1772048301905199400,0.878199462890625,0.0018820380792021751,-0.006870120298117399,0.00011788122355937958
1772048301915150000,0.888150146484375,0.000915400218218565,-0.00724163930863142,-0.0024183448404073715
1772048301925101300,0.898101318359375,-0.0023621520958840847,-0.000360297504812479,-0.0008627921342849731
1772048301935052000,0.908052001953125,-0.0021655098535120487,-0.011355158872902393,-0.004462151322513819
1772048301945003300,0.918003173828125,0.0005021784454584122,-0.006106867454946041,-0.004926872905343771
1772048301954955300,0.927955322265625,-0.001284962985664606,0.0032460144720971584,-0.0007018186151981354
1772048301964906200,0.93790625,-0.0007241012062877417,0.003999156411737204,0.00018314970657229424
1772048301974857200,0.947857177734375,-0.000676875002682209,-0.0015029245987534523,0.002191765932366252
1772048301984808200,0.95780810546875,0.0016113128513097763,0.005412505939602852,0.0053856950253248215
1772048301994759400,0.967759521484375,-0.0014152561780065298,0.005907934159040451,0.004519756883382797
1772048302004711200,0.977711181640625,-0.00039739604108035564,-0.001343587413430214,0.0010147704742848873
1772048302014662100,0.987662109375,0.0022308300249278545,-0.004026269074529409,-0.00035927584394812584
1772048302024613400,0.99761328125,0.001090731006115675,-0.0021916176192462444,0.0018844371661543846
1772048302034564400,1.007564453125,-0.0009295539930462837,0.00140382070094347,0.0005370741710066795
1772048302044515300,1.017515380859375,0.0011599622666835785,-0.006718554068356752,-0.0029071918688714504
1772048302054467300,1.02746728515625,0.0012107784859836102,-0.008578231558203697,-0.0002536894753575325
1772048302064418300,1.037418212890625,0.003425995819270611,-0.00197811983525753,-0.00046913884580135345
1772048302074369300,1.047369384765625,8.195638656616211e-8,-0.002324721310287714,-0.0006222925148904324
1772048302084320300,1.0573203125,0.0018533761613070965,-0.008285141550004482,-0.0019205831922590733
1772048302094272300,1.067272216796875,0.0027199150063097477,-0.0014166315086185932,0.0007387124933302402
1772048302104223200,1.07722314453125,-0.0007701576687395573,0.0003703497350215912,-0.0022916984744369984
1772048302114174500,1.087174560546875,0.0014149839989840984,0.0006502720061689615,-0.00006714090704917908
1772048302124125200,1.097125244140625,-0.0001879725605249405,-0.004216655157506466,-0.0031675929203629494
1772048302134076400,1.107076416015625,0.00015627359971404076,0.0003631149884313345,-0.005670689977705479
1772048302144028200,1.117028076171875,0.0010369811207056046,0.0031421235762536526,0.003751840442419052
1772048302153979400,1.1269794921875,0.0004749000072479248,0.010362820699810982,0.010546088218688965
1772048302163930000,1.13693017578125,-0.002573886886239052,0.02161201275885105,-0.0068025412037968636
1772048302173881300,1.14688134765625,-0.0033642982598394156,0.008315116167068481,0.002450078958645463
1772048302183832000,1.15683203125,0.003044332377612591,-0.004645423963665962,-0.0011968538165092468
1772048302193784300,1.166784423828125,-0.0020409426651895046,0.0009416937828063965,-0.0018573296256363392
1772048302203735300,1.1767353515625,0.0011708294041454792,0.0105354655534029,-0.0009039179421961308
1772048302213686300,1.186686279296875,-0.0015693705063313246,0.0035516400821506977,0.0022664449643343687
1772048302223637200,1.19663720703125,-0.000651645241305232,0.004750062711536884,-0.0020950138568878174
1772048302233588200,1.206588134765625,-0.001119137043133378,0.008688855916261673,-0.0012911255471408367
1772048302243540200,1.216540283203125,-0.0023135647643357515,-0.0012226304970681667,0.00007054861634969711
1772048302253491200,1.2264912109375,0.0007650069892406464,-0.013932980597019196,-0.003773598000407219
1772048302263440000,1.23643994140625,0.0010872497223317623,-0.006394903641194105,-0.007906291633844376
1772048302273391000,1.24639111328125,0.0014817062765359879,-0.014394357800483704,-0.006603066343814135
1772048302283342800,1.2563427734375,0.002987723797559738,-0.04681355133652687,-0.01215522363781929
1772048302293294000,1.266294189453125,0.00036623515188694,-0.015736794099211693,-0.007044995203614235
1772048302303244800,1.276244873046875,0.00017635198310017586,0.022525107488036156,0.0015980282332748175
1772048302313196000,1.286196044921875,0.0015774257481098175,0.00045442115515470505,-0.000899310689419508
1772048302323146800,1.296146728515625,-0.0000732014887034893,-0.01861114799976349,-0.0015922654420137405
1772048302333099000,1.30609912109375,0.002836096566170454,0.0004670843482017517,-0.002782991621643305
1772048302343050000,1.316050048828125,-0.001393269281834364,0.009380152449011803,0.0038213818334043026
1772048302353001000,1.3260009765625,0.0012899162247776985,0.011842424049973488,0.003656088374555111
1772048302362952000,1.335951904296875,0.0004291823133826256,0.0006528862286359072,-0.0010364013724029064
1772048302372903000,1.34590283203125,0.00038345111533999443,0.0030515464022755623,-0.0002743406221270561
1772048302382855000,1.35585498046875,0.0006015640683472157,0.010553937405347824,0.0009821387939155102
1772048302392806000,1.365805908203125,-0.0007125947158783674,0.0038995579816401005,0.0025598574429750443
1772048302402756900,1.3757568359375,-0.0008540085982531309,0.0028492072597146034,-0.002462331671267748
1772048302412707800,1.385707763671875,-0.0014536126982420683,-0.0005003795959055424,-0.0010976828634738922
1772048302422659800,1.395659912109375,0.0010396386496722698,0.00843852013349533,-0.002481195144355297
1772048302432611000,1.405611083984375,-0.0000184718519449234,0.004837551154196262,-0.0011657909490168095
1772048302442561800,1.415561767578125,-0.00002379855141043663,0.0008167102932929993,0.00006379047408699989
1772048302452513000,1.425512939453125,0.0015322603285312653,0.004314547870308161,0.0007193014025688171
1772048302462463700,1.435463623046875,-0.0024726013652980328,0.004989126697182655,0.003110553603619337
1772048302472416000,1.445416015625,0.0008439100347459316,-0.002755352295935154,-0.00094270845875144
1772048302482366700,1.45536669921875,0.000217534601688385,-0.005916524212807417,-0.0009048916399478912
1772048302492318000,1.46531787109375,0.0003086067736148834,-0.0025889198295772076,-0.0031532859429717064
1772048302502268700,1.4752685546875,-0.0013452160637825727,0.000727514736354351,0.0017304192297160625
1772048302512220000,1.485219970703125,-0.002171245636418462,0.002029500901699066,0.0005644340999424458
1772048302522172000,1.495171875,-0.0009698935318738222,-0.002114377450197935,-0.0019442634657025337
1772048302532123000,1.505122802734375,-0.0014383122324943542,0.0028486624360084534,0.0011820117942988873
1772048302542073900,1.515073974609375,-0.003196797566488385,0.0033549293875694275,0.0030672636348754168
1772048302552024800,1.52502490234375,0.00036857230588793755,-0.0003334595821797848,-0.0024997317232191563
1772048302561976000,1.53497607421875,-0.0022682235576212406,-0.0011784802190959454,0.0015578607562929392
1772048302571927800,1.544927734375,0.0010370216332376003,0.00008621462620794773,0.001530223060399294
1772048302581878800,1.554878662109375,-0.0002657966688275337,0.00200155982747674,-0.0012610359117388725
1772048302591829800,1.564829833984375,-0.0011779256165027618,-0.00028765294700860977,0.00038314051926136017
1772048302601781000,1.574781005859375,-0.0003134633880108595,-0.002440019976347685,0.0015581271145492792
1772048302611733000,1.58473291015625,0.000707737635821104,-0.001673433929681778,0.00001248205080628395
1772048302621683700,1.59468359375,0.0007612672634422779,0.001519163604825735,0.00047081196680665016
1772048302631635000,1.604635009765625,-0.003823172999545932,0.0006294504273682833,-0.00010908860713243484
1772048302641586000,1.6145859375,0.00034467410296201706,-0.00207712035626173,-0.001921103335916996
1772048302651537000,1.624536865234375,-0.0019842737819999456,-0.0036481888964772224,-0.0013492139987647533
1772048302661489000,1.634489013671875,-0.00008304324001073837,0.0007806478533893824,-0.0004261624999344349
1772048302671440000,1.64443994140625,-0.0019209475722163916,-0.0017028567381203175,-0.00037239817902445793
1772048302681391000,1.65439111328125,-0.0030967332422733307,-0.0011627678759396076,-0.001190787646919489
1772048302691341800,1.664341796875,-0.0009781613480299711,-0.0033486587926745415,-0.0001510423608124256
1772048302701293000,1.67429296875,-0.001308393431827426,-0.0033087111078202724,-0.0005635661073029041
1772048302711244800,1.684244873046875,-0.00025709555484354496,0.0003841982688754797,-0.0012112543918192387
1772048302721196000,1.694196044921875,-0.0003742747940123081,-0.0003761341795325279,-0.002507148776203394
1772048302731146800,1.704146728515625,-0.00045152544043958187,-0.0023621157743036747,-0.004573927726596594
1772048302741098000,1.714097900390625,-0.0017048090230673552,-0.0023583872243762016,0.00011430168524384499
1772048302751050000,1.724050048828125,-0.00013319402933120728,-0.0019674524664878845,-0.000526907853782177
1772048302761001000,1.7340009765625,-0.0007659608963876963,-0.0024223201908171177,0.00027763284742832184
1772048302770952000,1.743951904296875,-0.0006186347454786301,-0.003263437654823065,-0.0016765007749199867
1772048302780903000,1.75390283203125,-0.0008995982352644205,-0.001092428807169199,-0.0013111154548823833
1772048302790854000,1.76385400390625,0.0011290130205452442,-0.0015199747867882252,-0.0007560444064438343
1772048302800806000,1.773805908203125,-0.0001876535825431347,-0.0028281197883188725,-0.0012913397513329983
1772048302810756900,1.7837568359375,-0.001253423746675253,-0.0011382070370018482,0.0009936974383890629
1772048302820707800,1.793707763671875,0.000681363046169281,-0.0006087701767683029,0.0008794479072093964
1772048302830658800,1.803658935546875,0.0007887161336839199,0.0005188107024878263,-0.001783277839422226
1772048302840609800,1.81360986328125,-0.002953824121505022,-0.0015501989983022213,0.0010439339093863964
1772048302850561800,1.823561767578125,0.001059921458363533,-0.0037643499672412872,-0.0030242139473557472
1772048302860513000,1.833512939453125,-0.000662611098960042,-0.0013339491561055183,-0.003997332416474819
1772048302870463700,1.843463623046875,0.0012828577309846878,-0.0010258229449391365,-0.0007739397697150707
1772048302880415000,1.8534150390625,-0.0010444787330925465,0.003133502323180437,-0.0024698409251868725
1772048302890366700,1.86336669921875,-0.004152343142777681,-0.0004199054092168808,0.0012939735315740108
1772048302900318000,1.87331787109375,-0.000004203524440526962,0.00009621540084481239,0.0005813115276396275
1772048302910268700,1.8832685546875,-0.002051261253654957,0.0016496996395289898,0.0001390199176967144
1772048302920220000,1.893219970703125,0.00005077198147773743,-0.0030374638736248016,0.0009542135521769524
1772048302930171000,1.9031708984375,-0.0010589270386844873,-0.0012719742953777313,0.0010966728441417217
1772048302940123000,1.913122802734375,-0.0006376150995492935,-0.001353200525045395,-0.0018399949185550213
1772048302950073900,1.923073974609375,0.0017588473856449127,-0.003561541438102722,0.00024176668375730515
1772048302960024800,1.93302490234375,-0.00040603638626635075,-0.0004807966761291027,-0.0025526885874569416
1772048302969976000,1.94297607421875,-0.0019025893416255713,0.00041297520510852337,-0.0015167957171797752
1772048302979926800,1.9529267578125,-0.0023904803674668074,-0.005604170728474855,0.003095533000305295
1772048302989878800,1.962878662109375,-0.0009078094735741615,0.014644108712673187,0.005591713823378086
1772048302999830000,1.972830078125,-0.0012476288247853518,0.0073710158467292786,0.004142421763390303
1772048303009781000,1.982781005859375,0.0021331128664314747,-0.03033488057553768,-0.009437896311283112
1772048303019732000,1.99273193359375,0.0019413651898503304,-0.03483668714761734,-0.0110512375831604
1772048303029683700,2.00268359375,0.00007477356120944023,0.01223032921552658,0.0037679122760891914
1772048303039635000,2.012635009765625,-0.0015550809912383556,0.039400696754455566,0.009960293769836426
1772048303049586000,2.0225859375,0.0000197715125977993,0.0070039331912994385,0.003241105703637004
1772048303059537000,2.032536865234375,-0.0005056702066212893,-0.025889568030834198,-0.00893460027873516
1772048303069487900,2.04248779296875,-0.000885040033608675,-0.001088966615498066,-0.0004027108661830425
1772048303079440000,2.05243994140625,-0.0026384652592241764,0.023314910009503365,0.0038711298257112503
1772048303089391000,2.06239111328125,-0.0009938005823642015,-0.003907171543687582,0.00346113252453506
1772048303099341800,2.072341796875,-0.0006824769079685211,-0.024888087064027786,-0.0036993087269365788
1772048303109293000,2.08229296875,0.0016858340241014957,0.005285481922328472,-0.0014518448151648045
1772048303119244800,2.092244873046875,-0.0009240638464689255,0.01535116508603096,0.005611124448478222
1772048303129196000,2.102196044921875,-0.0003892409149557352,-0.004967361688613892,-0.0013038716278970242
1772048303139146800,2.112146728515625,0.0013679126277565956,-0.009573565796017647,-0.0022434350103139877
1772048303149098000,2.122097900390625,-0.0035269716754555702,0.006630884017795324,0.00178601685911417
1772048303159048700,2.132048583984375,0.0015956186689436436,0.0067965323105454445,0.0005186186172068119
1772048303169001000,2.1420009765625,-0.00004084687680006027,-0.008078090846538544,-0.002686919644474983
1772048303178952000,2.151951904296875,0.0007770098745822906,-0.008850142359733582,-0.0013611982576549053
1772048303188903000,2.16190283203125,0.0013479320332407951,0.007479156367480755,0.00038915034383535385
1772048303198854000,2.17185400390625,0.0002885269932448864,0.005885786842554808,0.004385489970445633
1772048303208804900,2.181804931640625,0.000009934883564710617,-0.0067093768157064915,-0.00316300755366683
1772048303218756900,2.1917568359375,0.0003550807014107704,-0.004841701593250036,0.00003544846549630165
1772048303228707800,2.201707763671875,-0.0008615965489298105,0.004650207236409187,0.0014231069944798946
1772048303238658800,2.211658935546875,0.0010010180994868279,-0.0007373676635324955,0.0008824849501252174
1772048303248609800,2.22160986328125,0.0006390423513948917,-0.00692160427570343,-0.001389121636748314
1772048303258561800,2.231561767578125,0.0008749985136091709,-0.005588691681623459,-0.00056886812672019
1772048303268510500,2.241510498046875,-0.0006798626855015755,-0.0012153438292443752,-0.0002571805380284786
1772048303278461400,2.25146142578125,-0.0011326000094413757,-0.0024398653768002987,-0.002007942646741867
1772048303288412400,2.261412353515625,-0.0011991814244538546,-0.0025830958038568497,-0.0006956662982702255
1772048303298363400,2.27136328125,0.0013515939936041832,-0.0007867938838899136,-0.0004559815861284733
1772048303308315400,2.2813154296875,-0.001878276001662016,0.0025171544402837753,-0.00042630964890122414
1772048303318266400,2.291266357421875,-0.0006564178038388491,0.0011520180851221085,0.0013731885701417923
1772048303328217600,2.301217529296875,-0.000949416309595108,-0.0004630954936146736,-0.0032053086906671524
1772048303338168300,2.311168212890625,-0.003342266660183668,-0.002474580891430378,-0.0014897002838551998
1772048303348119600,2.32111962890625,-0.0004346908535808325,-0.0008449763990938663,-0.0035827569663524628
1772048303358071300,2.3310712890625,-0.00227706553414464,-0.004037041682749987,-0.003313511610031128
1772048303368022500,2.3410224609375,-0.0029579834081232548,0.001149072777479887,-0.0020736628212034702
1772048303377973200,2.35097314453125,-0.001584058627486229,-0.002868039533495903,-0.001279774121940136
1772048303387924500,2.360924560546875,-0.00040034553967416286,-0.009535686112940311,-0.005078576505184174
1772048303397876500,2.37087646484375,-0.0000743744894862175,-0.005001122131943703,-0.0008063330315053463
1772048303407827500,2.380827392578125,-0.0024374902714043856,0.0010588248260319233,-0.0032929102890193462
1772048303417778400,2.3907783203125,0.0009734863415360451,-0.0037393923848867416,-0.002539235632866621
1772048303427729400,2.4007294921875,0.0013397354632616043,-0.009410122409462929,-0.0015225023962557316
1772048303437680400,2.410680419921875,-0.00007733236998319626,-0.002916802652180195,-0.003065538126975298
1772048303447632400,2.42063232421875,0.00007009133696556091,0.00009761727415025234,-0.0010957899503409863
1772048303457583400,2.430583251953125,-0.0008066210430115461,-0.005242286715656519,0.00003152620047330856
1772048303467534300,2.440534423828125,-0.001925968797877431,-0.0014409273862838745,-0.0013716379180550575
1772048303477485300,2.4504853515625,-0.0012335467617958784,-0.00011999951675534248,0.0004571545869112015
1772048303487437600,2.4604375,-0.002860143780708313,-0.001275327056646347,-0.0022133332677185535
1772048303497388300,2.47038818359375,-0.001034280750900507,-0.0035272957757115364,-0.00098854536190629
1772048303507339500,2.480339599609375,-0.003152263816446066,-0.002284148707985878,0.0001344834454357624
1772048303517290200,2.490290283203125,0.0014283731579780579,-0.0027107871137559414,0.001991505501791835
1772048303527241500,2.500241455078125,-0.001549405511468649,-0.0015762634575366974,0.00047635287046432495
1772048303537193200,2.510193115234375,-0.0018434186931699514,-0.000851883552968502,0.0012492025271058083
1772048303547144400,2.52014453125,-0.0006434035021811724,-0.004841628950089216,0.0003511258400976658
1772048303557095200,2.53009521484375,-0.0025917720049619675,-0.0019102874211966991,-0.00153385940939188
1772048303567046400,2.54004638671875,-0.0002191583625972271,0.002158050425350666,0.0011495519429445267
1772048303576998400,2.549998291015625,-0.0012218384072184563,0.0011521745473146439,0.0026739451568573713
1772048303586949400,2.559949462890625,0.001308678649365902,0.0005169478245079517,-0.0012745168060064316
1772048303596900400,2.569900390625,0.0006021424196660519,0.0016613081097602844,-0.00168597511947155
1772048303606851300,2.579851318359375,0.0011921413242816925,0.00286745373159647,0.000949222594499588
1772048303616802600,2.589802490234375,-0.0008518348913639784,0.0003326570149511099,0.000641893595457077
1772048303626754300,2.59975439453125,0.0023851562291383743,-0.0003920658491551876,-0.0019334717653691769
1772048303636705300,2.609705322265625,0.003026711754500866,0.00003457278944551945,0.0014695152640342712
1772048303646656300,2.61965625,-0.000179964117705822,0.00019047758542001247,0.0008499943651258945
1772048303656607500,2.629607421875,-0.00008515547960996628,-0.00115628307685256,0.0014950120821595192
1772048303666559500,2.6395595703125,-0.0007334225811064243,-0.0021189069375395775,0.003248208900913596
1772048303676510200,2.64951025390625,0.0002689911052584648,-0.000876275822520256,0.0018931927625089884
1772048303686461400,2.65946142578125,0.0013141194358468056,0.001188676804304123,0.0020581427961587906
1772048303696412400,2.669412353515625,-0.0008121486753225327,0.0006155646406114101,-0.0009544249624013901
1772048303706363400,2.67936328125,0.0018325494602322578,-0.00009236717596650124,-0.00005433475598692894
1772048303716315400,2.6893154296875,0.001005904283374548,0.001937227789312601,-0.0015512974932789803
1772048303726266400,2.699266357421875,-0.0007096659392118454,0.0016419650055468082,0.00242531206458807
1772048303736217600,2.709217529296875,-0.0018455041572451591,-0.0007673967629671097,0.0000527016818523407
1772048303746168300,2.719168212890625,-0.00184492371045053,-0.00018001394346356392,-0.0031566033139824867
1772048303756119600,2.72911962890625,-0.0006110812537372112,-0.0009057251736521721,0.002564931521192193
1772048303766071300,2.7390712890625,-0.0006460049189627171,0.0006413981318473816,-0.0006560464389622211
1772048303776022500,2.7490224609375,0.0001630634069442749,-0.0027384194545447826,0.00040069594979286194
1772048303785973200,2.75897314453125,0.00228693475946784,0.0005962946452200413,-0.00031357118859887123
1772048303795924500,2.768924560546875,-0.0007762331515550613,-0.0018050777725875378,-0.0030915141105651855
1772048303805876500,2.77887646484375,0.000434032641351223,-0.0000897326972335577,0.00043440284207463264
1772048303815827500,2.788827392578125,0.0003514746204018593,0.0007204008288681507,0.0021382931154221296
1772048303825778400,2.7987783203125,-0.00040709436871111393,-0.0021126973442733288,-0.0009214207530021667
1772048303835729400,2.8087294921875,0.0005196859128773212,-0.00026233308017253876,-0.00038905488327145576
1772048303845680400,2.818680419921875,-0.0021470440551638603,-0.0027105952613055706,-0.0014632390812039375
1772048303855632400,2.82863232421875,0.0013797800056636333,-0.0002232026308774948,0.00040816422551870346
1772048303865583400,2.838583251953125,0.001387566328048706,-0.0009445217438042164,0.0007765931077301502
1772048303875534300,2.848534423828125,0.0007127211429178715,-0.0003695455379784107,0.0036248438991606236
1772048303885485300,2.8584853515625,-0.0016019763424992561,-0.0009128870442509651,0.001284436322748661
1772048303895437600,2.8684375,-0.002684018574655056,-0.0011158199049532413,-0.002398448996245861
1772048303905388300,2.87838818359375,-0.0008120217826217413,0.0007996070198714733,0.0007059751078486443
1772048303915339500,2.888339599609375,-0.0011939192190766335,-0.0006574084982275963,0.0019755042158067226
1772048303925290200,2.898290283203125,0.0016996716149151325,0.0006116321310400963,0.0017022439278662205
1772048303935241500,2.908241455078125,-0.00023724534548819065,-0.0007742769084870815,-0.0014410847797989845
1772048303945193200,2.918193115234375,-0.0007969716098159552,-0.0024504554457962513,0.0018347925506532192
1772048303955144400,2.92814453125,0.0009170388802886009,0.0003985939547419548,-0.0009559337049722672
1772048303965095200,2.93809521484375,-0.000362972728908062,-0.00016327574849128723,0.00010104663670063019
1772048303975046400,2.94804638671875,0.0011571594513952732,0.0020990795455873013,0.0022976219188421965
1772048303984998400,2.957998291015625,-0.0002144209574908018,-0.0019448711536824703,-0.0006497958675026894
1772048303994949400,2.967949462890625,0.0008409898728132248,0.0017534606158733368,0.0008370466530323029
1772048304004900400,2.977900390625,-0.0021240843925625086,0.0028722400311380625,0.00039215246215462685
1772048304014851300,2.987851318359375,0.0006442717276513577,-0.001797879347577691,-0.0004725763574242592
1772048304024802600,2.997802490234375,0.0011540763080120087,-0.0015912947710603476,-0.001012533437460661
1772048304034754300,3.00775439453125,-0.0015024268068373203,0.0002971526701003313,0.0017126791644841433
1772048304044705300,3.017705322265625,-0.0010104370303452015,-0.0018147383816540241,0.0015460981521755457
1772048304054656500,3.027656494140625,-0.00099365902133286,-0.0006799655966460705,0.00045074010267853737
1772048304064607500,3.037607421875,-0.0007788755465298891,0.0024986201897263527,0.001420352142304182
1772048304074559500,3.0475595703125,-0.0011655665002763271,-0.0021848147734999657,-0.0002920604310929775
1772048304084510200,3.05751025390625,-0.001045104581862688,0.0008045630529522896,-0.0008951202034950256
1772048304094461400,3.06746142578125,0.002173858229070902,-0.001431160606443882,0.0006721499375998974
1772048304104412400,3.077412353515625,-0.002981294644996524,0.000499676913022995,-0.0008179126307368279
1772048304114363400,3.08736328125,0.0005897381342947483,0.001674663508310914,0.0011376463808119297
1772048304124315400,3.0973154296875,-0.0002031177282333374,-0.0023850956931710243,0.002825117437168956
1772048304134266400,3.107266357421875,0.0010560248047113419,0.001019489485770464,0.0016021940391510725
1772048304144217600,3.117217529296875,-0.002083037979900837,0.0022201519459486008,0.0009202500805258751
1772048304154168300,3.127168212890625,0.00020887842401862144,0.00020174216479063034,0.00035885581746697426
1772048304164120300,3.137120361328125,0.0013960008509457111,0.0014616320841014385,0.0007270327769219875
1772048304174071300,3.1470712890625,-0.001346255885437131,0.0005694732535630465,0.0020855111069977283
1772048304184022500,3.1570224609375,0.0020317374728620052,-0.0004981155507266521,0.0012436285614967346
1772048304193973200,3.16697314453125,-0.0007661797571927309,0.001224683364853263,-0.0025487132370471954
1772048304203924500,3.176924560546875,-0.0020028348080813885,0.000668603926897049,0.0005087670870125294
1772048304213876500,3.18687646484375,0.0009271749295294285,-0.0014747083187103271,0.0007732193917036057
1772048304223827500,3.196827392578125,-0.0033939385320991278,0.0017234350088983774,0.0009363442659378052
1772048304233778400,3.2067783203125,-0.0006263814866542816,0.0022616598289459944,0.0005448595620691776
1772048304243729400,3.2167294921875,-0.0003565419465303421,0.001539377262815833,-0.0008556032553315163
1772048304253681400,3.226681396484375,0.002554293256253004,-0.00199117511510849,0.0024278077762573957
1772048304263632100,3.236632080078125,0.0014653950929641724,0.0006528266239911318,0.00022336654365062714
1772048304273582800,3.246582763671875,-0.000181237468495965,0.00045761698856949806,-0.0014304565265774727
1772048304283534000,3.2565341796875,0.0018720575608313084,-0.0008392706513404846,-0.001501055434346199
1772048304293484800,3.26648486328125,-0.00035833963192999363,-0.0013545923866331577,-0.00009810226038098335
1772048304303437000,3.27643701171875,0.003151809796690941,0.0004256789106875658,0.002471084473654628
1772048304313388000,3.286387939453125,0.0018109078519046307,0.0034465023782104254,-0.0016288519836962223
1772048304323339000,3.296339111328125,0.0003521800972521305,0.0011553261429071426,0.001117730513215065
1772048304333290000,3.3062900390625,0.0034699426032602787,-0.0011243396438658237,-0.001508945133537054
1772048304343242000,3.316241943359375,-0.002119279932230711,0.0001723917666822672,0.0014698037412017584
1772048304353193000,3.32619287109375,0.0004679807461798191,-0.00009419070556759834,-0.001723592635244131
1772048304363144000,3.33614404296875,0.0012249252758920193,-0.0011743521317839622,-0.0004242388531565666
1772048304373095000,3.346094970703125,0.0005942885763943195,-0.0007722149603068829,-0.0005723107606172562
1772048304383046000,3.3560458984375,0.001341440249234438,0.0020554247312247753,-0.0010501495562493801
1772048304392998000,3.365997802734375,-0.0015020167920738459,0.001242361729964614,0.0011807805858552456
1772048304402949000,3.37594921875,0.0019243122078478336,0.0006759054958820343,-0.0007269266061484814
1772048304412900000,3.385900146484375,-0.0007676111999899149,-0.0009076101705431938,-0.000820936169475317
1772048304422851000,3.39585107421875,-0.0023020999506115913,-0.00005829101428389549,-0.0004976936616003513
1772048304432802800,3.405802734375,-0.0006754412315785885,0.0006961824838072062,0.0007388121448457241
1772048304442754000,3.415754150390625,-0.000701389741152525,-0.0003598285838961601,0.0012130462564527988
1772048304452705000,3.425705078125,0.0014445856213569641,0.0015941327437758446,-0.0005257315933704376
1772048304462656000,3.435656005859375,-0.0005849185399711132,-0.000555137638002634,-0.0005921768024563789
1772048304472607000,3.44560693359375,0.0007597114890813828,0.0002765676472336054,0.0010355468839406967
1772048304482559000,3.45555908203125,-0.0011246229987591505,-0.000055112410336732864,0.001222739927470684
1772048304492510200,3.46551025390625,-0.0016844193451106548,0.003036285052075982,0.002760715316981077
1772048304502461000,3.4754609375,0.0021304008550941944,0.0013249849434942007,-0.0004520961083471775
1772048304512412200,3.485412109375,0.0007543456740677357,-0.0003821011632680893,0.0025173285976052284
1772048304522364000,3.495364013671875,0.0010347110219299793,0.0011759879998862743,0.002600411418825388
1772048304532315100,3.505315185546875,0.0018451111391186714,0.0034671055618673563,-0.001157042570412159
1772048304542266000,3.51526611328125,0.0018389602191746235,-0.000768803060054779,-0.00037003960460424423
1772048304552217000,3.525217041015625,0.0012938110157847404,-0.002937415149062872,-0.0003383476287126541
1772048304562168000,3.53516796875,-0.0003397059626877308,-0.0015024938620626926,-0.0015856162644922733
1772048304572120000,3.5451201171875,-0.002884356305003166,0.002294907346367836,-0.002150472719222307
1772048304582071000,3.555071044921875,-0.0016431715339422226,0.0008426699787378311,-0.0006541348993778229
1772048304592022000,3.56502197265625,-0.001290569081902504,0.0021012797951698303,-0.0009124614298343658
1772048304601973000,3.574972900390625,0.0015176879242062569,0.0043022967875003815,0.00034847576171159744
1772048304611925200,3.58492529296875,-0.001730303280055523,0.0014460566453635693,-0.0007095984183251858
1772048304621876000,3.5948759765625,0.0019134460017085075,-0.0007312707602977753,-0.0003047115169465542
1772048304631827200,3.6048271484375,-0.001259444048628211,0.001679156208410859,-0.000878090038895607
1772048304641778000,3.61477783203125,-0.000873517943546176,-0.0006232648156583309,0.0005448153242468834
1772048304651729200,3.624729248046875,-0.0009906971827149391,0.002491035731509328,0.003101982641965151
1772048304661681000,3.634680908203125,0.0004274998791515827,-0.000925838015973568,-0.0004831855185329914
1772048304671632100,3.644632080078125,0.0009481478482484818,-0.0007878863252699375,-0.0002578822895884514
1772048304681582800,3.654582763671875,0.0006040786392986774,0.0013031319249421358,-0.00017276545986533165
1772048304691534000,3.6645341796875,0.0006000837311148643,-0.0009650825522840023,-0.000881698913872242
1772048304701486000,3.674486083984375,0.0018401131965219975,-0.0009542272891849279,0.0009163245558738708
1772048304711437000,3.68443701171875,0.0009783143177628517,-0.00017977994866669178,0.0006854282692074776
1772048304721388000,3.694387939453125,-0.0008746401872485876,-0.0004886221140623093,0.0010707797482609749
1772048304731339000,3.704339111328125,0.0008007544092833996,0.00018489127978682518,-0.0015281992964446545
1772048304741290000,3.7142900390625,-0.00020742672495543957,0.0010687094181776047,0.00031567225232720375
1772048304751242000,3.724241943359375,0.0005385247059166431,-0.0006804545409977436,-0.0003621024079620838
1772048304761193000,3.73419287109375,0.00012768246233463287,0.0014738161116838455,-0.0012037022970616817
1772048304771144000,3.74414404296875,-0.0004749908111989498,0.001630143728107214,-0.00218667509034276
1772048304781095000,3.754094970703125,0.0006974334828555584,-0.00007948465645313263,-0.0012743850238621235
1772048304791047200,3.764047119140625,0.001872420310974121,0.0032510648015886545,-0.00036598043516278267
1772048304800998000,3.773997802734375,-0.0024792090989649296,-0.003936634864658117,0.0006287284195423126
1772048304810949000,3.78394921875,0.0033733537420630455,0.0018517456483095884,0.0013568364083766937
1772048304820899800,3.79389990234375,-0.0003466180060058832,0.00260557746514678,-0.0018487786874175072
1772048304830852000,3.80385205078125,-0.0006707245483994484,-0.0009329647291451693,-0.0004804469645023346
1772048304840802800,3.813802734375,0.0015065609477460384,-0.0019233105704188347,0.0001681172288954258
1772048304850754000,3.823754150390625,-0.0025377157144248486,-0.0019832313992083073,-0.0010872972197830677
1772048304860705000,3.833705078125,-0.0009024776518344879,-0.0011946451850235462,0.0004501640796661377
1772048304870656000,3.843656005859375,-0.0002729063853621483,-0.0013328632339835167,0.0009982427582144737
1772048304880608000,3.85360791015625,0.0013956669718027115,-0.0010383585467934608,0.00006711622700095177
1772048304890559000,3.86355908203125,-0.0016512556467205286,-0.003870896529406309,-0.00006444379687309265
1772048304900510000,3.873510009765625,0.0013999873772263527,0.0031294275540858507,0.000024475157260894775
1772048304910461000,3.8834609375,-0.00042987079359591007,-0.0013982125092297792,-0.0018613091669976711
1772048304920413000,3.893412841796875,-0.0009293488692492247,-0.0030238889157772064,-0.0003239773213863373
1772048304930364200,3.9033642578125,0.0011689555831253529,0.0006768396124243736,-0.0008637998253107071
1772048304940315100,3.913315185546875,-0.0012467186897993088,0.0003171376883983612,-0.0006636795587837696
1772048304950266000,3.92326611328125,-0.0016826780047267675,-0.002192625543102622,-0.0022069811820983887
1772048304960217000,3.933217041015625,0.0016462760977447033,-0.0009311407338827848,-0.0002441955730319023
1772048304970169000,3.943169189453125,-0.0014792096335440874,0.0007186876609921455,-0.001330764964222908
1772048304980120000,3.9531201171875,0.0016832854598760605,-0.0005833529867231846,-0.0007435819134116173
1772048304990071000,3.963071044921875,-0.001066161785274744,-0.00011064158752560616,-0.0007174829952418804
1772048305000022000,3.97302197265625,-0.004150187596678734,0.000710157910361886,0.0006315363571047783
1772048305009974000,3.98297412109375,-0.0005061840638518333,0.0023091197945177555,-0.0015059169381856918
1772048305019925000,3.992925048828125,0.00040688691660761833,-0.002324524102732539,-0.0018373462371528149
1772048305029876000,4.0028759765625,-0.0007396037690341473,-0.00013167760334908962,-0.0003177463077008724
1772048305039827200,4.0128271484375,-0.001940230606123805,-0.0006052893586456776,-0.0007670591585338116
1772048305049778000,4.02277783203125,0.002160504925996065,-0.0009999698959290981,-0.00042271241545677185
1772048305059730200,4.032730224609375,0.0019209207966923714,-0.0009172833524644375,-0.0008292607963085175
1772048305069681000,4.042680908203125,0.0009717699140310287,-0.00033431733027100563,0.0013231057673692703
1772048305079632100,4.052632080078125,0.0014481060206890106,0.001889771199785173,0.0021970001980662346
1772048305089582800,4.062582763671875,-0.0012805690057575703,0.0017230573575943708,0.00008245045319199562
1772048305099535000,4.07253515625,-0.0019943881779909134,-0.0014049045275896788,-0.0015150043182075024
1772048305109486000,4.082486083984375,-0.001445777015760541,0.0008659730665385723,0.001297293696552515
1772048305119437000,4.09243701171875,-0.00004897546023130417,0.0017546724993735552,0.0005745505914092064
1772048305129388000,4.102387939453125,-0.00016988301649689674,0.0009602515492588282,-0.0011551729403436184
1772048305139340000,4.112340087890625,0.001113460399210453,0.0009095810819417238,0.00015870993956923485
1772048305149291000,4.122291015625,0.00002316245809197426,-0.0018396000377833843,-0.0008937711827456951
1772048305159242000,4.132241943359375,-0.0021349862217903137,0.0006849523633718491,-0.0005954522639513016
1772048305169193000,4.14219287109375,0.0014088824391365051,-0.001679668202996254,0.0014684977941215038
1772048305179144000,4.15214404296875,0.0005734572187066078,-0.002199044916778803,-0.0014958404935896397
1772048305189096000,4.162095947265625,-0.00007502222433686256,-0.0017505683936178684,-0.0009040865115821362
1772048305199047200,4.172047119140625,0.001360707450658083,0.0022504786029458046,-0.0006459550932049751
1772048305208998000,4.181997802734375,-0.0010979226790368557,0.0004967870190739632,-0.00020839786157011986
1772048305218949000,4.19194921875,0.0015621650964021683,-0.00033036735840141773,-0.0003321976400911808
1772048305228900900,4.20190087890625,-0.00016622641123831272,-0.0012582128401845694,0.003512075636535883
1772048305238852000,4.21185205078125,0.000370844267308712,-0.0002694323193281889,0.0002945372834801674
1772048305248802800,4.221802734375,0.000028361566364765167,0.0002141974400728941,0.0008524693548679352
1772048305258754000,4.231754150390625,0.000015455298125743866,0.00032601202838122845,0.00028256839141249657
1772048305268704800,4.241704833984375,0.001288446132093668,-0.002900940366089344,-0.0018258560448884964
1772048305278656800,4.25165673828125,0.0017300685867667198,0.0003265391569584608,0.00018500257283449173
1772048305288607500,4.261607421875,0.0004416313022375107,-0.0017041212413460016,-0.0022235605865716934
1772048305298558700,4.271558837890625,-0.0006074714474380016,0.001298560993745923,-0.0005237632431089878
1772048305308509700,4.281509765625,0.0011701886542141438,0.00042664213106036186,-0.00047422852367162704
1772048305318461700,4.291461669921875,-0.0011899045202881098,-0.0036555451806634665,-0.002476443536579609
1772048305328412400,4.301412353515625,0.0005541997961699963,0.0001407910604029894,0.000007486902177333832
1772048305338363600,4.31136376953125,0.0024181893095374107,0.0009001563303172588,-0.0012972503900527954
1772048305348314600,4.321314697265625,-0.0022410107776522636,-0.0005483368877321482,-0.0008234740234911442
1772048305358266600,4.3312666015625,0.00005551939830183983,-0.00366456201300025,0.0008368566632270813
1772048305368217600,4.341217529296875,-0.0002073347568511963,0.000886247493326664,0.0016975903417915106
1772048305378168600,4.35116845703125,0.00009047240018844604,0.0038366601802408695,0.0022243584971874952
1772048305388119800,4.361119873046875,0.0003498643636703491,-0.000516542699187994,0.0009175450541079044
1772048305398070500,4.371070556640625,-0.0004626174923032522,-0.0017909938469529152,0.00013370532542467117
1772048305408022500,4.3810224609375,0.0007397998124361038,0.0038437223993241787,0.0013752710074186325
1772048305417973800,4.390973876953125,-0.0018080456648021936,-0.00006887456402182579,0.0019716706592589617
1772048305427924700,4.4009248046875,0.0007911995053291321,-0.0005479771643877029,0.003102715127170086
1772048305437875700,4.410875732421875,-0.0005400115624070168,0.001055210828781128,-0.001092900987714529
1772048305447827500,4.420827392578125,-0.003146447241306305,0.002123937476426363,0.0002650446258485317
1772048305457778700,4.43077880859375,0.0013968846760690212,-0.0015999381430447102,-0.00032564811408519745
1772048305467729700,4.440729736328125,-0.0008513557258993387,0.0027258344925940037,-0.0004412294365465641
1772048305477680600,4.4506806640625,0.00045828940346837044,0.0002782442606985569,-0.0020778519101440907
1772048305487631600,4.460631591796875,-0.0007920647040009499,-0.0017902327235788107,-0.0028230040334165096
1772048305497583600,4.47058349609375,-0.0004059842322021723,0.0006769825704395771,0.0008395775221288204
1772048305507534800,4.480534912109375,0.0016076317988336086,0.0002450176980346441,0.001248639076948166
1772048305517485600,4.490485595703125,-0.00335086602717638,0.001006903126835823,0.000021827872842550278
1772048305527436800,4.500436767578125,0.002954434137791395,-0.0020038005895912647,-0.0001163901761174202
1772048305537388500,4.510388427734375,-0.0003270076122134924,0.0022504013031721115,-0.001261295285075903
1772048305547339800,4.52033984375,0.0025172485038638115,0.0010850019752979279,-0.000699368305504322
1772048305557290500,4.53029052734375,0.0024067233316600323,-0.0007126904092729092,-0.0004191664047539234
1772048305567241700,4.54024169921875,0.0005704737268388271,-0.0023414799943566322,-0.0035614296793937683
1772048305577192400,4.5501923828125,-0.00104704056866467,-0.001950753852725029,0.001539525343105197
1772048305587144700,4.560144775390625,-0.0021557146683335304,-0.00021011196076869965,0.000015132129192352295
1772048305597095700,4.570095703125,0.0017183450981974602,0.000811201985925436,0.0014434000477194786
1772048305607046700,4.580046630859375,0.001214741263538599,0.0007973534520715475,0.0009275455959141254
1772048305616997600,4.58999755859375,-0.000728776678442955,-0.0019173172768205404,-0.00044804252684116364
1772048305626949600,4.59994970703125,0.0020190728828310966,0.0003221349325031042,0.0015189684927463531
1772048305636900600,4.609900634765625,-0.001955780666321516,-0.00022531114518642426,0.0008751987479627132
1772048305646851600,4.6198515625,0.001241876743733883,-0.0007888362742960453,0.0003585456870496273
1772048305656802600,4.629802490234375,-0.0008402615785598755,0.0019602999091148376,0.000520103145390749
1772048305666754800,4.6397548828125,0.000646315049380064,0.0007869112305343151,-0.0022650309838354588
1772048305676705500,4.64970556640625,0.0006473446264863014,0.004351114854216576,-0.0008024903945624828
1772048305686656800,4.65965673828125,-0.002037121681496501,0.000818698201328516,0.00005478132516145706
1772048305696607500,4.669607421875,-0.00002427631989121437,-0.0006126270163804293,0.0005961265414953232
1772048305706558700,4.679558837890625,-0.0020650567021220922,0.000655570300295949,0.0009822845458984375
1772048305716510500,4.689510498046875,0.001867983490228653,0.0015924223698675632,-0.0015593762509524822
1772048305726461700,4.699461669921875,0.0011758278124034405,-0.003233491675928235,0.0008726227097213268
1772048305736412400,4.709412353515625,-0.00304784020408988,-0.001827561529353261,-0.0023740106262266636
1772048305746363600,4.71936376953125,0.0008185370825231075,0.0027725165709853172,0.0012476220726966858
1772048305756315600,4.729315673828125,-0.0004737749695777893,0.004233797546476126,0.0013393033295869827
1772048305766266600,4.7392666015625,0.0015909736976027489,-0.000112215057015419,-0.00023355940356850624
1772048305776217600,4.749217529296875,0.00021679652854800224,0.0022379234433174133,-0.00005880510434508324
1772048305786168600,4.75916845703125,-0.0015613958239555359,-0.00038262689486145973,-0.00012751435860991478
1772048305796119800,4.769119873046875,0.0023779687471687794,-0.0006125015206634998,0.0010864031501114368
1772048305806071800,4.77907177734375,0.0016325502656400204,0.002901806030422449,0.00038572540506720543
1772048305816022500,4.7890224609375,-0.0019132436718791723,0.0006325871217995882,-0.0000689830631017685
1772048305825973800,4.798973876953125,-0.002293010475113988,-0.0007858125027269125,-0.00027644354850053787
1772048305835924700,4.8089248046875,0.0020479257218539715,0.0010009605903178453,-0.00036418111994862556
1772048305845876700,4.818876708984375,0.0015933243557810783,-0.0022670042235404253,-0.002125063445419073
1772048305855827500,4.828827392578125,0.0023115528747439384,0.0009729312732815742,-0.0026709488593041897
1772048305865778700,4.83877880859375,0.0006745075806975365,-0.0003362784627825022,-0.0010584047995507717
1772048305875729700,4.848729736328125,-0.0008972696959972382,0.001285079400986433,-0.0005465741269290447
1772048305885681700,4.858681640625,-0.0011097900569438934,0.0003183521330356598,-0.0012339362874627113
1772048305895632600,4.868632568359375,-0.0004801310133188963,-0.00033604190684854984,0.0009315535426139832
1772048305905583600,4.87858349609375,-0.0006700144149363041,0.0007755616679787636,0.00028387270867824554
1772048305915534800,4.888534912109375,0.0016975305043160915,0.0001417903695255518,-0.0025255479849874973
1772048305925485600,4.898485595703125,-0.002296145772561431,-0.0005935081280767918,0.000642282422631979
1772048305935437600,4.9084375,-0.0007440783083438873,0.00017384462989866734,0.0007876604795455933
1772048305945388500,4.918388427734375,-0.0005299602635204792,-0.0006794319488108158,0.00001960480585694313
1772048305955339800,4.92833984375,0.0007932041771709919,0.0008722411002963781,-0.0004153558984398842
1772048305965290500,4.93829052734375,-0.0005591490771621466,0.001071445643901825,0.0023767019156366587
1772048305975242500,4.948242431640625,-0.002040875842794776,0.00225098617374897,-0.0002042190171778202
1772048305985193700,4.95819384765625,0.0001016370952129364,-0.000898467842489481,0.0004884693771600723
1772048305995144700,4.968144775390625,-0.0006867288611829281,0.00041077728383243084,0.0005966480821371078
1772048306005095700,4.978095703125,0.00029730936512351036,-0.003501939121633768,0.0011375360190868378
1772048306015047400,4.98804736328125,0.0014542434364557266,-0.0014742508064955473,-0.00014072749763727188
1772048306024998700,4.99799853515625,0.0007519680075347424,0.0009795858059078455,-0.0002203560434281826
1772048306034949600,5.00794970703125,0.002499969210475683,-0.002812915248796344,-0.0023473119363188744
1772048306044900600,5.017900634765625,0.00010552071034908295,-0.0004933017771691084,-0.0034376103430986404
1772048306054851600,5.0278515625,-0.0004427197854965925,0.000011567026376724243,-0.0015132934786379337
1772048306064803600,5.037803466796875,-0.0010224899742752314,-0.001836933195590973,-0.0021620397455990314
1772048306074754800,5.0477548828125,-0.000258823623880744,-0.00008194055408239365,-0.000496360007673502
1772048306084705500,5.05770556640625,-0.0000894465483725071,-0.00020125042647123337,0.0004072505980730057
1772048306094656800,5.06765673828125,-0.0005340313073247671,-0.0003923899494111538,0.0005433387123048306
1772048306104608500,5.0776083984375,-0.00027490570209920406,0.000843849265947938,-0.0018606968224048615
1772048306114559700,5.087559814453125,-0.0018850492779165506,0.00021343445405364037,-0.0021604271605610847
1772048306124510500,5.097510498046875,0.0011046151630580425,0.000578553881496191,-0.00016145827248692513
1772048306134461700,5.107461669921875,0.00191553495824337,-0.00015968340449035168,0.000016903970390558243
1772048306144413700,5.11741357421875,-0.00029462226666510105,0.0010659033432602882,-0.001253690104931593
1772048306154364700,5.12736474609375,0.0023338901810348034,-0.002940467558801174,0.00202094204723835
1772048306164315600,5.137315673828125,-0.001190537353977561,-0.002529808320105076,-0.0017253267578780651
1772048306174266600,5.1472666015625,0.0004005138762295246,-0.00020546489395201206,0.0022274821531027555
1772048306184217600,5.157217529296875,0.000507839024066925,-0.00024514575488865376,-0.0006466014310717583
1772048306194169600,5.167169677734375,-0.0009723817929625511,-0.0012953209225088358,-0.00372114684432745
1772048306204120600,5.17712060546875,-0.00043202657252550125,-0.00030808732844889164,-0.002910480834543705
1772048306214071800,5.18707177734375,0.000011613592505455017,0.0009514987468719482,0.00040049850940704346
1772048306224022500,5.1970224609375,0.0010044397786259651,0.0014460477977991104,-0.0004826057702302933
1772048306233974800,5.206974853515625,-0.0011410496663302183,0.001941388240084052,0.000976240262389183
1772048306243925500,5.216925537109375,-0.0009831241331994534,-0.0007558611687272787,-0.0005398974753916264
1772048306253876700,5.226876708984375,0.00046811625361442566,0.0012287527788430452,0.0001432076096534729
1772048306263827500,5.236827392578125,0.0004265708848834038,0.00010782829485833645,-0.00030020857229828835
1772048306273779700,5.24677978515625,-0.0011046992149204016,-0.0013338765129446983,-0.0011913874186575413
1772048306283730400,5.25673046875,-0.00265865377150476,0.0002722758799791336,-0.00013810722157359123
1772048306293681700,5.266681640625,-0.0009813872165977955,0.0014088200405240059,-0.00008116476237773895
1772048306303632400,5.27663232421875,-0.0001984178088605404,-0.0008814982138574123,-0.00015040719881653786
1772048306313583600,5.28658349609375,-0.0010130763985216618,0.0011133640073239803,-0.003052246291190386
1772048306323535400,5.296535400390625,0.0006628506816923618,-0.0008382005617022514,-0.00047643715515732765
1772048306333486600,5.306486572265625,-0.00101040443405509,-0.0016638943925499916,-0.00023697875440120697
1772048306343437600,5.3164375,-0.0006985482759773731,-0.000492902472615242,0.0030128767248243093
1772048306353388500,5.326388427734375,0.001515194308012724,-0.0032903780229389668,-0.0018670065328478813
1772048306363340500,5.336340576171875,0.0017255842685699463,-0.0006011179648339748,0.0015961681492626667
1772048306373291500,5.34629150390625,0.0030023641884326935,-0.0014112417120486498,-0.001043485477566719
1772048306383242500,5.356242431640625,0.0013227085582911968,0.0013832133263349533,-0.0016078096814453602
1772048306393193500,5.366193359375,0.00044378871098160744,0.0006845772732049227,0.001104222610592842
1772048306403144700,5.376144775390625,0.000555641483515501,-0.002165271667763591,-0.0035653640516102314
1772048306413096700,5.3860966796875,0.0001755775883793831,-0.0007723446469753981,-0.0015678415074944496
1772048306423047400,5.39604736328125,-0.0007916823960840702,-0.00017180177383124828,-0.0028091403655707836
1772048306432998700,5.40599853515625,0.0004760618321597576,0.0009066136553883553,0.0004509775899350643
1772048306442949600,5.41594970703125,0.000935989897698164,0.0017399168573319912,0.0018265005201101303
1772048306452901600,5.425901611328125,0.00045981304720044136,-0.0011375611647963524,0.00034150201827287674
1772048306462852400,5.435852294921875,0.0014390572905540466,-0.0027019018307328224,0.00004429323598742485
1772048306472803600,5.445803466796875,-0.00192587124183774,0.0004886751994490623,-0.0009318841621279716
1772048306482754600,5.455754638671875,0.00103689543902874,0.0013693824876099825,-0.00219928240403533
1772048306492706600,5.46570654296875,-0.0012788553722202778,0.0006784962024539709,0.0004475903697311878
1772048306502657500,5.475657470703125,0.0005797646008431911,0.002696373499929905,0.0021924932952970266
1772048306512608500,5.4856083984375,0.0018718792125582695,0.001604998717084527,-0.001182090025395155
1772048306522559700,5.495559814453125,-0.0014485500287264585,-0.0007388493977487087,-0.0003027142956852913
1772048306532511500,5.505511474609375,0.001557935494929552,-0.00022573326714336872,0.0008601164445281029
1772048306542462500,5.51546240234375,-0.0005739249754697084,0.001560715027153492,0.0024806498549878597
1772048306552413400,5.525413330078125,0.00024219881743192673,0.00119214435108006,0.000994392205029726
1772048306562364700,5.53536474609375,0.0010547293350100517,0.000945802079513669,0.0007999814115464687
1772048306572315400,5.5453154296875,-0.0007720235735177994,0.001321280375123024,0.002481210744008422
1772048306582267600,5.555267578125,0.00009377021342515945,-0.0007735618855804205,0.001233519520610571
1772048306592218600,5.565218505859375,0.0002698395401239395,0.000335159944370389,0.0014896905049681664
1772048306602169600,5.575169677734375,0.0009180526249110699,0.0027759470976889133,0.00020737852901220322
1772048306612120600,5.58512060546875,0.0010547526180744171,-0.0006081163883209229,0.002155255526304245
1772048306622072600,5.595072509765625,0.000265657901763916,0.00002811267040669918,-0.000020280946046113968
1772048306632023600,5.6050234375,0.0005147564224898815,0.0009318296797573566,-0.0011186972260475159
1772048306641974500,5.614974609375,-0.0011502518318593502,0.003253307193517685,-0.0010025836527347565
1772048306651925500,5.624925537109375,-0.0027202265337109566,0.006543176714330912,-0.0008835997432470322
1772048306661877800,5.634877685546875,0.0011088666506111622,0.0005244326312094927,0.0004397248849272728
1772048306671828500,5.644828369140625,0.0006568720564246178,0.0013274869415909052,0.0004124627448618412
1772048306681779700,5.65477978515625,-0.002361288294196129,0.0011756867170333862,0.001904631732031703
1772048306691730400,5.66473046875,-0.001060704467818141,0.0008414345793426037,0.0014968863688409328
1772048306701681700,5.674681640625,0.0004455791786313057,0.0002459515817463398,0.00368334143422544
1772048306711633400,5.68463330078125,-0.0003076968714594841,0.0012396399397403002,-0.00013957079499959946
1772048306721584600,5.694584716796875,-0.001898935530334711,0.002337394980713725,0.003500171471387148
1772048306731535600,5.70453564453125,0.000010582618415355682,0.0025822988245636225,0.001406199298799038
1772048306741486600,5.714486572265625,0.001251881942152977,0.0006341964472085238,0.0011795642785727978
1772048306751438600,5.7244384765625,0.0015077479183673859,0.002061821287497878,0.0009167618118226528
1772048306761389600,5.7343896484375,-0.000027830712497234344,0.001141965389251709,0.002383364597335458
1772048306771340500,5.744340576171875,0.0018719327636063099,-0.00046821613796055317,0.00018667010590434074
1772048306781291500,5.75429150390625,0.0014170650392770767,0.0031004196498543024,0.0011829589493572712
1772048306791243500,5.764243408203125,0.0006580408662557602,0.0010915501043200493,0.0018243377562612295
1772048306801194800,5.77419482421875,0.0018298318609595299,-0.0018405902665108442,-0.0006036660633981228
1772048306811145500,5.7841455078125,-0.0012751556932926178,-0.00015607522800564766,0.0023966003209352493
1772048306821096700,5.7940966796875,0.0006686854176223278,0.0012652536388486624,0.0009728744626045227
1772048306831047400,5.80404736328125,-0.0009839520789682865,-0.0034657593350857496,-0.0008455747738480568
1772048306840999700,5.813999755859375,0.001269082073122263,-0.0031536368187516928,-0.0014362637884914875
1772048306850950400,5.823950439453125,-0.00004192814230918884,0.003400561399757862,0.00315179955214262
1772048306860901600,5.833901611328125,-0.0024829816538840532,0.0014029243029654026,0.0026412715669721365
1772048306870852400,5.843852294921875,0.0010886532254517078,-0.007202791050076485,-0.0013048779219388962
1772048306880804600,5.8538046875,-0.0012160465121269226,0.00013688066974282265,-0.0007722456939518452
1772048306890755600,5.863755615234375,-0.0024885202292352915,0.0024532154202461243,0.0045594205148518085
1772048306900706600,5.87370654296875,0.001547234132885933,-0.003167385933920741,-0.0036622905172407627
1772048306910657500,5.883657470703125,0.00004435144364833832,-0.009396319277584553,-0.003609761130064726
1772048306920609500,5.893609619140625,0.002267558127641678,-0.005696123465895653,-0.002816139254719019
1772048306930560500,5.903560546875,0.00006108777597546577,-0.006784488447010517,-0.0027254940941929817
1772048306940511500,5.913511474609375,0.002709867898374796,-0.011601082049310207,-0.0028687724843621254
1772048306950462500,5.92346240234375,-0.002420946955680847,0.004774606786668301,0.0022745325695723295
1772048306960413400,5.933413330078125,-0.0008321048226207495,0.013685277663171291,0.005013061221688986
1772048306970365400,5.943365478515625,-0.0007702391594648361,0.006291809491813183,0.0010907575488090515
1772048306980316700,5.953316650390625,-0.0009199087508022785,-0.0076876552775502205,-0.001650433987379074
1772048306990267400,5.963267333984375,0.0012630936689674854,-0.0059354668483138084,0.001555178314447403
1772048307000218600,5.973218505859375,2.2258609533309937e-7,0.0020944958087056875,0.0019613103941082954
1772048307010170400,5.98317041015625,-0.0013463322538882494,0.0029151015914976597,0.0031581525690853596
1772048307020121600,5.99312158203125,-0.0003481796011328697,-0.0022572900634258986,0.002198615577071905
1772048307030072600,6.003072509765625,0.0001539657823741436,-0.00490458682179451,0.004504764452576637
1772048307040023600,6.0130234375,0.0018155118450522423,0.0029434822499752045,0.004805967677384615
1772048307049975600,6.0229755859375,-0.0010030767880380154,0.00581238092854619,0.0033804376143962145
1772048307059926500,6.032926513671875,0.0005018757656216621,0.003461875021457672,0.0003364444710314274
1772048307069877500,6.04287744140625,0.00038588931784033775,-0.0007886274252086878,-0.0013905353844165802
1772048307079828500,6.052828369140625,0.0006048008799552917,0.00441279262304306,0.0019176434725522995
1772048307089779700,6.06277978515625,0.0019612275063991547,0.0061947135254740715,0.0022425490897148848
1772048307099731500,6.0727314453125,-0.00207505957223475,0.005151553079485893,0.0009410623461008072
1772048307109682400,6.082682373046875,0.0012249546125531197,-0.0033865130972117186,-0.0005075642839074135
1772048307119633700,6.092633544921875,0.0009743510745465755,0.009025149047374725,0.000999518670141697
1772048307129584600,6.102584716796875,0.0007651117630302906,0.01782587356865406,0.004306241404265165
1772048307139536600,6.11253662109375,0.0017020120285451412,0.0058962441980838776,0.0002526440657675266
1772048307149487600,6.122487548828125,-0.000483830226585269,-0.00995238684117794,-0.005417515058070421
1772048307159438600,6.1324384765625,0.00013402290642261505,0.0027343793772161007,0.0002949652262032032
1772048307169389600,6.1423896484375,-0.0007446322124451399,0.008561554364860058,0.0019445549696683884
1772048307179341600,6.152341552734375,-0.0005851087626069784,0.005900524090975523,0.00012455089017748833
1772048307189292500,6.16229248046875,0.00015618465840816498,-0.0023038953077048063,-0.0009993081912398338
1772048307199243500,6.172243408203125,-0.0013080211356282234,-0.007268293760716915,-0.0034361006692051888
1772048307209194800,6.18219482421875,0.0006510159000754356,-0.0025246755685657263,0.0013078353367745876
1772048307219145500,6.1921455078125,-0.0015692615415900946,0.0025201505050063133,0.00043751439079642296
1772048307229097700,6.20209765625,0.0009091622196137905,-0.0015295392367988825,-0.00035448232665657997
1772048307239048400,6.21204833984375,-0.0015934102702885866,0.0007285550236701965,-0.0008397102355957031
1772048307248999700,6.221999755859375,-0.0013555146288126707,0.000023862114176154137,-0.0006658090278506279
1772048307258950400,6.231950439453125,0.0006043058820068836,-0.0024446218740195036,0.0010292930528521538
1772048307268902400,6.24190234375,-0.0024689724668860435,0.0016225769650191069,0.0021722831297665834
1772048307278853400,6.251853271484375,0.0010477318428456783,0.001461988314986229,-0.0015220539644360542
1772048307288804400,6.261804443359375,-0.00014542974531650543,-0.004633503034710884,0.0008469335734844208
1772048307298755300,6.27175537109375,0.002164862584322691,-0.0004166539292782545,-0.0012183478102087975
1772048307308707600,6.28170751953125,-0.0017865493427962065,0.000115205068141222,0.002723109442740679
1772048307318658300,6.291658203125,-0.000571348937228322,-0.0003708216827362776,-0.00031076371669769287
1772048307328609500,6.301609619140625,0.0009166873060166836,-0.009366180747747421,-0.004984877072274685
1772048307338560300,6.311560302734375,-0.0007030470296740532,-0.009823178872466087,-0.005476763471961021
1772048307348512500,6.321512451171875,0.0016258610412478447,-0.0038076608907431364,-0.0037484397180378437
1772048307358463200,6.331463134765625,-0.0011001506354659796,0.0018709974829107523,-0.0026584086008369923
1772048307368414500,6.34141455078125,0.001360444352030754,-0.0026501973625272512,-0.006586811505258083
1772048307378365200,6.351365234375,0.0010224892757833004,-0.007985041476786137,-0.0027734311297535896
1772048307388316400,6.36131640625,0.00048196688294410706,-0.004258809611201286,-0.0034582754597067833
1772048307398268400,6.371268310546875,0.0011088745668530464,0.000798000255599618,-0.0010619633831083775
1772048307408219400,6.381219482421875,0.0014520594850182533,0.0003573857247829437,0.000970933586359024
1772048307418170400,6.39117041015625,0.0013599139638245106,0.002573934616521001,-0.00028954027220606804
1772048307428121300,6.401121337890625,-0.001450871117413044,0.008243664167821407,0.005432243458926678
1772048307438073300,6.4110732421875,-0.0013600573875010014,0.008790411055088043,0.007589669898152351
1772048307448024300,6.4210244140625,-0.002298950217664242,0.015236389823257923,0.010820632800459862
1772048307457975300,6.430975341796875,-0.0035117538645863533,0.00934574380517006,0.010909315198659897
1772048307467926500,6.440926513671875,-0.0018481300212442875,0.009082227014005184,0.00819486379623413
1772048307477878300,6.450878173828125,-0.00302285049110651,0.002045889152213931,-0.008152683265507221
1772048307487829500,6.46082958984375,0.001772009301930666,-0.03175441920757294,-0.014747688546776772
1772048307497780200,6.4707802734375,0.0003578709438443184,-0.012262213043868542,-0.0057922773994505405
1772048307507731500,6.4807314453125,-0.0013519881758838892,0.0068383291363716125,-0.011096545495092869
1772048307517682400,6.490682373046875,0.00024377787485718727,0.0004161165561527014,0.003350305138155818
1772048307527634400,6.500634521484375,-0.0017735969740897417,0.0217497069388628,0.008194934576749802
1772048307537585400,6.51058544921875,-0.0008300389163196087,0.005091101862490177,0.0015237166080623865
1772048307547536400,6.520536376953125,0.002166265156120062,-0.023011166602373123,-0.004608051851391792
1772048307557487400,6.5304873046875,0.0019441572949290276,-0.023217560723423958,-0.003739594481885433
1772048307567439400,6.540439453125,-0.001131333177909255,0.011242181994020939,0.008789215236902237
1772048307577390300,6.550390380859375,-0.0006780631374567747,0.016429221257567406,0.0015893590170890093
1772048307587341300,6.56034130859375,-0.0009639719501137733,-0.011859443970024586,-0.0017313049174845219
1772048307597292500,6.57029248046875,0.0027639209292829037,-0.013096482492983341,-0.0036652926355600357
1772048307607244500,6.58024462890625,-0.0015803063288331032,0.01330280676484108,0.003970642574131489
1772048307617195300,6.5901953125,0.00025967182591557503,0.022476332262158394,0.010713767260313034
1772048307627146500,6.600146484375,0.00030552223324775696,0.01262360718101263,0.005859303753823042
1772048307637097500,6.610097412109375,0.0009502735920250416,-0.0035606890451163054,0.0011851899325847626
1772048307647048400,6.62004833984375,0.0014920113608241081,0.0061908746138215065,0.0038676802068948746
1772048307657000200,6.630000244140625,0.00338498642668128,0.01487757358700037,0.010175909847021103
1772048307666951400,6.639951416015625,-0.0005489729810506105,0.008191071450710297,0.006230276543647051
1772048307676902400,6.64990234375,0.001043863594532013,-0.002155575668439269,-0.002068133559077978
1772048307686853400,6.659853271484375,0.004026188515126705,-0.003609995124861598,0.0021690367721021175
1772048307696805400,6.669805419921875,0.000021859537810087204,0.006032245699316263,-0.0007039811462163925
1772048307706756400,6.67975634765625,0.0022294544614851475,0.014471199363470078,0.0027562989853322506
1772048307716707600,6.68970751953125,0.0024907109327614307,0.009154198691248894,0.0028306012973189354
1772048307726658300,6.699658203125,0.001956394873559475,-0.0013514191377907991,0.0016105251852422953
1772048307736610300,6.7096103515625,0.0033268574625253677,0.0021732747554779053,0.002361802849918604
1772048307746561300,6.719561279296875,0.0019606691785156727,0.009053311310708523,0.003153515513986349
1772048307756512500,6.729512451171875,0.002583049703389406,0.005770432762801647,0.002487991703674197
1772048307766463200,6.739463134765625,0.0008940729312598705,0.002431627595797181,0.0022025008220225573
1772048307776414500,6.74941455078125,0.0003388039767742157,-0.0007292784284800291,0.0007135276682674885
1772048307786366500,6.759366455078125,0.0016232547350227833,0.001806912012398243,0.0046749962493777275
1772048307796317400,6.7693173828125,-0.002123546786606312,0.0035158623941242695,-0.0005224291235208511
1772048307806268400,6.779268310546875,0.0004938435740768909,0.0012730590533465147,-0.000020759645849466324
1772048307816219400,6.789219482421875,-0.0011037865187972784,-0.0021355210337787867,-0.0014884276315569878
1772048307826171400,6.79917138671875,-0.0018720433581620455,-0.0027870384510606527,-0.0019732783548533916
1772048307836122400,6.809122314453125,0.00017166649922728539,0.003119852626696229,0.0014233170077204704
1772048307846073300,6.8190732421875,-0.0004404108040034771,-0.000316068297252059,0.0013031363487243652
1772048307856024600,6.829024658203125,0.001707961317151785,0.0006048525683581829,-0.00003723287954926491
1772048307865976300,6.838976318359375,0.0004377160221338272,0.0032847023103386164,0.0009894883260130882
1772048307875927600,6.848927490234375,0.0036313789896667004,0.0025528655387461185,0.0033538425341248512
1772048307885878300,6.858878173828125,0.0001640203408896923,0.0008553876541554928,0.002312420168891549
1772048307895829500,6.86882958984375,0.0002455129288136959,0.0041241515427827835,0.0028581018559634686
1772048307905781500,6.878781494140625,0.002567468211054802,0.004714906215667725,0.0047948528081178665
1772048307915732500,6.888732421875,-0.0010001026093959808,0.0012775640934705734,0.0003604232333600521
1772048307925683500,6.898683349609375,0.0006413827650249004,0.00014041666872799397,0.0013260007835924625
1772048307935634400,6.908634521484375,0.0024398155510425568,-0.000056923599913716316,0.003519380232319236
1772048307945586400,6.91858642578125,-0.0008905390277504921,-0.001993530662730336,-0.00009465496987104416
1772048307955537400,6.928537353515625,0.001221347600221634,0.001437419792637229,0.001568489009514451
1772048307965488400,6.93848828125,0.0016006533987820148,0.005474462173879147,0.0010389122180640697
1772048307975439400,6.948439453125,0.0021924078464508057,0.002389988861978054,0.000959017314016819
1772048307985390300,6.958390380859375,0.003975980449467897,-0.001838108291849494,-0.0014144950546324253
1772048307995342600,6.968342529296875,0.0006893728859722614,-0.0016266533639281988,0.0031554894521832466
1772048308005293300,6.978293212890625,0.00048441579565405846,0.003044866258278489,0.0014860068913549185
1772048308015244500,6.98824462890625,-0.00046686548739671707,0.004039024468511343,0.0022295613307505846
1772048308025195300,6.9981953125,-0.0000755060464143753,0.004524167627096176,-0.0012333649210631847
1772048308035147500,7.0081474609375,0.0003173104487359524,0.001705744070932269,0.0001629306934773922
1772048308045098200,7.01809814453125,0.00017797201871871948,0.004063963424414396,0.002089557470753789
1772048308055049500,7.028049560546875,0.0025188904255628586,0.0037084314972162247,0.001979302614927292
1772048308065000200,7.038000244140625,-0.0017211788799613714,0.0038899248465895653,0.004571469500660896
1772048308074951400,7.047951416015625,-0.00023566768504679203,0.00211333017796278,-0.0013250354677438736
1772048308084903400,7.0579033203125,-0.002256265375763178,0.0011368177365511656,0.0005866792052984238
1772048308094854400,7.0678544921875,-0.0004189505707472563,0.0024124719202518463,0.0032474431209266186
1772048308104805400,7.077805419921875,0.001585349440574646,0.0019656596705317497,0.0019212018232792616
1772048308114756400,7.08775634765625,-0.00009963288903236389,-0.000029847025871276855,0.0041878181509673595
1772048308124708400,7.097708251953125,0.000004035420715808868,0.0009232549928128719,0.0015021450817584991
1772048308134659300,7.107659423828125,0.001299130730330944,0.00026172585785388947,0.001002003438770771
1772048308144610300,7.1176103515625,-0.000743155600503087,0.0008663157932460308,0.001932601211592555
1772048308154561300,7.127561279296875,0.0008360990323126316,-0.0011494311038404703,0.002384539693593979
1772048308164513300,7.13751318359375,-0.00021772203035652637,-0.0006300529930740595,0.001327721867710352
1772048308174464500,7.147464599609375,-0.0019876586738973856,-0.0009360502008348703,0.002455304143950343
1772048308184415200,7.157415283203125,-0.00025845994241535664,-0.0009626208338886499,-0.0011308910325169563
1772048308194366500,7.167366455078125,-0.00027630291879177094,-0.00037832348607480526,-0.00118228979408741
1772048308204318200,7.177318115234375,0.0015363674610853195,0.00153684476390481,-0.0036283894442021847
1772048308214269400,7.18726953125,-0.0006210594438016415,0.00335818063467741,-0.0020033284090459347
1772048308224220200,7.19722021484375,0.0011507617309689522,0.00002665584906935692,-0.001527450978755951
1772048308234171400,7.20717138671875,-0.001899356720969081,-0.001756064360961318,-0.0033043120056390762
1772048308244122600,7.21712255859375,-0.0010424228385090828,-0.0006548033561557531,0.0011739344336092472
1772048308254074400,7.227074462890625,-0.0023234032560139894,0.005753827281296253,0.00019788555800914764
1772048308264025300,7.237025390625,0.00017687911167740822,0.0026750145480036736,0.002076268196105957
1772048308273977000,7.24697705078125,-0.000853231642395258,-0.0036923375446349382,0.0005654566921293736
1772048308283927800,7.256927734375,-0.0019459105096757412,-0.0025253191124647856,0.00038405507802963257
1772048308293880000,7.266880126953125,0.0013100705109536648,-0.0009852128569036722,-0.0003184867091476917
1772048308303831000,7.2768310546875,0.0002947794273495674,0.0007852152921259403,-0.0008493545465171337
1772048308313782000,7.286781982421875,-0.000968624372035265,0.00010051648132503033,-0.000029101036489009857
1772048308323733000,7.29673291015625,-0.00016676029190421104,0.002194535220041871,0.001109178178012371
1772048308333685000,7.30668505859375,-0.0009718341752886772,-0.0006025827024132013,-0.0011103004217147827
1772048308343636000,7.316635986328125,0.0022488185204565525,0.0015359804965555668,0.0014474960044026375
1772048308353587000,7.3265869140625,-0.0011890563182532787,-0.003234806237742305,-0.0009440230205655098
1772048308363538000,7.336537841796875,0.0018368447199463844,0.0008851971942931414,-0.00042154407128691673
1772048308373489000,7.346489013671875,0.0002013975754380226,0.0005584273021668196,-0.000057223718613386154
1772048308383441000,7.35644091796875,-0.0030288759153336287,0.0003074728883802891,0.0014964460860937834
1772048308393392000,7.36639208984375,-0.0012751843314617872,-0.00012369290925562382,0.0008242642506957054
1772048308403342800,7.3763427734375,0.0025363843888044357,-0.0006639913190156221,0.0018143127672374249
1772048308413294000,7.386294189453125,0.0003611142747104168,-0.0019114159513264894,-0.000575874000787735
1772048308423245800,7.396245849609375,-0.0011436666827648878,-0.0014224990736693144,0.0007193866185843945
1772048308433197000,7.406197021484375,0.00169313233345747,-0.00033273338340222836,0.00047197891399264336
1772048308443147800,7.416147705078125,0.0029425881803035736,-0.0016824284102767706,-0.001589613500982523
1772048308453099000,7.42609912109375,0.0012312405742704868,-0.0007356747519224882,-0.002453809604048729
1772048308463051000,7.436051025390625,0.002494644373655319,0.0025687753222882748,0.0006242725066840649
1772048308473002000,7.446001953125,-0.0007291121874004602,-0.0008528537582606077,-0.0020822985097765923
1772048308482953000,7.455952880859375,-0.0022046328522264957,-0.0003178694751113653,0.0006539593450725079
1772048308492904000,7.465904052734375,0.0005794358439743519,-0.0011551675852388144,-0.00118362158536911
1772048308502856000,7.47585595703125,-0.00009128917008638382,-0.001074428902938962,0.00008231913670897484
1772048308512807200,7.48580712890625,0.0034437905997037888,0.000659821555018425,-0.0006439248099923134
1772048308522758000,7.4957578125,-0.001056653680279851,0.0004305269103497267,0.001175234094262123
1772048308532709000,7.505709228515625,0.0014294073916971684,0.0006576944142580032,-0.00018644006922841072
1772048308542660000,7.51566015625,0.0014626067131757736,-0.0009289276786148548,0.0016196307260543108
1772048308552612000,7.525612060546875,0.0011701914481818676,-0.0019196239300072193,0.000052360352128744125
1772048308562562800,7.535562744140625,0.0007390417158603668,0.001309419283643365,0.0023717419244349003
1772048308572514000,7.54551416015625,0.0017126933671534061,0.001583991339430213,0.0027389919850975275
1772048308582465000,7.555465087890625,0.0002930168993771076,0.001865349244326353,0.002443466102704406
1772048308592417000,7.5654169921875,0.00019048526883125305,-0.003791204886510968,-0.0008806916885077953
1772048308602368000,7.575367919921875,-0.0008216293063014746,0.000022995518520474434,0.0015597029123455286
1772048308612319000,7.585319091796875,0.00013737473636865616,0.0003676086198538542,0.002679295837879181
1772048308622270200,7.595270263671875,0.0006786216981709003,0.0005525639280676842,0.0008781924843788147
1772048308632222000,7.605221923828125,0.0015918193385004997,-0.0005356036126613617,0.0011668791994452477
1772048308642173000,7.6151728515625,0.0016980157233774662,0.0020223367027938366,0.0006981184706091881
1772048308652124000,7.6251240234375,0.0017187884077429771,-0.0006789076142013073,-0.000011347699910402298
1772048308662075100,7.6350751953125,-0.0009084842167794704,0.0005329672712832689,-0.0009029582142829895
1772048308672027100,7.645027099609375,0.00009632669389247894,-0.004125434439629316,0.0003047850914299488
1772048308681978000,7.65497802734375,0.0002066250890493393,-0.0005428122822195292,0.001183308195322752
1772048308691929000,7.66492919921875,0.0009642946533858776,0.0021994449198246002,-0.000021772459149360657
1772048308701880000,7.674880126953125,-0.0006317468360066414,-0.001167195849120617,-0.0001597846858203411
1772048308711831000,7.6848310546875,0.0002460312098264694,0.0016759950667619705,-0.0026509054005146027
1772048308721783000,7.694782958984375,0.003779502585530281,0.0018712752498686314,-0.0006617000326514244
1772048308731734000,7.704734130859375,-0.00021151057444512844,-0.00020013167522847652,-0.0018947436474263668
1772048308741685000,7.71468505859375,-0.0015690033324062824,-0.002379287965595722,-0.0017674462869763374
1772048308751636000,7.724635986328125,0.000181492418050766,0.0013888187240809202,-0.0012132422998547554
1772048308761588200,7.734588134765625,0.0012771012261509895,0.0010002674534916878,-0.0017660167068243027
1772048308771539000,7.7445390625,-0.002333612646907568,0.00016430113464593887,0.0012241802178323269
1772048308781490200,7.754490234375,0.00010424572974443436,0.001990479649975896,0.00019812770187854767
1772048308791441000,7.76444091796875,-0.0008366492111235857,0.0016647749580442905,-0.00019788462668657303
1772048308801392000,7.77439208984375,0.0016704900190234184,-0.0011671781539916992,-0.0013595805503427982
1772048308811344000,7.78434375,-0.0008259571623057127,-0.0010699727572500706,-0.0019436115399003029
1772048308821295000,7.794295166015625,-0.0001998143270611763,-0.00018216297030448914,-0.0009666974656283855
1772048308831245800,7.804245849609375,0.0003242958337068558,-0.0009036133997142315,-0.002657005563378334
1772048308841197000,7.814197021484375,0.0010289298370480537,0.0017568364273756742,0.0004475302994251251
1772048308851149000,7.824149169921875,0.000021988525986671448,-0.00043201539665460587,0.0005878787487745285
1772048308861100000,7.83410009765625,-0.0016436334699392319,-0.0010273754596710205,-0.0013526203110814095
1772048308871051000,7.844051025390625,0.0011862413957715034,-0.0011488157324492931,-0.0020887181162834167
1772048308881002000,7.854001953125,-0.0009525022469460964,0.0018879175186157227,0.0015963369514793158
1772048308890954000,7.8639541015625,-0.00002652127295732498,0.002802180591970682,0.00045144371688365936
1772048308900905200,7.8739052734375,-0.0018973634578287601,0.0000938905868679285,-0.0012145303189754486
1772048308910856000,7.88385595703125,-0.003878755262121558,0.0013535658363252878,-0.0003253007307648659
1772048308920807200,7.89380712890625,0.0018093078397214413,-0.00139161990955472,0.0012417268007993698
1772048308930759000,7.903759033203125,-0.00009804777801036835,-0.000853395089507103,0.0007053660228848457
1772048308940710100,7.913710205078125,-0.0013669109903275967,0.017277635633945465,0.018002979457378387
1772048308950660900,7.923660888671875,-0.005479364190250635,0.07712791860103607,0.04737578332424164
1772048308960612000,7.933612060546875,0.0021964535117149353,0.024565694853663445,-0.01805926114320755
1772048308970562800,7.943562744140625,0.001459556631743908,-0.021598603576421738,0.011693574488162994
1772048308980515000,7.95351513671875,-0.0029746517539024353,0.011607383377850056,-0.0036182189360260963
1772048308990466000,7.963466064453125,0.0008110315538942814,0.003307908307760954,-0.00490452628582716
1772048309000417000,7.9734169921875,-0.0008776548784226179,0.0034842926543205976,-0.0035758987069129944
1772048309010368000,7.983367919921875,0.0005311574786901474,-0.027252312749624252,-0.0040267715230584145
1772048309020320000,7.993320068359375,0.0034905909560620785,-0.04172803834080696,-0.02567211724817753
1772048309030271000,8.00327099609375,-0.00023676943965256214,-0.035440050065517426,-0.01978014037013054
1772048309040222000,8.013221923828125,-0.00035037961788475513,-0.004338255152106285,0.0036924839951097965
1772048309050173000,8.0231728515625,0.00024883169680833817,0.022363130003213882,0.00585097586736083
