time,seconds_elapsed,z,y,x
1772094041959513600,0.077513671875,0.14744447762966156,-0.12327745663318783,0.09708236387521028
1772094041969462500,0.087462646484375,0.036055063721537585,-0.06889750380581244,0.07685834488347172
1772094041979411700,0.09741162109375,-0.1114092876523733,0.052954048210103064,-0.03253960294649005
1772094041989361400,0.107361328125,-0.13910101217627524,0.09107125035952776,-0.11658479059413075
1772094041999310600,0.117310546875,-0.05564648389816284,0.03623501426517032,-0.04525821474418044
1772094042009259500,0.127259521484375,0.03329962753355503,-0.007850819673301885,0.0264898013882339
1772094042019208700,0.137208740234375,0.07656067711114883,-0.0670644705592189,0.019053952299058437
1772094042029157600,0.14715771484375,0.10217501083910464,-0.07743126766690984,0.011336509789526461
1772094042039107600,0.157107666015625,0.10311199942827225,-0.04455573359720874,-0.010722761805355549
1772094042049056500,0.167056396484375,0.055662265989184376,-0.049544011437753215,-0.003106879974156618
1772094042059005400,0.17700537109375,0.043832127463817594,-0.06446501495081465,0.022365853326022624
1772094042068954400,0.186954345703125,0.0322942498832941,-0.03330114135391777,-0.004817483284324407
1772094042078903600,0.196903564453125,0.011626724907755851,0.03434467504050117,-0.06823591635823249
1772094042088853500,0.206853515625,-0.051591655549407,0.05334591533821076,-0.13482918007597328
1772094042098802700,0.216802734375,-0.09978197822272777,0.029707496209547386,-0.05268061982989311
1772094042108751600,0.226751708984375,-0.08863748387396335,0.005614150087349117,0.027041590052098035
1772094042118700500,0.236700439453125,0.0076005381315946575,-0.005390281628532102,-0.0266923382230103
1772094042128649500,0.2466494140625,0.13552373821139335,-0.021778956816159187,-0.04282660368308425
1772094042138598700,0.2565986328125,0.21203882261514662,0.011810664356627967,-0.03452127828299999
1772094042148548600,0.266548583984375,0.20791209807395933,0.0591227040747879,-0.055173897950351235
1772094042158497500,0.27649755859375,0.1456687001287937,0.061890013363654725,-0.07095847318992018
1772094042168446500,0.286446533203125,0.09484627538621425,-0.002559899630739528,0.0019195698857307434
1772094042178395400,0.2963955078125,0.06946399684846401,-0.061392297541163855,0.046532910855114455
1772094042188344600,0.306344482421875,0.03614800270199776,-0.09863780402312985,0.07976181124001741
1772094042198293800,0.316293701171875,-0.012318798825144767,-0.015465324681455967,0.033334698846936225
1772094042208243700,0.32624365234375,-0.026299393382668495,0.06342960292189381,-0.1322654670678079
1772094042218192600,0.336192626953125,0.007176759761571884,0.11063738996442407,-0.19443959916904568
1772094042228141600,0.3461416015625,0.07998071468770504,0.09958419062830508,-0.10553542718291282
1772094042238090500,0.356090576171875,0.13594284040629864,0.03213786287833936,-0.00984670962318778
1772094042248039400,0.366039306640625,0.1993921070098877,-0.04369823541846126,0.009851385798305273
1772094042257989600,0.37598974609375,0.2000876880586147,-0.09353350315405987,-0.005216565604507923
1772094042267938600,0.3859384765625,0.13774550591409204,-0.14237114728759043,0.032897476473450656
1772094042277887500,0.395887451171875,0.04668284071981907,-0.08764815317620522,0.02784793799892068
1772094042287836700,0.405836669921875,-0.006512158372998237,0.027323325036349703,-0.11650938727036118
1772094042297785600,0.41578564453125,-0.005513210463523864,0.060783321630232964,-0.16617708901986478
1772094042307734500,0.425734619140625,0.10222294163405894,0.0030817655116756213,-0.05352759204804897
1772094042317684700,0.435684814453125,0.14527940855026245,-0.0637013782011345,0.02944967410713434
1772094042327633700,0.445633544921875,0.07237783846855163,-0.052539320796215906,0.0518292636975646
1772094042337582600,0.45558251953125,-0.0153062902033329,0.04458355318589601,0.042499563685804605
1772094042347531500,0.465531494140625,-0.08499766606688498,0.10292839562282897,0.03471855442076921
1772094042357480400,0.47548046875,-0.1148521215826273,0.042194904483691786,0.06101283323690295
1772094042367430700,0.4854306640625,-0.09136778562068938,-0.04215672789777163,0.08993205372914671
1772094042377379600,0.495379638671875,0.006150923845171928,-0.04074094281571451,0.040268882024288175
1772094042387328500,0.50532861328125,0.1492857215821743,-0.040428675695881246,-0.04046557364016771
1772094042397277700,0.515277587890625,0.27033611328303814,-0.07044454601814504,-0.06661138389632106
1772094042407226600,0.5252265625,0.34203590635955333,-0.09114899177085607,-0.04080313503146171
1772094042417175600,0.535175537109375,0.2770826649338007,-0.07826546260188333,-0.009053805679827928
1772094042427125800,0.545125732421875,0.1484878492027521,-0.04914111145897768,-0.016085311751812697
1772094042437074700,0.55507470703125,0.07979717481434345,0.003274789595190668,-0.013268354634940624
1772094042447023600,0.565023681640625,0.03553483923971653,0.0012411982688310672,0.01545636619850993
1772094042456972500,0.57497265625,-0.003770750710368156,-0.02668415719984332,0.03487549854815006
1772094042466921500,0.58492138671875,-0.010583937856554985,0.02999841686396394,0.08318550207838415
1772094042476870700,0.59487060546875,-0.006738368344306946,0.08931531920344568,0.05415639147087931
1772094042486820600,0.604820556640625,-0.02206803942322731,0.0590055622348329,0.014172975324466824
1772094042496769800,0.614769775390625,-0.025509704309701918,0.1587058763563633,-0.0022930793732404706
1772094042506718700,0.62471875,0.1168120234787464,0.14412063956973142,-0.10212152708619833
1772094042516667600,0.634667724609375,0.17003040344715117,0.17582926245164124,-0.2493311730466783
1772094042526616600,0.644616455078125,0.36494390373826024,0.18336126539167016,-0.2815525768894702
1772094042536566500,0.65456640625,0.4482072933584451,0.007094223444117233,-0.10530446797125041
1772094042546515500,0.664515380859375,0.3418137880414724,-0.2397878120179288,-0.1420029441628605
1772094042556464600,0.674464599609375,0.1375643041282892,-0.17058723361231384,-0.06388152054101229
1772094042566413600,0.68441357421875,-0.0486333902657032,-0.04315272123175673,-0.04931450439766049
1772094042576362500,0.694362548828125,-0.17726093922257422,-0.008353187696379608,-0.08347038343437016
1772094042586311700,0.704311767578125,-0.2364876196950674,-0.050337965693883595,0.01954889620915055
1772094042596261400,0.714261474609375,-0.24678689539134502,-0.1412141775385011,-0.03685870825462043
1772094042606210600,0.72421044921875,-0.245065478426218,-0.15033350446890106,0.0024466624997556206
1772094042616159700,0.73415966796875,-0.18762918850183485,-0.1086996177017223,0.042571971334889526
1772094042626108700,0.744108642578125,-0.10161679243445396,-0.0928796697546728,-0.01251877837665379
1772094042636057600,0.7540576171875,-0.05830898110568523,0.008133295013892348,0.0023763006772845982
1772094042646007600,0.764007568359375,-0.056904959526658055,0.07654638372431509,-0.08915354363732039
1772094042655956500,0.77395654296875,-0.04955225867629051,0.10047598836887628,-0.16331453919559716
1772094042665905400,0.783905517578125,-0.02365267826616764,0.13126986189289017,-0.05235124174505472
1772094042675854600,0.7938544921875,0.05799801546037197,0.11251513913557865,0.023645152546837925
1772094042685806800,0.803806884765625,0.07142448326647281,0.034826252578943964,0.11109744522422552
1772094042695755800,0.813755859375,-0.015388123267889022,-0.020881866412539966,0.17333667845092712
1772094042705705700,0.823705810546875,-0.12056173140108585,-0.018617524510016664,0.16705555235482752
1772094042715654700,0.833654541015625,-0.13357611127495764,-0.00830581859042868,0.14945625584349034
1772094042725603800,0.843603759765625,-0.03316109584569931,0.037152649699896574,0.10210413755998014
1772094042735552800,0.853552734375,0.12962474330067633,0.08205067109586671,0.0009028671238571405
1772094042745501700,0.863501708984375,0.2249059029728174,0.19351718709450214,0.017785320602729915
1772094042755450600,0.87345068359375,0.3154758162140846,0.1466626613358967,0.006248100609332323
1772094042765400600,0.883400634765625,0.4383709589987993,0.0503700595988892,0.00758833623714745
1772094042775349500,0.893349609375,0.5803250225186347,-0.04643500343859196,-0.03435914652384817
1772094042785298700,0.903298583984375,0.3791910402774811,-0.026313166179694234,0.0845596399758011
1772094042795247900,0.913247802734375,0.20748422805070876,0.002274009346589446,0.2443511196117848
1772094042805196800,0.92319677734375,0.0648936201930046,-0.08951205648509784,0.20279694701731205
1772094042815146800,0.933146728515625,0.06048924775421619,-0.08062562499511987,0.033732758253812785
1772094042825095700,0.943095703125,0.04607844508588314,-0.035873752337880434,-0.11059022635444998
1772094042835044600,0.953044677734375,-0.06519640253186225,-0.06778950603129341,-0.22677074699662625
1772094042844993500,0.96299365234375,-0.03672317224144935,-0.07296358420094474,-0.2596406778760254
1772094042854942700,0.972942626953125,-0.017090251010656355,0.025323369691055267,-0.2180056951303035
1772094042864891600,0.9828916015625,0.039190439137816425,0.10555161113273352,-0.13394991302341222
1772094042874841600,0.992841552734375,0.13066928391754626,-0.038739206505287435,-0.024313845588639377
1772094042884790800,1.002790771484375,0.20666005218625066,-0.11577267049364745,0.02960917551778257
1772094042894739700,1.01273974609375,0.18672434861660003,-0.08558226102180778,0.08852883586771786
1772094042904688600,1.022688720703125,0.13367372643053532,-0.07424606175953521,0.01450469149686396
1772094042914637800,1.032637939453125,0.10019698876440525,-0.03236559808645397,-0.07922741210237146
1772094042924587800,1.042587890625,0.06389701037108898,-0.009920085386652499,-0.13769151070453226
1772094042934536700,1.05253662109375,-0.03531856614053249,-0.006802172561828046,-0.12392433970198034
1772094042944485600,1.062485595703125,-0.048476738399267194,-0.011809205335192382,-0.05823686571754515
1772094042954434600,1.0724345703125,0.039536476096510884,-0.0378506875671912,-0.009408683532103895
1772094042964383500,1.082383544921875,0.15797113234102725,-0.08925033680899068,-0.035068756097927686
1772094042974333000,1.0923330078125,0.20689678355157373,-0.09873592150220648,-0.15171704038232564
1772094042984282600,1.10228271484375,0.07371873168349266,0.021748360748495905,-0.002487798227742314
1772094042994231800,1.112231689453125,-0.08771861546337605,-0.07266661968152038,0.08047945799008012
1772094043004180700,1.1221806640625,-0.27274492799043654,-0.1391243199866265,0.29226167549565435
1772094043014129700,1.132129638671875,-0.2397673720180988,-0.05175352244707755,0.11141031056568027
1772094043024078600,1.14207861328125,-0.17047405556142328,0.08782292522122151,-0.15921419120468197
1772094043034028800,1.15202880859375,-0.03448094627261162,0.07574146054959856,-0.2872900245629251
1772094043043977700,1.161977783203125,0.12820552415251732,0.019633505752682686,-0.18715528737977147
1772094043053926700,1.1719267578125,0.23252456128299234,0.030366953348834064,0.037677696487307545
1772094043063875600,1.18187548828125,0.27733167125880714,-0.03999503351897001,0.05276990554854274
1772094043073824800,1.19182470703125,0.2696019537895918,0.009728006013808771,0.06615209582149982
1772094043083773700,1.201773681640625,0.24701193631887433,0.016014173611206932,0.04611526996493339
1772094043093723600,1.2117236328125,0.22852350894808768,-0.00824972275532782,0.08891966181620956
1772094043103672800,1.2216728515625,0.210973239210248,-0.06354200465464964,0.08997940000221133
1772094043113621800,1.231621826171875,0.16788579263389108,-0.08019715218367054,-0.007448562440276145
1772094043123570700,1.24157080078125,0.0686240388929844,-0.03491129138073884,-0.0031722002953290937
1772094043133519600,1.25151953125,-0.07532733592391014,-0.029590589548321437,0.02383724105283618
1772094043143469800,1.2614697265625,-0.14213935695886612,0.03550961346691474,0.0163040690690279
1772094043153418800,1.271418701171875,-0.10434475609362125,0.07749697158057242,-0.06073810794875025
1772094043163367700,1.28136767578125,-0.03718143740296364,0.037872095681400965,-0.10251096479520201
1772094043173316600,1.291316650390625,0.06801847421526909,-0.04530052864910103,-0.03727539929673075
1772094043183265800,1.301265869140625,0.15998013407588005,-0.08289475723719224,0.02352846736460924
1772094043193214700,1.311214599609375,0.19965514186024666,-0.04281336974217556,0.007471212663501501
1772094043203165000,1.3211650390625,0.23440613724589346,-0.01815270174355246,0.0063946694731712335
1772094043213113900,1.33111376953125,0.16501520563364028,-0.06811045878108125,-0.06569792231321335
1772094043223062800,1.341062744140625,-0.02373801846206188,-0.08626083613680675,-0.0961697790749371
1772094043233011700,1.35101171875,-0.1022901616513729,-0.005716656047175638,-0.04509951705113053
1772094043242960600,1.360960693359375,-0.0747802234351635,0.012619475971884094,-0.07408142751604319
1772094043252909600,1.37090966796875,-0.01076104798913002,-0.029876224389555863,-0.13014642908722163
1772094043262859800,1.38085986328125,0.10989420691430568,-0.07115832031068857,-0.1484621302396059
1772094043272808700,1.39080859375,0.14928396801650523,-0.07987139996117912,-0.14745821389406918
1772094043282757600,1.400757568359375,0.10946282975971698,-0.074790105508361,-0.12275514979213475
1772094043292706800,1.410706787109375,0.06622165392637253,-0.05133138347829226,-0.07506926950961351
1772094043302655700,1.42065576171875,0.11612287217080593,0.014293213303806259,-0.04700973458662629
1772094043312605700,1.430605712890625,0.17877894257009028,0.050637291133753023,-0.08980082856491207
1772094043322554600,1.4405546875,0.14656769479513168,0.034585671588988044,-0.07853124653175472
1772094043332503800,1.45050390625,0.13072364445328713,0.04410936436946503,-0.04513327319025993
1772094043342452700,1.46045263671875,0.054906479185819625,0.015386908558337017,-0.0172647307947278
1772094043352401700,1.470401611328125,0.012834347131848334,-0.04102311619138345,-0.029007921689003704
1772094043362351600,1.4803515625,-0.09476736493110656,-0.06379550449168309,-0.012910042716562747
1772094043372300500,1.490300537109375,-0.20680968979001044,-0.02201453283743467,0.030498598638176916
1772094043382249500,1.50024951171875,-0.22219313688278197,0.03772973948508734,-0.0022813889354467392
1772094043392199000,1.510198974609375,-0.10577040498256683,0.06947877429248765,-0.08671791398823261
1772094043402147800,1.52014794921875,0.09459785358309745,0.03954910724922083,-0.11126973305121063
1772094043412096800,1.5300966796875,0.193893509593606,-0.015028032667667139,-0.07085165181457996
1772094043422046700,1.540046630859375,0.210318574693799,-0.0626069431610871,-0.03437032550498843
1772094043431995600,1.54999560546875,0.19580723426043986,-0.05302104903170839,-0.024709347712248562
1772094043441944600,1.559944580078125,0.17711247066259383,-0.039777408712916074,-0.020005407804995774
1772094043451893800,1.569893798828125,0.21064239982068536,-0.015324111271102446,-0.04939049224331975
1772094043461842700,1.5798427734375,0.24518355184793472,0.021978573324775787,-0.097401805087924
1772094043471792600,1.589792724609375,0.20073066213726995,0.04651065335753374,-0.10561068437620996
1772094043481741600,1.599741455078125,0.1723778433561325,0.04445383042558096,-0.08942717294692992
1772094043491690800,1.609690673828125,0.09141337832808494,0.02167004394843243,-0.07220905777290464
1772094043501639700,1.6196396484375,-0.08344459140598773,-0.005281981823802925,-0.03337956090196967
1772094043511588900,1.6295888671875,-0.1702344015866518,-0.02142754499602597,0.010588760162144899
1772094043521537800,1.639537841796875,-0.16902619484066964,-0.040286910871323196,0.02385433831810951
1772094043531487700,1.64948779296875,-0.07193593991994858,-0.05540682992339134,-0.000189531222730875
1772094043541436700,1.659436767578125,0.019660978281497953,-0.09469610805949195,-0.01287482527270913
1772094043551385600,1.669385498046875,0.11205167720913886,-0.09227572164530866,-0.009382160851359367
1772094043561334500,1.67933447265625,0.1911345662742853,-0.06534571134205908,-0.03165785167589783
1772094043571283700,1.68928369140625,0.20752397553920746,-0.04297692170685623,-0.05375073327943682
1772094043581233700,1.699233642578125,0.18332710739374158,0.03284220718883443,-0.06576908785328268
1772094043591182600,1.7091826171875,0.07801847470402717,0.05736654915641993,-0.03856090906262397
1772094043601131800,1.7191318359375,-0.07772036854028701,0.023877413233020343,-0.03282937967330217
1772094043611080700,1.729080810546875,-0.1449193430662155,-0.021851926154247484,-0.039063451757282014
1772094043621029600,1.739029541015625,-0.11231295849382876,-0.05872985056599136,-0.016574556573480368
1772094043630978800,1.748978759765625,-0.00064005146920681,-0.07142840138976461,0.006734861212968826
1772094043640928800,1.7589287109375,0.10764905833601951,-0.07053886410493869,-0.001190524958819151
1772094043650877700,1.768877685546875,0.11821662957966327,-0.06688141930962446,-0.018575521132349965
1772094043660826600,1.77882666015625,0.07495908713340758,-0.057213221758231514,-0.010845657532662152
1772094043670775600,1.788775634765625,0.032065117302536965,-0.022161069735232738,-0.006348930635303259
1772094043680724700,1.798724853515625,0.06107669225335121,0.024641908499225974,-0.08535992350801826
1772094043690671400,1.80867138671875,0.10909516549110412,0.07870335169564932,-0.1338585814781487
1772094043700620300,1.818620361328125,0.1548673211067915,0.04554560315108392,-0.12065613168627023
1772094043710569500,1.828569580078125,0.11172142234146594,-0.01480535951044876,-0.04967325470745563
1772094043720518700,1.8385185546875,0.007272036829590797,-0.045273923769965765,0.012499562219530344
1772094043730467600,1.848467529296875,-0.14461305359601972,-0.07263975907405838,0.07947451873123645
1772094043740416500,1.85841650390625,-0.16596797631382942,-0.0753095080062747,0.09913228214234113
1772094043750366500,1.868366455078125,-0.07902911305129527,-0.02601541164240334,0.028613223282992838
1772094043760315400,1.8783154296875,0.06735913352370261,0.04746103571781422,-0.06954334569498896
1772094043770264300,1.888264404296875,0.19685294392108915,0.07736634920453653,-0.10907076170220971
1772094043780213500,1.898213623046875,0.2590419813305139,0.07762060709339566,-0.07924597067236899
1772094043790162700,1.90816259765625,0.23433014940023422,0.025440146204829213,-0.016934037535637617
1772094043800112400,1.9181123046875,0.16153437778055668,-0.04889130598295014,0.06191854990497231
1772094043810061600,1.9280615234375,0.06907879692316055,-0.03224299918666947,0.06855448078811169
1772094043820010500,1.938010498046875,-0.016084873360395432,0.02745820802897215,0.059630000576376914
1772094043829959400,1.94795947265625,-0.039600188982486725,0.08126096375659107,0.0018109949447214601
1772094043839908600,1.95790869140625,0.028888825353980064,0.14134263535691424,-0.1170408637985587
1772094043849857500,1.967857421875,0.052511108481884,0.13102539474568328,-0.1459874106891453
1772094043859807500,1.977807373046875,0.0670154346525669,0.061534203929617066,-0.060157385451346634
1772094043869756400,1.98775634765625,0.05921791264414787,-0.012738499241671523,0.03864464182332158
1772094043879705300,1.997705322265625,0.08683715645372866,-0.04995750130920205,0.06859861219078302
1772094043889654300,2.007654296875,0.10250585022866725,-0.05601725343931466,0.050133419565111394
1772094043899603700,2.017603759765625,0.06071896485686302,-0.011530118965753353,0.008569383163750171
1772094043909553400,2.027553466796875,0.053853170740604396,0.06623036695579067,-0.039470863514393564
1772094043919502600,2.037502685546875,0.0139729957729578,0.07024886818241793,-0.050249447160214185
1772094043929451500,2.047451416015625,-0.11956453705728054,0.055844846881320694,-0.019778467181324956
1772094043939400400,2.057400390625,-0.16821078680455684,0.04803194007410202,0.03245090174973011
1772094043949349400,2.067349365234375,-0.11090309169590473,0.007296299054590054,0.07587780941352247
1772094043959298600,2.077298583984375,-0.02553834588229656,0.03225424666646868,0.05940495964884757
1772094043969248500,2.08724853515625,0.034572131687402724,0.033473292183584996,0.06413812565058469
1772094043979197400,2.097197509765625,0.13108370993733406,0.046019654970197006,0.02235138640925288
1772094043989146400,2.107146484375,0.2097615253329277,0.022445729612221476,-0.02328983630314469
1772094043999095600,2.117095458984375,0.2678033799350262,0.024898374328191857,-0.047319092796742915
1772094044009044500,2.12704443359375,0.24302432798743245,0.06104245205703191,-0.05471636344119906
1772094044018994700,2.13699462890625,0.1931611036658287,0.07627350333337672,-0.05410246932655573
1772094044028943600,2.146943603515625,0.10971826582551002,0.024447212477610444,-0.05821078142821789
1772094044038892500,2.156892578125,0.004238368222117424,-0.05101816651038825,-0.033401188211888075
1772094044048841500,2.166841552734375,-0.042921442359685896,-0.07032744527738541,0.010454027866572142
1772094044058790400,2.176790283203125,-0.023159341791272162,-0.018209708610817322,-0.01049479826837778
1772094044068740600,2.18674072265625,0.030737083569169044,-0.0030028533441014585,0.0010746434941887855
1772094044078689500,2.196689453125,0.09907996743321418,0.018640877986140548,-0.009790741652250289
1772094044088638500,2.206638427734375,0.054122635331749915,0.07161947154903318,-0.02919818356409669
1772094044098587400,2.21658740234375,-0.040055531534552574,0.0572006865036441,-0.0018096797704696655
1772094044108536600,2.22653662109375,-0.09697335054278373,0.04097797100855969,0.04716887067109346
1772094044118485500,2.236485595703125,-0.0615910715162754,0.01359978311297018,0.03879588686227798
1772094044128435700,2.246435791015625,0.011311667609214782,-0.04713815587242134,0.030029227560758587
1772094044138384600,2.256384521484375,0.10145429534912109,-0.05756841013776138,0.010330986008793114
1772094044148333600,2.26633349609375,0.17144202381074428,0.013711689372092951,-0.0647740854665637
1772094044158282500,2.276282470703125,0.1799023936420679,0.026757471314514985,-0.11420637102499603
1772094044168231400,2.2862314453125,0.15990180814266203,0.0453386413029395,-0.11563947256803511
1772094044178181400,2.296181396484375,0.1754103429198265,0.04075028146621771,-0.09829524679630994
1772094044188130300,2.30613037109375,0.19785715252757072,0.029956221690052187,-0.08431406771689653
1772094044198079500,2.31607958984375,0.20071955622136592,0.030080457707785533,-0.06569573035612702
1772094044208028700,2.326028564453125,0.1925163760215044,0.02398336695868056,-0.05484466599598527
1772094044217977600,2.3359775390625,0.0864087019085884,0.0038261295928386967,-0.04548910089060664
1772094044227926500,2.345926513671875,-0.09452888000011443,-0.010412814506771974,0.019779928486049175
1772094044237876500,2.35587646484375,-0.1649538308352232,-0.001165965906297788,0.09711129770874977
1772094044247825400,2.365825439453125,-0.06211012695431709,0.0037865921668941154,0.054994595860689874
1772094044257774600,2.375774658203125,0.09954875398874283,0.011559628188028,0.002944090627878904
1772094044267723500,2.3857236328125,0.1511719737201929,0.06949476187948603,-0.02628288063928485
1772094044277672400,2.39567236328125,0.11854746896922588,0.07867148611950688,-0.020413988605886696
1772094044287622400,2.405622314453125,0.1443792448401451,0.02648941322916653,-0.005511310767382383
1772094044297571300,2.4155712890625,0.16353578073084354,-0.00989192330467049,-0.02437280923426151
1772094044307520500,2.4255205078125,0.13733283345997332,-0.005977498940448276,-0.02881912111863494
1772094044317469700,2.4354697265625,0.08564999249577522,0.013453406045376322,-0.05834872859418392
1772094044327418600,2.445418701171875,0.001758241844177246,0.026790912359813228,-0.09109671359434723
1772094044337367600,2.455367431640625,-0.0585936432659626,-0.0002710035276832059,-0.023172201272845267
1772094044347317500,2.4653173828125,-0.06216273392438888,-0.0409472516433103,0.019550942035764456
1772094044357266400,2.475266357421875,-0.05846446392834186,-0.04516205176017247,0.006496084021031856
1772094044367215400,2.48521533203125,-0.024264672684669492,-0.020701774305012077,-0.0012220891408622264
1772094044377164500,2.49516455078125,0.028737434184551238,0.014401980041060596,0.0007167699672281742
1772094044387113500,2.505113525390625,0.0824175864458084,0.036136924185557286,-0.0015483984857797622
1772094044397063400,2.5150634765625,0.12321779886782169,0.04036772558914963,-0.02900032290443778
1772094044407012400,2.525012451171875,0.12232932559549808,0.03823047609843779,-0.052657092823833226
1772094044416961500,2.53496142578125,0.156487031263113,0.031627342373202555,-0.06579188420698047
1772094044426910500,2.544910400390625,0.2179869173645973,0.019032548751425928,-0.08962459521517158
1772094044436859600,2.554859619140625,0.22969372177124023,-0.019795655778143555,-0.06425298420190811
1772094044446808600,2.56480859375,0.25260113462805744,-0.036554309347411613,-0.045994858455657955
1772094044456758500,2.574758544921875,0.15746026020944118,0.011786509446194395,0.07007876774594188
1772094044466707500,2.58470751953125,-0.05420856004953384,-0.0627439770116005,0.08678864113688468
1772094044476656400,2.594656494140625,-0.28555823233425615,-0.03244821660229936,0.0025780337944626805
1772094044486605300,2.604605224609375,-0.2726198403060436,0.06134260404738597,-0.07573036376684904
1772094044496554500,2.614554443359375,-0.1002297219902277,0.07077894277139567,-0.20388664195016026
1772094044506504400,2.62450439453125,0.10352817901372909,0.02928054635161534,-0.16810294251590965
1772094044516453600,2.63445361328125,0.22579905242025852,0.0028326844089664517,-0.021283318786323068
1772094044526402600,2.644402587890625,0.22393793472349643,0.03420154480934143,0.030809418153017756
1772094044536351500,2.6543515625,0.13967325910627842,0.029657608636235816,0.029462241327762602
1772094044546300400,2.664300537109375,0.06880056450366974,0.020951556948153302,0.042743601574748755
1772094044556249300,2.674249267578125,0.03435293597877025,0.005282041189307347,0.049615679301321505
1772094044566199600,2.684199462890625,-0.007290157008171081,-0.018074987731687725,0.012343494874984024
1772094044576148500,2.6941484375,-0.032011341288685796,0.017915084462240338,-0.028667145427316427
1772094044586097400,2.704097412109375,-0.06148001235723495,0.010391493157530202,-0.06944426923468709
1772094044596046300,2.71404638671875,0.005510287854075432,0.004250784745696,-0.06927782662659883
1772094044605995500,2.72399560546875,0.08893909716904162,-0.0037863501382991668,-0.024003975921869276
1772094044615945500,2.733945556640625,0.14360942951142788,-0.006164751441124826,-0.019160481413453816
1772094044625894700,2.743894775390625,0.11651216374933719,0.029574364499305374,-0.06379983360692858
1772094044635843600,2.753843505859375,0.07336977211534977,0.024750227711908518,-0.07628361373543739
1772094044645792500,2.76379248046875,0.08263327502310276,-0.020759879434108734,-0.07043021153211593
1772094044655741400,2.773741455078125,0.0644318479001522,-0.03669428864025976,-0.04555938964784145
1772094044665690400,2.7836904296875,0.056311085286736486,-0.015601222595875151,-0.010563625720888375
1772094044675640600,2.793640625,0.1274263564735651,-0.01587101141400635,0.01716872307434678
1772094044685588700,2.803588623046875,0.1945470050662756,-0.014414159102621487,0.005558510909974575
1772094044695538000,2.813537841796875,0.19824644410610198,0.006548613359290175,0.0011430325552821159
1772094044705486800,2.82348681640625,0.1580605641901493,0.020844831470935604,-0.020257629000395534
1772094044715435800,2.833435791015625,0.12654431294202803,0.034780974965379574,-0.0792668673299253
1772094044725386000,2.843385986328125,0.05977671557068824,0.008356480198586359,-0.05643748814538121
1772094044735335000,2.8533349609375,0.05220306544601917,-0.055012012786371633,0.043391544089466334
1772094044745283800,2.863283935546875,0.04816869536340236,-0.09269407492154277,0.08858283107727766
1772094044755232800,2.873232666015625,0.015312719944119452,-0.11142319744671694,0.05571297326311469
1772094044765181700,2.883181640625,0.02964870381057262,-0.11451213990538381,-0.01483662686496973
1772094044775132000,2.8931318359375,0.002862403693795204,-0.08524569514435716,-0.072677405937016
1772094044785080800,2.903080810546875,-0.07049976963698863,-0.06459434498548507,-0.06642068362981081
1772094044795029800,2.91302978515625,-0.09878361483514309,-0.034927461630827744,-0.07991744019314646
1772094044804979000,2.92297900390625,-0.06174246268570423,-0.029204416942060923,-0.1001595793634653
1772094044814928000,2.932927978515625,-0.0639835196107626,-0.08131000879639759,-0.13752996346727012
1772094044824876800,2.942876708984375,-0.08539104929864406,-0.09479530325080268,-0.06636968409493565
1772094044834827000,2.952826904296875,-0.05005494750142097,-0.124706777050253,0.004077040180563926
1772094044844776000,2.96277587890625,0.04255670070052146,-0.14073807532619684,-0.02639218623265624
1772094044854724900,2.972724853515625,0.11221709690392016,-0.09901269261697307,-0.05777253614142537
1772094044864673800,2.982673828125,0.10253624536693096,-0.03565268433257006,-0.07301452893689274
1772094044874622700,2.992622802734375,0.13301789287030696,0.024280774436099453,-0.09953428707197308
1772094044884572700,3.00257275390625,0.16816344053149224,0.0046502460917923595,-0.08739771294593811
1772094044894521600,3.012521484375,0.1504576879709959,-0.02468109429872129,-0.019420301393419503
1772094044904471000,3.022470947265625,0.15104337890446184,-0.01820957389678806,0.022028584195673464
1772094044914420000,3.032419921875,0.19749299539029597,-0.010737694513006135,0.018057196346670388
1772094044924369000,3.042368896484375,0.2670522693067789,-0.006349885049951262,0.015753303318470715
1772094044934317800,3.05231787109375,0.22809388535916805,0.0359818706211634,-0.007002864499390125
1772094044944267800,3.062267822265625,0.13888766168653965,0.09851229621362873,-0.049876083803176874
1772094044954216700,3.072216796875,0.04042494936883449,0.08606831837254576,-0.033658816234767436
1772094044964166000,3.082165771484375,-0.028262802410125732,0.0016458949103485792,0.0277684430219233
1772094044974114800,3.09211474609375,-0.01169043779373169,-0.07777370616272092,0.05528612615317106
1772094044984063700,3.102063720703125,0.030143209329247474,-0.07305475134942681,0.013970949946343897
1772094044994013700,3.112013671875,0.04252805912792682,-0.044906862289551645,-0.019869506465643644
1772094045003963000,3.121962890625,-0.012986322823166847,-0.019840864893049,-0.04394903184175491
1772094045013911800,3.131911865234375,-0.11189677890837192,0.04489659662386402,-0.022849691320210693
1772094045023861000,3.141861083984375,-0.1656026501327753,0.06986290563871152,0.0006982113972306251
1772094045033810000,3.151809814453125,-0.17313363015949726,0.060617111917585134,0.04570128233656287
1772094045043758800,3.1617587890625,-0.06346797130405903,0.07069016850939952,-0.00634907676577568
1772094045053708800,3.171708740234375,-0.007379004335403442,0.06833018877925351,-0.10078720974251627
1772094045063657700,3.18165771484375,0.03907879545688629,0.061959101111069316,-0.05678630158305168
1772094045073606700,3.191606689453125,0.1505710852175951,0.06830422322093509,0.014181231696158647
1772094045083555800,3.201555908203125,0.27714462425410746,0.032990616383310405,0.028374007699638604
1772094045093505000,3.211505126953125,0.3860159178614616,0.017137359821703283,-0.008390081074088812
1772094045103454700,3.221454833984375,0.3850456115245819,0.03107315625627525,-0.045616672793030735
1772094045113404000,3.23140380859375,0.2510217564821243,0.015884921208349986,-0.045470688451081515
1772094045123352800,3.241352783203125,0.060223290294408795,-0.013056976906582713,-0.009050006287544965
1772094045133301800,3.2513017578125,-0.09473463170528411,-0.015675397510360924,-0.031520635162293906
1772094045143251000,3.2612509765625,-0.11620119810402392,-0.003418137880414724,-0.07300532271713019
1772094045153199900,3.271199951171875,-0.07454699920117855,-0.016587306457199157,-0.04662321948707104
1772094045163149800,3.28114990234375,-0.04154138617813587,-0.008290593621833249,-0.026415567108243703
1772094045173098800,3.2910986328125,-0.020832944670319556,0.011085612901533022,-0.016473288156092166
1772094045183047700,3.301047607421875,0.004636427628993987,0.011875493770744651,-0.01843099809512496
1772094045192996900,3.310996826171875,0.015953940457105634,-0.008948062016721815,-0.05249678769558668
1772094045202946000,3.320946044921875,0.042592941057682035,-0.02584184060720727,-0.07003872799649834
1772094045212895700,3.330895751953125,0.051427404898405076,-0.044689018287789074,-0.045335079372674225
1772094045222845000,3.340844970703125,0.029949732583761213,-0.01879535616179928,-0.05839461356252432
1772094045232793900,3.3507939453125,-0.027492987081408498,-0.0002489606592338532,-0.060016515675932164
1772094045242742800,3.36074267578125,-0.046619712355732916,0.015379602034715934,-0.029780075105279684
1772094045252691700,3.370691650390625,0.05822188734412193,-0.006822046306077391,-0.004223755174875259
1772094045262640600,3.380640625,0.20263211184442043,-0.024347008072724566,-0.02290083698555827
1772094045272590800,3.3905908203125,0.30111411338448524,0.014641944543085992,-0.031160131286829706
1772094045282539800,3.400539794921875,0.2772515917599201,0.021163975856127216,-0.023188567885756493
1772094045292488700,3.41048876953125,0.20826807190477847,0.014140123367635532,0.03149038615450263
1772094045302438000,3.42043798828125,0.1219710136771202,0.03583525609155185,0.01953457542285323
1772094045312386800,3.43038671875,0.06261047769188881,0.031818923989124594,0.022827333357930184
1772094045322337000,3.4403369140625,0.044102176576852795,-0.0029967706631869075,0.015022797086834907
1772094045332286000,3.450285888671875,0.0022246903121471403,-0.019609038031706584,-0.025453736338764427
1772094045342235000,3.46023486328125,-0.02593523624539375,-0.014369813070818782,-0.0282673324547708
1772094045352183800,3.470183837890625,-0.013006781089305877,-0.01409936209898442,-0.005300298365205526
1772094045362132700,3.4801328125,0.044242461830377576,-0.032572116976603865,-0.004267155925184488
1772094045372082700,3.490082763671875,0.09752046303153038,-0.02831366494768299,0.004104074317961931
1772094045382032000,3.500031982421875,0.11635784997045993,-0.013863123924005776,-0.02859583375677466
1772094045391980800,3.509980712890625,0.08580489079654216,-0.01564578782338649,-0.06008227438852191
1772094045401929700,3.5199296875,-0.003967734587192536,0.0051091779735870655,-0.08500482646003366
1772094045411879000,3.52987890625,-0.10358312407135963,0.00721953945737332,-0.07455737446472048
1772094045421827800,3.539827880859375,-0.13612170410454272,0.028237923697195945,-0.011640168911218643
1772094045431777800,3.54977783203125,-0.030077742877602575,0.013981124280486255,0.009378799850493669
1772094045441727000,3.55972705078125,0.05572305626571178,-0.048174595381226384,0.005330255112051963
1772094045451676000,3.569676025390625,0.1296703360080719,-0.03200640938524157,-0.003020516864955425
1772094045461624800,3.579624755859375,0.12957681250572203,-0.018691201667580752,-0.03776566703170538
1772094045471573800,3.58957373046875,0.06595920359790325,0.007774086333904415,-0.0324555779248476
1772094045481523700,3.599523681640625,0.056336804249882695,0.013388601747434585,-0.0454179353505373
1772094045491472600,3.60947265625,0.050696168014407156,-0.01195628565568477,-0.039249475848674775
1772094045501421800,3.619421875,0.030933482924103736,-0.046391146030556406,0.0017040274389088152
1772094045511371000,3.62937109375,0.018623451927304267,-0.01635207292921841,0.0007381050162017345
1772094045521320000,3.63931982421875,0.010738251635432242,0.005744991659093648,-0.05396028437688946
1772094045531270000,3.649269775390625,0.0746142192184925,-0.029173651911038902,-0.05350976413041353
1772094045541218800,3.65921875,0.15809738906919954,-0.07420039598690345,-0.028234745359420773
1772094045551167700,3.669167724609375,0.17457096948623657,-0.09830775921801105,-0.035018852541595695
1772094045561117000,3.679116943359375,0.10729600711464882,-0.06635063233459368,-0.03250876941680908
1772094045571065900,3.68906591796875,0.07645078699588775,-0.004584788773301989,-0.04920286071673036
1772094045581014800,3.699014892578125,0.04857786068618297,0.053642943789716804,-0.09939838573262094
1772094045590964700,3.70896484375,-0.03958031523823738,0.06404880339931696,-0.07198767010718583
1772094045600913700,3.71891357421875,-0.1272124214619398,0.031897761378996074,0.03762435886487365
1772094045610862800,3.72886279296875,-0.1101987428188324,-0.00585484524173662,0.06477335481420159
1772094045620812000,3.73881201171875,-0.03294423822462558,-0.05236914272792637,0.05347220859900117
1772094045630761000,3.748760986328125,0.07986731744110584,-0.061125006640795614,0.04305047556683421
1772094045640711000,3.7587109375,0.14677695363163948,-0.0007827752749901265,0.025319734695553778
1772094045650659800,3.768659912109375,0.16438099938333034,0.05189624625286087,-0.008507277712970971
1772094045660608800,3.77860888671875,0.1523351722806692,0.06929291459787637,-0.022355331932008265
1772094045670557700,3.7885576171875,0.07945289142131805,0.05424801527708768,-0.03282660319432616
1772094045680507000,3.7985068359375,0.023370938715338706,0.04645815598531626,-0.015140139856189488
1772094045690457000,3.80845703125,0.039815293037891386,0.02693006510217674,-0.0415834717541933
1772094045700406300,3.81840625,0.10558101989030838,0.03791932322345674,-0.06740136523023248
1772094045710355200,3.828355224609375,0.15218144302368164,0.03929337892248295,-0.06538827184215187
1772094045720304000,3.83830419921875,0.13779226766526698,0.02028441654262133,-0.029717385132610796
1772094045730253300,3.84825341796875,0.11435235536694525,-0.032004281360236926,0.0027064824797213075
1772094045740202200,3.8582021484375,0.07198036358356476,-0.06860710602449253,-0.008136690834909676
1772094045750152200,3.868152099609375,0.04385843094885349,-0.0663078343724832,-0.015629676938802003
1772094045760101400,3.878101318359375,0.07292728904485703,-0.014284436342306434,-0.038194998359680175
1772094045770050300,3.88805029296875,0.09320844505131244,-0.013791364728892221,-0.05983911328241229
1772094045779999200,3.897999267578125,0.13982348123192787,-0.025603099947888404,-0.034898294901847836
1772094045789948200,3.9079482421875,0.17793313939571379,-0.013242252079304307,-0.0026759412109851836
1772094045799898000,3.917898193359375,0.1518517726778984,-0.010549487597681581,-0.013463731076568364
1772094045809847000,3.927846923828125,0.14047697670459747,-0.014451847064774483,-0.031113807927072048
1772094045819796000,3.9377958984375,0.07838380088508129,0.021710001499485224,0.004642565108835697
1772094045829745400,3.947745361328125,0.11502397101819514,0.07729675456704571,0.04089095944538712
1772094045839694300,3.9576943359375,0.06685644469857216,0.1078026231962256,-0.09468158634379506
1772094045849643300,3.967643310546875,-0.09526187044978142,0.13418403230654075,-0.16173004648312925
1772094045859593200,3.97759326171875,-0.218173964369297,0.11258297107424586,-0.09441343692690134
1772094045869542100,3.987542236328125,-0.26658289822936054,0.017362967004813254,0.025988135476410386
1772094045879491000,3.997490966796875,-0.18990648578405378,-0.004596570542640984,0.07280746205747127
1772094045889440300,4.007440185546875,-0.13672785330414772,0.0020615173733793198,0.05728387584164738
1772094045899389200,4.01738916015625,-0.07450491362512111,0.03393321272935718,0.04199629033878445
1772094045909339100,4.027339111328125,0.03930149829685688,0.03836847349675372,0.0025115444295108315
1772094045919288000,4.0372880859375,0.13156594049632547,0.03804726045206189,-0.07723638441562652
1772094045929237200,4.0472373046875,0.18585107291340827,0.031040505228843537,-0.10094970682784915
1772094045939186200,4.057186279296875,0.20989479632377622,-0.0136514813341666,-0.08579875331670045
1772094045949135400,4.06713525390625,0.22725626549124717,-0.03311793255740776,-0.06003375907167792
1772094045959085300,4.077085205078125,0.19253917237520216,-0.03605006788601167,-0.05139014162793755
1772094045969034200,4.0870341796875,0.11207798069417475,-0.015482176493201404,-0.05127133755385875
1772094045978983200,4.096983154296875,0.11106675782501697,-0.02233899271856062,-0.03201119515821337
1772094045988932000,4.10693212890625,0.13224749301970004,-0.028050191705906762,-0.004513531901687383
1772094045998881000,4.116881103515625,0.12488193268775939,-0.026547824318939817,-0.009998393053561448
1772094046008830200,4.126830322265625,0.12216565946638583,-0.028844474755600095,-0.010173018968105315
1772094046018780200,4.1367802734375,0.15366729766726492,-0.038170101380441336,-0.019519670114666224
1772094046028729000,4.14672900390625,0.16422434751689433,-0.008822371544130146,-0.06508461272045969
1772094046038678300,4.15667822265625,0.1619154860526323,0.025350367295835164,-0.09135799487903713
1772094046048627200,4.166627197265625,0.09709493109583854,0.028964813199639318,-0.10068930232599377
1772094046058576100,4.176576171875,0.008501286363601684,0.01549332807487808,-0.05557487996667623
1772094046068526300,4.1865263671875,-0.09495908811092377,-0.03401367582073435,0.013025924181193112
1772094046078475300,4.196475341796875,-0.14933248333334923,-0.038710994190955535,0.029393998397141692
1772094046088424200,4.206424072265625,-0.10438684166967868,-0.03870718566551804,-0.00010156067833304404
1772094046098373000,4.216373046875,-0.011644845086336135,-0.046038204407040026,-0.029045331089943647
1772094046108322000,4.226322021484375,0.10351298144459724,0.003895317804953083,-0.03205284234285354
1772094046118272300,4.236272216796875,0.1349023914426565,0.057781833692733195,-0.04306406570076942
1772094046128221200,4.24622119140625,0.11644961990714073,0.0506367477110587,-0.07523775794431567
1772094046138170400,4.25617041015625,0.05920563768446445,0.04689462030697614,-0.07770356353595853
1772094046148119300,4.266119384765625,0.029362288084626195,0.03734048215588554,-0.03483136714547872
1772094046158068200,4.276068115234375,-0.005531915163993835,0.0055877826702315355,-0.006684446199983358
1772094046168018200,4.28601806640625,0.036465982609987256,-0.008736702554672956,0.012288111425936221
1772094046177967400,4.29596728515625,0.10051613771617413,0.001058587408531457,0.00724924047589302
1772094046187916300,4.305916259765625,0.19339958859682083,-0.014668202362349256,0.017950082710385323
1772094046197865200,4.315865234375,0.29768939963281155,-0.07532098838151433,0.029127310284972188
1772094046207814100,4.325814208984375,0.34189094493091104,-0.03851635753484443,0.02195537282899022
1772094046217764000,4.33576416015625,0.2863578582793474,0.08228268975345418,-0.0073632222443819045
1772094046227713000,4.345713134765625,0.18736907626092433,0.1582627539650537,-0.0152104286134243
1772094046237662200,4.355662109375,0.07207388708591461,0.16747958645317704,-0.07203633155450224
1772094046247611400,4.365611328125,-0.03380933062136173,0.11957765226718038,-0.03935308235362172
1772094046257560300,4.375560302734375,-0.1209732348114252,0.0649931533110328,-0.005500204851478338
1772094046267509200,4.38550927734375,-0.15578502047359943,-0.038137075893674044,0.025534400359541177
1772094046277459200,4.395459228515625,-0.14246376660764218,-0.10993574450109153,0.06130392513796687
1772094046287408000,4.405408203125,-0.09802782803177833,-0.10588962918175383,0.017813304588198662
1772094046297357300,4.415357421875,-0.04516892902553081,-0.09137912899861111,-0.06175766025483608
1772094046307306200,4.42530615234375,-0.020920038431882858,-0.06282552694836631,-0.08704144685417413
1772094046317255200,4.435255126953125,-0.035865678629279134,-0.022765848961658775,-0.11260916496142745
1772094046327205000,4.445205078125,-0.06389993298053741,-0.010787917729746549,-0.1284869714424014
1772094046337154000,4.455154052734375,-0.062113049563765524,-0.032136282842606306,-0.09654124273583292
1772094046347103200,4.465103271484375,-0.032710429468750954,-0.07009265014082193,-0.04956219554841518
1772094046357052200,4.47505224609375,0.028296120157837865,-0.06947676499849186,-0.03672711776420474
1772094046367001300,4.48500146484375,0.06129354987442493,-0.03437779642539099,-0.04229249680638313
1772094046376951300,4.494951416015625,0.11693477307558059,-0.03384937037080526,-0.03204787390679121
1772094046386900200,4.504900146484375,0.1660024631053209,-0.03149083367907442,-0.02323094572275877
1772094046396849200,4.51484912109375,0.19212123922407626,-0.03749708835654892,-0.02070800311639905
1772094046406798000,4.524798095703125,0.1978624132245779,-0.02539385937768966,-0.007277882048487663
1772094046416747000,4.5347470703125,0.1764694965839386,0.004614444126049056,-0.008845569756627081
1772094046426697200,4.544697265625,0.16695698735117911,-0.00013243074063211678,-0.024909254198521375
1772094046436646100,4.554646240234375,0.13154372866451738,-0.015140432117134332,-0.014665800342708825
1772094046446595000,4.564594970703125,0.07673837176561356,-0.03197371269203722,-0.01405453657656908
1772094046456544300,4.574544189453125,0.023176292926073074,-0.02781775292321108,-0.022334727535396812
1772094046466493200,4.5844931640625,-0.01582125398814678,-0.015304591436590999,-0.02633548760935664
1772094046476443400,4.594443359375,-0.029783728367090225,-0.02760204607960768,-0.018136837454140187
1772094046486392300,4.604392333984375,-0.022120061871409413,-0.03764879918638617,-0.017021715819090604
1772094046496341200,4.61434130859375,0.019927520263195036,-0.0491614966598805,-0.015411211882531643
1772094046506290200,4.624290283203125,0.06309387729465961,-0.053936063251085575,-0.04298939302936196
1772094046516239000,4.634239013671875,0.08445756784081458,-0.03284610247923992,-0.06356865519955754
1772094046526188000,4.64418798828125,0.08336042025387287,-0.021363964540790766,-0.05282222025766969
1772094046536138200,4.65413818359375,0.033240006300807,-0.014372114625759422,-0.05389817892611026
1772094046546087200,4.664087158203125,-0.04028817124664783,-0.004439343287469819,-0.03656199033036828
1772094046556036400,4.674036376953125,-0.042755438143014905,0.0006392842842265963,-0.020616233179718255
1772094046565985300,4.6839853515625,-0.017929039922356605,0.00237479370678775,-0.017259470097720622
1772094046575934200,4.693934326171875,0.004676175117492676,0.01775898971823044,-0.03322773134112358
1772094046585884200,4.70388427734375,0.08048749516606331,0.02192319672559388,-0.013608400244265795
1772094046595833300,4.713833251953125,0.18768939425647257,0.018956273211399092,-0.00965220996439457
1772094046605782300,4.7237822265625,0.21967618562579153,0.03624959077979438,-0.016947481539100407
1772094046615731200,4.733731201171875,0.1663520071953535,0.0358343701755628,-0.018427052572369575
1772094046625680100,4.74368017578125,0.10600129112899302,0.034832545322412624,-0.009653817399591208
1772094046635630000,4.753630126953125,0.09116729461252689,0.02257245441456325,-0.009808861830830573
1772094046645579000,4.7635791015625,0.11703063466548919,0.029558440844388675,-0.02743015097826719
1772094046655528200,4.773528076171875,0.13831307666897774,0.039152006823569535,-0.03804740658253431
1772094046665477400,4.783477294921875,0.12783493727445602,0.04497490429077297,-0.027577596624940633
1772094046675426300,4.79342626953125,0.1390717860817909,0.011480366106471046,-0.025760610330849885
1772094046685376300,4.803376220703125,0.13290449562370776,-0.02817000042698346,-0.02102247589305043
1772094046695328500,4.81332861328125,0.1010918917775154,-0.07177223725821823,-0.0299077931381762
1772094046705277400,4.82327734375,0.03996785325109958,-0.07973955374243669,-0.049325610313564534
1772094046715226400,4.833226318359375,0.007082651737332343,-0.0588079984026961,-0.07337430215999484
1772094046725175300,4.84317529296875,-0.0317062208622694,-0.008851798568014055,-0.08920710045546293
1772094046735125500,4.85312548828125,-0.02691664849817753,0.03687900212397799,-0.10286167792901396
1772094046745074400,4.863074462890625,-0.07840601271688938,0.015856754559790714,-0.07421236041933298
1772094046755023400,4.8730234375,-0.0932061069637537,-0.03294174487343989,0.0083306059718132
1772094046764972500,4.88297265625,-0.08556991299688815,-0.04478989397953264,0.02078779035434127
1772094046774921500,4.89292138671875,-0.07752864536046981,-0.043850950895296406,-0.013669921173155308
1772094046784871400,4.902871337890625,-0.02457271572053432,-0.04633833813108504,-0.02156198959723115
1772094046794820600,4.912820556640625,0.03915887495577335,-0.03204020205698907,-0.032575989434123036
1772094046804769500,4.92276953125,0.13167524608969688,0.007978194071259348,-0.05396642185673117
1772094046814718500,4.932718505859375,0.19922201113998889,0.03554417332364246,-0.06854469004645944
1772094046824667400,4.94266748046875,0.19509236398935317,0.03521417418429628,-0.09380904129296541
1772094046834617300,4.952617431640625,0.10194120208323001,0.012489269154379144,-0.05235971731245517
1772094046844566300,4.962566162109375,0.021921324428915975,-0.023231804239284247,0.015644728377461434
1772094046854515500,4.972515380859375,0.007706336593627929,-0.06475785585097037,0.04030497625097632
1772094046864464600,4.982464599609375,0.07730009730160235,-0.053750870276754716,0.031094810965657232
1772094046874413600,4.99241357421875,0.17454583504498003,0.01787119965474121,-0.021938129433244465
1772094046884363500,5.002363525390625,0.19692191750407217,0.05904346939269453,-0.043327977333962917
1772094046894312400,5.0123125,0.14419862757623195,0.06273906337446533,-0.04090922575443983
1772094046904261400,5.022261474609375,0.059470426100492475,0.029560550603084264,-0.009189999280124901
1772094046914210600,5.03221044921875,0.00455050291121006,-0.015565187734691425,0.022867373107373714
1772094046924159500,5.042159423828125,0.013561492362618445,-0.04412353902528993,0.017868103515356778
1772094046934109400,5.052109375,0.047718613508343694,-0.05621527849575504,-0.00832782949283719
1772094046944058400,5.062058349609375,0.06582476356327534,-0.032594411006802694,-0.02921235821992159
1772094046954007300,5.07200732421875,0.04510813874900341,-0.02536329984264448,-0.034339053583890194
1772094046963956500,5.08195654296875,0.024002806878089904,-0.02549663476557471,-0.0056175476208329194
1772094046973905700,5.09190576171875,0.005952770924568176,-0.020215534291183574,-0.010700988364964723
1772094046983855400,5.10185546875,0.00578092148900032,-0.003617916502524167,-0.020943127046525477
1772094046993804500,5.111804443359375,0.010022796842455862,0.009719484780635685,-0.00460018727183342
1772094047003753500,5.12175341796875,0.006174889242649078,-0.0019031210744287817,0.03140519208908081
1772094047013702400,5.131702392578125,0.03611936112940311,-0.016426562937535343,0.039112113204598425
1772094047023651300,5.1416513671875,0.07327858670055866,-0.03269841023739427,0.01664791407063603
1772094047033601500,5.1516015625,0.10892916127443313,-0.03347363239359111,-0.0015174188256263732
1772094047043550500,5.161550537109375,0.14295359595119952,-0.021991640585614366,-0.012033844403922557
1772094047053499400,5.17149951171875,0.17994915539324283,-0.01315274716494605,-0.03367167571634054
1772094047063448300,5.1814482421875,0.16176292583942412,0.0009798961491324007,-0.036787177388370035
1772094047073397500,5.1913974609375,0.12075696171224116,-0.03372343330304138,0.010555296283960342
1772094047083347500,5.201347412109375,0.08930909952521324,-0.05248186412109062,0.02515489952266216
1772094047093296600,5.211296630859375,0.057443304187059396,-0.0525669759881217,-0.01094122686162591
1772094047103245600,5.22124560546875,0.041564182531833645,-0.03128103598644957,-0.057682958161830895
1772094047113194500,5.231194580078125,0.023966566520929336,-0.02261527977613732,-0.09875205065310001
1772094047123143400,5.241143310546875,-0.0078688336789608,-0.03485117695764638,-0.11557225255072116
1772094047133093400,5.25109326171875,-0.010686813709139823,-0.06512361129028722,-0.11003814542964101
1772094047143042600,5.26104248046875,-0.0005886135429143905,-0.09798190653081983,-0.07727423220798373
1772094047152991500,5.270991455078125,0.008522913673520087,-0.11802320763310417,-0.02307239416018128
1772094047162940400,5.2809404296875,-0.013838555738329886,-0.08199006348242983,-0.05226633994057774
1772094047172889300,5.290889404296875,-0.0841693985491991,-0.021168679430708288,-0.08849719862043857
1772094047182839300,5.30083935546875,-0.11502455554008484,-0.01035393762611784,-0.07004749582484364
1772094047192788500,5.31078857421875,-0.03912731077373027,-0.061110306828585446,-0.047209202681481835
1772094047202737700,5.320737548828125,0.07220715807676314,-0.07339022581491153,-0.012367314141988753
1772094047212686600,5.3306865234375,0.18910685983896255,-0.05130024855451192,-0.01093684294745326
1772094047222635500,5.340635498046875,0.2415665303945541,0.0023387862450676036,-0.06568900835439563
1772094047232585500,5.35058544921875,0.18710370332300663,0.06710989430325572,-0.10518310661390423
1772094047242534400,5.360534423828125,0.09057634298205375,0.10691066105887294,-0.1113923365175724
1772094047252483300,5.3704833984375,0.08555705351531505,0.06277118011235724,-0.038842064091563225
1772094047262432300,5.380432373046875,0.12509820578694342,-0.009016980800777672,0.03249517928287387
1772094047272381400,5.39038134765625,0.12373159360885619,-0.07228461179372389,0.027197803527116773
1772094047282331400,5.400331298828125,0.11054770238697528,-0.06262344220473896,0.02583645204603672
1772094047292280300,5.4102802734375,0.10824468614161013,-0.014157951285270974,-0.019324585933983326
1772094047302229500,5.4202294921875,0.051667058873176575,-0.0019403158462373538,-0.09354322996363043
1772094047312178400,5.430178466796875,0.01965805567204952,0.029735902603412977,-0.10713789394348859
1772094047322127400,5.44012744140625,0.025088848549127577,0.05933665735272225,-0.08149550316482781
1772094047332077600,5.45007763671875,0.026165537869930266,0.027823780805198473,-0.07195829788222909
1772094047342026500,5.460026611328125,0.04145136980712413,-0.0034216724112164226,-0.04676934995949268
1772094047351975400,5.469975341796875,0.010270634123682976,-0.020112494041817263,-0.01775017622411251
1772094047361924400,5.47992431640625,-0.020993688189983366,-0.054172082230355585,-0.012464929297566414
1772094047371873300,5.489873291015625,0.012484218519926071,-0.08466184910810552,-0.0065676879525184625
1772094047381823500,5.499823486328125,0.08639233529567718,-0.0959267275666818,-0.0212875565700233
1772094047391772400,5.5097724609375,0.0893669671922922,-0.047154759947350244,-0.056985915808379646
1772094047401721600,5.5197216796875,0.02800093660354614,0.018229621170973404,-0.08085399039089679
1772094047411670500,5.52967041015625,-0.0033212533771991726,0.04815093137784861,-0.0711401133671403
1772094047421619500,5.539619384765625,0.013214286360144614,-0.01441894944217056,-0.03497428274750709
1772094047431569400,5.5495693359375,0.03688625384867191,-0.051460156390536575,-0.022117431522905826
1772094047441518600,5.5595185546875,0.060844052541255945,-0.05279206258142367,-0.013235329148173332
1772094047451467500,5.569467529296875,0.050064299851655954,-0.029177633966412393,-0.04161152880489826
1772094047461416400,5.57941650390625,0.0693254651606083,-0.035393613271275534,-0.05671309021636843
1772094047471366400,5.589366455078125,0.1474953310340643,-0.03493005088013597,-0.0683013828098774
1772094047481315300,5.5993154296875,0.22438100231587885,-0.048868678592611105,-0.07734569000899791
1772094047491264300,5.60926416015625,0.21562895606160162,-0.05564279410373419,-0.06097630061879754
1772094047501213400,5.61921337890625,0.1351777012526989,-0.037394349501281975,-0.011646014130115508
1772094047511162600,5.62916259765625,0.017193711385130882,-0.02121086547146551,0.02958192218467593
1772094047521111600,5.639111572265625,-0.026730770537257195,-0.006876306377118453,0.028640549681335687
1772094047531061500,5.6490615234375,-0.03732289170026779,-0.005931171014113351,0.006345861895382404
1772094047541010400,5.659010498046875,-0.03218026811480522,-0.02219520033369772,0.002602729844301939
1772094047550959400,5.66895947265625,0.04316401894390583,-0.005457726549776271,-0.009191022193431854
1772094047560908500,5.678908447265625,0.0871364316612482,-0.006499983878014609,-0.043071226093918086
1772094047570858500,5.6888583984375,0.08358663022518158,-0.0023022947261575606,-0.032122984969615936
1772094047580807400,5.698807373046875,0.10492577085196972,0.005695992285059764,-0.04945552030354738
1772094047590756400,5.70875634765625,0.09364917455613612,-0.01138770112064667,-0.05759527987837791
1772094047600705300,5.718705322265625,0.0761439130038023,-0.0398802115002647,-0.010505611923336981
1772094047610654500,5.728654541015625,0.006055646777153015,-0.026347515973867846,0.0029022973127663136
1772094047620604400,5.7386044921875,-0.047938393738865846,-0.014098138256277887,-0.010382716196030378
1772094047630553600,5.7485537109375,-0.07861176442205906,-0.026545148304663597,0.007687924154102802
1772094047640502500,5.75850244140625,-0.045859833899140355,-0.03928874841313809,0.03530497600659728
1772094047650451500,5.768451416015625,-0.00616261428296566,-0.012734375622402877,0.0069889821045100685
1772094047660400400,5.778400390625,0.0510252538383007,0.06546136447782627,-0.0467357399508357
1772094047670349300,5.788349365234375,0.08375029635429382,0.10079586797300726,-0.06856251796409488
1772094047680299500,5.798299560546875,0.09548691137731075,0.06441433964292519,-0.042716129045933485
1772094047690245000,5.8082451171875,0.12132277890145778,0.0072631868028547614,0.006401683735847472
1772094047700194300,5.8181943359375,0.10954875447750091,-0.06568309920341707,0.026232173365354536
1772094047710143200,5.828143310546875,0.10123042346537113,-0.08400501090087928,0.05605798730850219
1772094047720093200,5.83809326171875,0.07260054130852223,-0.046634791193855926,0.04184153816848993
1772094047730042000,5.8480419921875,0.11509469816684723,-0.021048359252978117,-0.012736731976270675
1772094047739991300,5.8579912109375,0.17824001338779924,0.02909390120571479,-0.05674290083274245
1772094047749940200,5.867940185546875,0.18381927482485771,0.06256488498449325,-0.09486512621715665
1772094047759889400,5.877889404296875,0.1309112759798765,0.0752305610185489,-0.07864829704016446
1772094047769839400,5.88783935546875,0.055172436645627015,0.048113448911672456,-0.007600684262067079
1772094047779788300,5.897788330078125,-0.03584755845069885,-0.018207929928973316,0.03812690155953169
1772094047789737200,5.9077373046875,-0.0856897399842739,-0.043970723083755,0.0768731040611863
1772094047799686100,5.91768603515625,-0.08591711899936198,-0.028502310254424807,0.05510521662831306
1772094047809635000,5.927635009765625,-0.054665071645379065,-0.0017435831311624495,-0.0017047580912709236
1772094047819585300,5.937585205078125,0.004908230307698249,0.009599904388422146,-0.028034838873147963
1772094047829534200,5.9475341796875,0.08326631222963332,0.017697770183440296,-0.021215660377591847
1772094047839483100,5.957483154296875,0.13449907133877276,0.02253347411104478,-0.04017565078288317
1772094047849432300,5.967432373046875,0.1293956107199192,0.03767275545070879,-0.056079760748893016
1772094047859381200,5.97738134765625,0.12362053444981574,0.04501797624751925,-0.043379415260255336
1772094047869331500,5.98733154296875,0.0905786810696125,0.02464957121587358,-0.009338175579160451
1772094047879280400,5.9972802734375,0.053202013355493544,0.0002824428037274629,-0.006409136389940976
1772094047889229300,6.007229248046875,0.052880526316165924,-0.002116526363091543,-0.024443536382913588
1772094047899178200,6.01717822265625,0.09261924698650836,0.03680373579752631,-0.047928895258158445
1772094047909127200,6.027127197265625,0.09727847096920013,0.018527763867331667,-0.08209946040734649
1772094047919077000,6.0370771484375,0.07834697600603104,0.02389927343837917,-0.07340893508195877
1772094047929026000,6.047026123046875,0.038381460842490195,0.07791255751098505,-0.06672521953433752
1772094047938975200,6.056975341796875,0.014357611176371573,0.024383851218083872,-0.04880275548323989
1772094047948924400,6.06692431640625,0.009202128109335898,-0.060209992421418425,-0.07167217441722751
1772094047958873300,6.076873291015625,0.07374035899341105,-0.044560953195020556,-0.06078413904756307
1772094047968823300,6.0868232421875,0.10137889202535152,-0.04261175535600632,-0.05712839301899075
1772094047978772200,6.096772216796875,0.13861410544216632,-0.04258533313996158,-0.08826996573582291
1772094047988721200,6.10672119140625,0.14223755663633345,-0.02879527445216663,-0.06458733072280884
1772094047998670300,6.11667041015625,0.08958148672580718,-0.010518845864245667,-0.06303674027994274
1772094048008619300,6.126619384765625,0.007166822889447212,-0.0018474362312816083,-0.05638093565255403
1772094048018569200,6.1365693359375,-0.04214461276829243,0.002463430971466005,-0.06808905523344874
1772094048028518100,6.14651806640625,-0.07705576715171336,-0.010246568261506035,-0.0807514067992568
1772094048038467000,6.156467041015625,-0.11195230848789214,-0.038989062213664875,-0.04046761946678162
1772094048048416300,6.166416259765625,-0.1064730002939701,-0.03890652589621022,-0.0004440905056893825
1772094048058365400,6.176365478515625,-0.050177697098255154,-0.03689809955009259,0.029884704523533583
1772094048068315400,6.1863154296875,0.059033788248896595,-0.0008771207612473517,0.016644699200242755
1772094048078264300,6.196264404296875,0.11660159559845924,0.03801047210562974,-0.026551468447595834
1772094048088213200,6.206213134765625,0.1662520539522171,0.04745232725497335,-0.04651259871944785
1772094048098162200,6.216162109375,0.16068214486539362,0.02707598551204428,-0.03479980296343565
1772094048108111000,6.226111083984375,0.1435638368040323,0.03226729794428684,-0.011676117007434367
1772094048118061300,6.236061279296875,0.12310615518689155,0.036345899894274766,0.0004174947597086429
1772094048128010200,6.24601025390625,0.11935410917699336,0.024040956064546478,0.017310323502123356
1772094048137959200,6.255959228515625,0.10423194336891174,-0.019782531435089186,0.008220569726079702
1772094048147908000,6.265908203125,0.07529109556674957,-0.031157089946372434,-0.000583498976379633
1772094048157857300,6.275857177734375,-0.0016460136413574218,-0.05913798840888775,0.01323883627951145
1772094048167807200,6.28580712890625,-0.055936406755447386,-0.05155251998226158,0.018583704438805578
1772094048177756400,6.29575634765625,-0.10281798491775988,0.0511003557679709,-0.013625351379066704
1772094048187705300,6.305705322265625,-0.06980652667582035,0.10773527531474827,-0.025809564039111135
1772094048197654300,6.315654296875,0.011984452304244041,0.09614353952198289,-0.03248465788885951
1772094048207603200,6.325603271484375,0.08394669570922851,0.057387719808612014,-0.07667772761955857
1772094048217553200,6.33555322265625,0.07639993359148502,-0.006329668812407181,-0.07713423921540379
1772094048227502300,6.34550244140625,0.05956219603717327,-0.048387717542098835,-0.04666559732407331
1772094048237451300,6.355451171875,0.037572482547163964,-0.076255237024324,-0.018058365390449763
1772094048247400200,6.365400146484375,0.042182022169232364,-0.0846821155779995,-0.03754647132307291
1772094048257349400,6.375349365234375,0.05372983662188053,-0.04488749086880125,-0.07415463888272643
1772094048267299000,6.385299072265625,0.10560264720022677,-0.005194572968408465,-0.0650825668938458
1772094048277248300,6.395248291015625,0.17910335221886634,0.03377393964757211,-0.0767144063681364
1772094048287197400,6.405197509765625,0.17870295472443104,0.04845673679085448,-0.11135346581190823
1772094048297146400,6.415146484375,0.0929401495039463,0.06828112547313794,-0.10418839648813008
1772094048307096300,6.425096435546875,0.03928980785906314,0.04249625748386606,-0.03712839204147458
1772094048317045200,6.435045166015625,-0.028299627289175986,-0.01815826383465901,0.006697597942501306
1772094048326994200,6.444994140625,-0.045616088271141046,-0.04954346344848163,0.0513040707796812
1772094048336943000,6.454943115234375,0.030652327895164488,-0.005555113376490771,0.0118370066575706
1772094048346892300,6.464892333984375,0.09954232424795627,-0.001689834516774863,-0.025915800892561673
1772094048356842200,6.47484228515625,0.15479893204569817,0.006806081551965325,-0.003211363261938095
1772094048366791200,6.484791259765625,0.17998831835985182,0.02233974163723178,-0.010142039307951926
1772094048376740000,6.494739990234375,0.1689957997024059,0.004763278012210503,-0.009933364993333816
1772094048386689300,6.504689208984375,0.10032850618958472,0.008034847028786317,-0.0283327989064157
1772094048396638200,6.51463818359375,0.02608253576159477,0.03094141050223261,-0.020815116752684115
1772094048406588400,6.52458837890625,-0.05455927318334579,0.006003560396889224,-0.0076342942707240576
1772094048416537300,6.534537353515625,-0.06523965715169906,-0.0054802945746108885,0.019839549718797207
1772094048426486300,6.544486328125,-0.0490823030769825,-0.020434392073098568,0.04366261611580848
1772094048436435200,6.554435302734375,0.06167173553705215,-0.024561463674157857,0.032297903145104646
1772094048446384000,6.564384033203125,0.19113982697129248,0.0013954181474633515,-0.022909458683431146
1772094048456334300,6.574334228515625,0.23824761510491368,0.03850627453224733,-0.08698942440599203
1772094048466283300,6.584283203125,0.19152151976525783,0.06701158046135679,-0.08292144431471825
1772094048476232200,6.594232177734375,0.06717793173789978,0.08817557458379305,-0.05583382316380739
1772094048486181400,6.604181396484375,-0.06923486426770686,0.0689971282553859,-0.032439211311936375
1772094048496130300,6.61413037109375,-0.11194237161576748,-0.013836336381779982,-0.009405103335529566
1772094048506080300,6.624080322265625,-0.07249883449971675,-0.08609657635265029,0.015055530312657356
1772094048516029400,6.634029541015625,-0.02134264775812626,-0.07530055751483887,-0.012827332869172096
1772094048525978400,6.643978271484375,0.024531214666366576,-0.01578937927884981,-0.05283814847916364
1772094048535927300,6.65392724609375,0.09482990877330302,0.03438108436102048,-0.10787892156913875
1772094048545876200,6.663876220703125,0.15628478668928145,0.07640173282292671,-0.12717618110477924
1772094048555826200,6.673826171875,0.1746077943652868,0.03688389749480411,-0.09859525265619158
1772094048565775000,6.683775146484375,0.14921440991163254,-0.017650999299110844,-0.10510784942060708
1772094048575724300,6.693724365234375,0.09393383671641349,-0.043397992096561935,-0.08874620494544505
1772094048585673200,6.703673095703125,0.060141457229852674,-0.05830288015846163,-0.038207419449836015
1772094048595622400,6.713622314453125,0.04925356799066066,-0.04977349107838235,-0.007556260598450899
1772094048605572000,6.723572021484375,0.0055599722146987916,-0.003325609891908243,-0.07457680981755256
1772094048615521300,6.733521240234375,-0.011219897672533988,0.01651667977324687,-0.10615209777653217
1772094048625470200,6.74347021484375,0.00042319384813308713,0.0026303302372805773,-0.07088599247559904
1772094048635419100,6.753419189453125,0.0077712185233831405,-0.012363076358288526,-0.05374576484337449
1772094048645368300,6.763368408203125,-0.0064162967830896376,-0.026443934686202555,-0.031015754380077122
1772094048655318300,6.773318359375,0.03464402787983417,-0.06107607119884342,0.020460019704699513
1772094048665267200,6.78326708984375,0.09185703044235706,-0.09244928811392747,0.03481368535831571
1772094048675216100,6.793216064453125,0.11910393380820751,-0.05488835900723934,0.03386968250647187
1772094048685165000,6.8031650390625,0.10174889438152313,0.04773424946889281,0.0007142857491970061
1772094048695114200,6.8131142578125,0.034871991416811944,0.12008614064543507,-0.04858224460035562
1772094048705064000,6.82306396484375,-0.009047229808568953,0.09085600930680521,-0.04549991454556584
1772094048715013000,6.83301318359375,-0.02496025373339653,0.02291393392914906,-0.038730128149688244
1772094048724962000,6.842962158203125,-0.004409048613905907,-0.017678389629535374,-0.025370149708539246
1772094048734911000,6.852910888671875,0.02273673246502876,-0.04966290684337728,0.011648352217674254
1772094048744860200,6.862860107421875,0.09312544294297695,-0.03764761187629774,0.018733049781620503
1772094048754810000,6.87281005859375,0.16842705990374088,0.008881097727734596,-0.02719838804900646
1772094048764759000,6.882759033203125,0.1411503459215164,0.07007821975667029,-0.06632350686565042
1772094048774708000,6.8927080078125,0.09654197338819503,0.08205613272227347,-0.05904810903519392
1772094048784657000,6.902656982421875,0.09316343686580657,0.013668861727230251,-0.05306859623417258
1772094048794606000,6.912606201171875,0.07644844890832901,-0.06625225912719034,-0.04656944347321987
1772094048804556000,6.92255615234375,0.01731763002574444,-0.0740292406710796,-0.006707534814625978
1772094048814505200,6.932505126953125,-0.06321019715070725,0.013290739996684715,-0.021614012045413255
1772094048824454100,6.9424541015625,-0.0824614255875349,0.0664250127450563,-0.06074205347150564
1772094048834403000,6.952403076171875,0.02949672811925411,0.07455643374980427,-0.0456650419794023
1772094048844352000,6.96235205078125,0.15895605172514915,0.032590319353574884,-0.032317192367464304
1772094048854302200,6.97230224609375,0.18771277513206003,-0.017299911705963313,-0.012105886726826429
1772094048864251100,6.982251220703125,0.18775076905488966,-0.023532659482536838,0.006576017389446497
1772094048874200000,6.992199951171875,0.17232289829850195,0.010156396626867353,0.016137480330467222
1772094048884149000,7.00214892578125,0.13487550343573093,0.028210798228252676,-0.011989859131723641
1772094048894098000,7.012097900390625,0.061550154983997345,0.05427688517854549,-0.06041808221414685
1772094048904047900,7.0220478515625,-0.013930910196900367,0.05749281501774676,-0.060486763536185026
1772094048913997000,7.0319970703125,-0.05348901360332965,0.0018525964635889977,-0.05336947887688875
1772094048923946200,7.0419462890625,-0.042048751178383824,-0.07008147115968168,0.004887772041559219
1772094048933895200,7.051895263671875,0.00042377837002277374,-0.09263985138311982,0.06078457743898034
1772094048943844000,7.061843994140625,0.03268880215883255,-0.0586242484667804,0.04076192623823881
1772094048953794000,7.0717939453125,0.07634031235873699,-0.013701978545542805,-0.014002952519804239
1772094048963743000,7.081742919921875,0.10688917987942695,0.019066647383850065,-0.05320566661730408
1772094048973692200,7.091692138671875,0.11401274814903735,0.046100419455673544,-0.08447627254128455
1772094048983641000,7.10164111328125,0.041328620210289956,0.036472768543800334,-0.07479907426610588
1772094048993590000,7.111590087890625,-0.05350538021624088,0.023962611865019426,0.006094663613289595
1772094049003540000,7.1215400390625,-0.08252923012673855,-0.03774303507478907,0.06348959861397743
1772094049013489000,7.131489013671875,-0.007935469174385071,-0.07814722478338516,0.0807122438326478
1772094049023438000,7.14143798828125,0.13106792784631252,-0.06556503491485491,0.04244695671573281
1772094049033387300,7.15138720703125,0.2185445512473583,-0.011331294758291914,-0.026215222230553625
1772094049043336200,7.161336181640625,0.30378362485468385,0.04920405715997331,-0.11158990491628647
1772094049053286100,7.1712861328125,0.27858722427785393,0.09234208314609714,-0.1594566947236657
1772094049063235000,7.181235107421875,0.15708207454681394,0.09788171582566574,-0.13392244049459695
1772094049073184000,7.19118408203125,0.011348492488265038,0.03416115800002589,-0.05733692120313644
1772094049083133000,7.2011328125,-0.10608663132488727,-0.09605344095258042,0.02255640746206045
1772094049093082000,7.21108203125,-0.16335107181370256,-0.13376042746645397,0.06518748857304453
1772094049103032000,7.221031982421875,-0.14956453852355478,-0.08166722473623231,0.04697466327324509
1772094049112981000,7.23098095703125,-0.07024491809308528,-0.02565620010830462,-0.025630554210394618
1772094049122930200,7.24093017578125,0.005554711517691612,0.04658851349987089,-0.10484335326552391
1772094049132879000,7.250879150390625,0.028558570486307142,0.08707842699685134,-0.11251242658868431
1772094049142828000,7.260828125,0.08367664659619331,0.07660183110544458,-0.0808534058690071
1772094049152778200,7.2707783203125,0.10655834048986434,0.01749048410831019,-0.05510784697681665
1772094049162727200,7.28072705078125,0.10300503192245959,-0.04734707678221166,0.0082097560711205
1772094049172676000,7.290676025390625,0.12390870374143123,-0.04835912163527682,0.024071342069655655
1772094049182625000,7.300625,0.14809271240532398,-0.03234555081226863,-0.014399696752429008
1772094049192574000,7.310573974609375,0.16960136438012122,-0.021722842714749276,-0.02503916418850422
1772094049202524200,7.320524169921875,0.0988701240748167,0.02732468130979687,-0.06463321569114923
1772094049212473000,7.33047314453125,0.0076578212767839425,0.04223084801333025,-0.07721987167224288
1772094049222422000,7.340422119140625,-0.029352351212501526,-0.004048289010114968,-0.019476123233884573
1772094049232371200,7.35037109375,-0.020105214917659757,-0.05250987550602294,0.014063888926804064
1772094049242320100,7.360320068359375,-0.043751463443040844,-0.019934644123725594,-0.025643413691967723
1772094049252270000,7.37027001953125,-0.06469897440373897,0.01616267870380543,-0.03229877992793918
1772094049262219300,7.38021923828125,-0.0031470658540725706,-0.01066991737326607,-0.012322890478372574
1772094049272168200,7.390168212890625,0.07759352729022502,-0.0665053845048882,0.01735956947132945
1772094049282117000,7.4001171875,0.14863514871895311,-0.07943998627397231,0.028730419921875
1772094049292066000,7.410066162109375,0.181881000238657,-0.033306239937432106,-0.0287608150601387
1772094049302016000,7.42001611328125,0.13420505682826042,0.04675544016514904,-0.10756459492295979
1772094049311965000,7.42996484375,0.08587035724818706,0.06177801805627532,-0.07164294832274318
1772094049321914000,7.4399140625,0.05194295320510864,-0.0075463967915624375,0.021863456761837003
1772094049331863000,7.449863037109375,0.08764028953015804,-0.053890096084354445,0.06615516456142068
1772094049341812200,7.459812255859375,0.18644845428466797,-0.07016882064957171,0.050585985638201235
1772094049351762200,7.46976220703125,0.23867139347493646,-0.023380300198728218,0.017437018621712923
1772094049361711000,7.479711181640625,0.17990940790474413,0.02298282531374134,-0.046522827852517365
1772094049371660000,7.489659912109375,0.06829846020042896,0.05786347496104426,-0.06785919200032949
1772094049381609000,7.49960888671875,-0.06324000776708126,0.04622532447697594,-0.04807531799152493
1772094049391558100,7.50955810546875,-0.12992284946441648,0.025444575784774496,-0.024651187784224746
1772094049401508000,7.519508056640625,-0.10602817913591861,-0.006729874510597437,-0.0214900934047997
1772094049411457000,7.52945703125,-0.016219313395023346,-0.01987046544686891,0.003041705783456564
1772094049421406000,7.539406005859375,0.06970540438890457,-0.00511555291544646,0.030273557710647582
1772094049431355000,7.54935498046875,0.11277589983046055,0.0008789747916162013,-0.012881547274440526
1772094049441304000,7.559303955078125,0.1095101760327816,-0.011114555868227034,-0.0437882883220911
1772094049451254000,7.56925390625,0.03376841408908367,0.008768065807316452,-0.056781771538406606
1772094049461203200,7.579203125,-0.013807576078176497,0.02388455992643721,0.005314326890558004
1772094049471152000,7.589152099609375,-0.009911737683415413,0.004012678840616717,0.043501726465672255
1772094049481101000,7.59910107421875,0.007873509854078293,0.021457195782195775,0.02042319482564926
1772094049491050000,7.609050048828125,0.04759937104284763,0.055954581732954825,0.025020605618506667
1772094049501000200,7.619000244140625,0.09605448213219642,0.015669433560455217,0.041299686376750466
1772094049510949000,7.62894921875,0.18307576298117637,-0.05330600345293059,0.06625161067321896
1772094049520898000,7.63889794921875,0.2975771714299917,-0.01131745802918449,0.019164865327626467
1772094049530847000,7.648846923828125,0.2052472627788782,0.013629826624784618,-0.0618907851152122
1772094049540796200,7.658796142578125,0.08563304136097431,0.0374665836204309,-0.08426993631422519
1772094049550745900,7.668745849609375,-0.03841711667776108,0.05760714384610764,-0.02620572374984622
1772094049560695300,7.6786953125,-0.10475742854773998,-0.004742363088345154,0.008320522969216107
1772094049570644200,7.688644287109375,-0.029960838499665257,-0.06451426548659801,0.03082563863545656
1772094049580593200,7.69859326171875,0.013702362138032912,-0.0437491253554821,0.025948972509801386
1772094049590542000,7.7085419921875,0.044943888098001476,-0.030894593952130525,-0.0321375980168581
1772094049600492000,7.718491943359375,0.0813724613070488,-0.02353124384358525,-0.044592882703244685
1772094049610441000,7.72844091796875,0.15375965212583542,0.010337726276833563,-0.0943551308684051
1772094049620390100,7.73839013671875,0.16555355029404162,-0.01834491811371408,-0.08783712727651
1772094049630339000,7.748339111328125,0.058626376491785044,-0.023262564703729,-0.0650920653745532
1772094049640288000,7.7582880859375,-0.04104688065946102,-0.03859159646183252,-0.008171177626401186
1772094049650238000,7.768238037109375,-0.07133855854868888,-0.05310109199797734,0.04180164454951882
1772094049660187000,7.778186767578125,-0.028794717329740524,-0.05835501220449805,0.03931494230031967
1772094049670136000,7.788135986328125,0.029121465066075325,-0.04937629018803127,0.025572686543315647
1772094049680085200,7.798085205078125,0.10716682777702807,-0.012728229009406641,0.015328209774196147
1772094049690034400,7.808034423828125,0.11474047790169715,-0.01173466052794829,-0.02680851194858551
1772094049699984400,7.817984375,0.13365443720817566,-0.033949825937440614,-0.03611950725987553
1772094049709933300,7.827933349609375,0.17714578841030595,-0.015590851898910477,-0.0422808063685894
1772094049719882200,7.83788232421875,0.16882511931061744,0.013882504477910697,-0.05668795577511191
1772094049729831200,7.8478310546875,0.13743629383444786,0.03148682422423735,-0.05235474887639284
1772094049739780400,7.8577802734375,0.08496025666594505,-0.0020754819666501134,-0.031915625829249616
1772094049749730300,7.867730224609375,0.04134557134509086,-0.048999474498583,-0.011886106496304272
1772094049759679200,7.87767919921875,-0.020254267999529837,-0.06003746713241562,0.009486351878196
1772094049769628200,7.887628173828125,-0.01699555846452713,-0.04927320427289232,0.04002878965809941
1772094049779577300,7.897577392578125,0.01256312897503376,-0.002647281372081488,-0.03444645948112011
1772094049789526300,7.9075263671875,0.034520109239220616,0.025923125682491808,-0.06974179087653756
1772094049799476500,7.9174765625,0.07800503070056437,0.03482476387475617,-0.10550985435023903
1772094049809425400,7.92742529296875,0.03072363956570625,0.03513373849238269,-0.12838102684989572
1772094049819374300,7.937374267578125,0.043296705412864685,-0.03839845764306374,-0.0699959117680788
1772094049829323300,7.9473232421875,0.05270458522737026,-0.09691198487752116,-0.029693273604661223
1772094049839272200,7.957272216796875,0.04017711208760738,-0.08560750506091862,-0.028721505963057278
1772094049849221000,7.96722119140625,-0.007716857987642288,-0.02304738758308813,-0.022396102333813905
1772094049859171300,7.97717138671875,-0.017170915031433105,0.009686020902451128,0.00520034512206912
1772094049869120300,7.987120361328125,0.037188451665639874,-0.002926025248225778,-0.013443272810429334
1772094049879069400,7.9970693359375,0.11394669717550276,-0.04547348319636658,-0.05207344771698117
1772094049889018400,8.007018310546876,0.13690963961184024,-0.033119010269641876,-0.08348024724125862
1772094049898967300,8.01696728515625,0.09784487268030644,0.0363881224676501,-0.10326382898911833
1772094049908917500,8.02691748046875,0.04020049296319485,0.067804091679072,-0.07628244469165801
1772094049918866400,8.036866455078124,0.013829787909984587,0.023171205759001893,-0.022122546089440583
1772094049928815400,8.0468154296875,0.04190788140296936,-0.04372406397946179,0.04026961267665028
1772094049938764300,8.056764404296874,0.09803425777256489,-0.09268501483225264,0.05756430021822452
1772094049948713200,8.066713134765624,0.12922083867490292,-0.09061236414350568,0.005604980400204658
1772094049958663200,8.0766630859375,0.11357435673177242,-0.0433650214087218,-0.06656506053656339
1772094049968612400,8.0866123046875,0.043807577544450756,0.005427861134475097,-0.10356251967474818
1772094049978561300,8.096561279296875,0.02191547921001911,0.017065454496117308,-0.07389686472937464
1772094049988510500,8.106510498046875,-0.006144494104385376,0.00455934380479157,-0.05478314506709575
1772094049998459400,8.11645947265625,-0.048774844563007354,0.0018614099577069282,-0.01809460574761033
1772094050008409300,8.126409423828125,-0.013217208969593048,-0.02791030831118114,0.03585544949620962
1772094050018358300,8.136358154296875,0.10767945347428322,-0.061584550443943585,0.04916340548917651
1772094050028307500,8.146307373046875,0.2027589530944824,-0.08632580026495269,0.012859919964522123
1772094050038256400,8.15625634765625,0.16836802319288252,-0.02310347428503446,-0.033726182382553815
1772094050048205300,8.166205322265625,0.10737257948219775,0.03288539331001229,-0.0674947426021099
1772094050058155300,8.1761552734375,0.09912497561872005,0.06666402739901095,-0.11706731341406702
1772094050068104200,8.186104248046876,0.104582071980834,0.07482613580296747,-0.12524448238983749
1772094050078053000,8.19605322265625,0.0628852029800415,0.05357264589932747,-0.07367708449885249
1772094050088002600,8.20600244140625,0.044370472124218935,0.010256970924511551,0.00025251345634460447
1772094050097951500,8.215951416015624,0.05423427901268005,-0.029934471082547678,0.043780397276580334
1772094050107901400,8.2259013671875,0.10022212320566176,-0.08391090287663973,0.028263533062487838
1772094050117850400,8.235850341796874,0.07482172448933123,-0.10836909797256812,0.015253244841843842
1772094050127799300,8.24579931640625,0.04693535417616367,-0.07403454703385941,-0.018927695570886135
1772094050137748200,8.255748291015625,0.030765140619874,-0.005248202851787209,-0.05493950467258692
1772094050147697200,8.265697265625,0.014549918878078459,0.08978931165705434,-0.06988967491462826
1772094050157647400,8.2756474609375,0.0048883565634489055,0.13737515649804843,-0.06353826006129383
1772094050167596300,8.28559619140625,0.03340717956125736,0.08259265075176954,-0.02861249263063073
1772094050177545200,8.295545166015625,0.07027355966567993,-0.005756910425750539,0.059248600043356414
1772094050187494400,8.305494384765625,0.10522153892815113,-0.07468184109460561,0.09238090818598865
1772094050197443300,8.315443359375,0.1122854859650135,-0.11422173299090936,0.08454056994915007
1772094050207393300,8.325393310546875,0.142077982160449,-0.059896067634038624,0.034297990921139714
1772094050217342500,8.335342529296875,0.145882635140419,0.035301834201440216,-0.047160395103693006
1772094050227291400,8.34529150390625,0.1387158122509718,0.05126909079784527,-0.07115662611052394
1772094050237240300,8.355240234375,0.10723346327245235,0.0464125267453026,-0.05249225765094161
1772094050247189200,8.365189208984376,0.043213118782639504,0.03775545616494491,-0.04788301028981805
1772094050257138200,8.37513818359375,0.03683247783482074,-0.03728052299642004,-0.023445611386746168
1772094050267088400,8.38508837890625,-0.02898819407522678,-0.02434266069117002,0.024644904173910617
1772094050277037300,8.395037353515624,-0.05175590620040893,-0.03676038984614424,0.09796703775525092
1772094050286986200,8.404986328125,-0.038790626165270806,-0.07716496314723044,0.04670651385635137
1772094050296935400,8.414935302734374,0.017934300619363783,-0.09054712602072394,0.005433130964636802
1772094050306884400,8.42488427734375,0.12002397126257419,-0.07672079044315032,-0.05250730908960104
1772094050316834300,8.434834228515625,0.222946585598588,-0.053740759874694045,-0.1469458804577589
1772094050326783500,8.444783447265625,0.24028993458747863,-0.021132566937711088,-0.16390724439173937
1772094050336732400,8.454732421875,0.12120353643596171,0.04658582835244015,-0.13074278754517435
1772094050346681300,8.464681396484375,-0.04462766175568104,0.029193726584687826,-0.08111278745755553
1772094050356630300,8.47463037109375,-0.19122399812340735,-0.029630638430919495,-0.006445522877573967
1772094050366580200,8.484580322265625,-0.24290216291248798,-0.13035680216858161,0.03605126432925462
1772094050376529200,8.494529052734375,-0.1712099686205387,-0.22270265730749814,0.054013914260268206
1772094050386478300,8.504478271484375,-0.06283844122886657,-0.1179103766420856,-0.02084302767291665
1772094050396427500,8.514427490234375,0.06759118871390819,-0.02631002437453717,-0.07090206682756543
1772094050406376400,8.52437646484375,0.23106617916822433,0.03028415216989815,-0.09890198051780462
1772094050416326400,8.534326416015626,0.29202012182474135,0.0571783148416318,-0.13641469570174813
1772094050426275300,8.544275390625,0.21941841147243976,0.03376510788714513,-0.10497881621345877
1772094050436224300,8.554224365234376,0.07777998977303505,-0.0029608956322073935,-0.031738954088091846
1772094050446173400,8.56417333984375,-0.007377835291624069,0.030993506015650926,-0.01900631376504898
1772094050456122400,8.574122314453126,-0.1582213077098131,-0.029095937899174168,-0.039198476313799614
1772094050466072300,8.584072265625,-0.021723171508312225,-0.04677099392730742,0.00736468354910612
1772094050476021200,8.594021240234374,0.07360708800256252,-0.08049932260117493,0.026696283745765683
1772094050485970200,8.60397021484375,0.12598784810304642,-0.10623320018872619,0.11480112204775214
1772094050495919000,8.613919189453124,0.10008476056158543,-0.07100028477134182,0.08856734124720096
1772094050505868500,8.62386865234375,0.10338964732587337,-0.00601163410549052,-0.015983897203952074
1772094050515818200,8.633818359375,0.11925766306519507,0.010343635427812114,-0.11364449935853481
1772094050525767400,8.643767333984375,0.08285071716606617,0.028223228451563043,-0.20338526829928158
1772094050535716400,8.65371630859375,0.03893558759391308,0.07447696617227047,-0.23716683413088321
1772094050545665300,8.663665283203125,0.02924304561913013,-0.002474774349387735,-0.16606968312263487
1772094050555614200,8.6736142578125,0.0006254384219646454,-0.03719948451630771,-0.07506240137740969
