time,seconds_elapsed,z,y,x
1772094041959513600,0.077513671875,-0.006900504231452942,0.0002383170649409294,-0.06893181800842285
1772094041969462500,0.087462646484375,0.0009217322804033756,-0.01777823269367218,-0.029421690851449966
1772094041979411700,0.09741162109375,-0.006816082634031773,-0.0404670350253582,-0.0027871504426002502
1772094041989361400,0.107361328125,-0.008124079555273056,-0.044698476791381836,0.007662149611860514
1772094041999310600,0.117310546875,-0.004342390689998865,-0.040535956621170044,0.012881146743893623
1772094042009259500,0.127259521484375,0.0025415588170289993,-0.03941190615296364,0.009632883593440056
1772094042019208700,0.137208740234375,0.013868780806660652,-0.033489834517240524,-0.0029683951288461685
1772094042029157600,0.14715771484375,0.014501006342470646,-0.022048313170671463,-0.0101009551435709
1772094042039107600,0.157107666015625,0.014844019897282124,-0.015006382018327713,-0.010552894324064255
1772094042049056500,0.167056396484375,0.01640048436820507,-0.013078372925519943,-0.013068503700196743
1772094042059005400,0.17700537109375,0.021968355402350426,-0.006010343786329031,-0.014334303326904774
1772094042068954400,0.186954345703125,0.017685459926724434,0.009949447587132454,-0.010833579115569592
1772094042078903600,0.196903564453125,0.006705246400088072,-0.00516239320859313,-0.005895545706152916
1772094042088853500,0.206853515625,-0.0006921796593815088,-0.008176648989319801,0.008476313203573227
1772094042098802700,0.216802734375,0.0037555652670562267,-0.01593576930463314,0.03496278077363968
1772094042108751600,0.226751708984375,0.005046331789344549,-0.02109524980187416,0.05009898170828819
1772094042118700500,0.236700439453125,0.006892701145261526,-0.024659091606736183,0.04678627848625183
1772094042128649500,0.2466494140625,0.0014247670769691467,-0.019436495378613472,0.028935249894857407
1772094042138598700,0.2565986328125,0.0025478219613432884,0.008333351463079453,0.013952038250863552
1772094042148548600,0.266548583984375,-0.007683960720896721,0.028533728793263435,0.00711893429979682
1772094042158497500,0.27649755859375,-0.007044002879410982,0.04066149890422821,0.0010860753245651722
1772094042168446500,0.286446533203125,-0.00014815200120210648,0.027604976668953896,-0.001955028623342514
1772094042178395400,0.2963955078125,0.010793711990118027,0.03390388563275337,0.001261537428945303
1772094042188344600,0.306344482421875,0.01676090806722641,0.02545510046184063,0.01713087223470211
1772094042198293800,0.316293701171875,0.005807060748338699,0.02003716491162777,0.04265407845377922
1772094042208243700,0.32624365234375,-0.008802800439298153,0.014217782765626907,0.05070776492357254
1772094042218192600,0.336192626953125,-0.02325737290084362,0.01813396066427231,0.03758716955780983
1772094042228141600,0.3461416015625,-0.026055242866277695,0.014099396765232086,0.02211013436317444
1772094042238090500,0.356090576171875,-0.02110043168067932,0.011089491657912731,0.010242288932204247
1772094042248039400,0.366039306640625,-0.019750293344259262,0.009468923322856426,-0.008735430426895618
1772094042257989600,0.37598974609375,-0.013051643967628479,-0.00297815864905715,-0.022148173302412033
1772094042267938600,0.3859384765625,-0.0013016948942095041,-0.005003991071134806,-0.022037087008357048
1772094042277887500,0.395887451171875,-0.009682130068540573,-0.006974996533244848,-0.005899662151932716
1772094042287836700,0.405836669921875,-0.025373265147209167,-0.025484837591648102,0.006991095840930939
1772094042297785600,0.41578564453125,-0.03398140147328377,-0.029898229986429214,0.0012810118496418
1772094042307734500,0.425734619140625,-0.03199176490306854,-0.01506676897406578,-0.013754746876657009
1772094042317684700,0.435684814453125,-0.02637835592031479,-0.0018210047855973244,-0.022374600172042847
1772094042327633700,0.445633544921875,-0.012760551646351814,0.00783182680606842,-0.014911485835909843
1772094042337582600,0.45558251953125,-0.013014350086450577,0.014432204887270927,-0.0004968615248799324
1772094042347531500,0.465531494140625,-0.008484717458486557,0.02062687650322914,0.024390604346990585
1772094042357480400,0.47548046875,0.0022571426816284657,0.014294412918388844,0.046298831701278687
1772094042367430700,0.4854306640625,0.01036702748388052,0.012677035294473171,0.05714485049247742
1772094042377379600,0.495379638671875,0.006421287544071674,-0.0029272236861288548,0.05770384892821312
1772094042387328500,0.50532861328125,-0.002730306703597307,-0.008756900206208229,0.030115481466054916
1772094042397277700,0.515277587890625,-0.007296296302229166,-0.014227831736207008,-0.005282989703118801
1772094042407226600,0.5252265625,-0.004732379224151373,-0.015479801222682,-0.03161647915840149
1772094042417175600,0.535175537109375,-0.002169619081541896,-0.03180950507521629,-0.040114887058734894
1772094042427125800,0.545125732421875,-0.0020009130239486694,-0.05305737629532814,-0.040115997195243835
1772094042437074700,0.55507470703125,0.003206632100045681,-0.08795277774333954,-0.03675615414977074
1772094042447023600,0.565023681640625,0.002674276474863291,-0.13359035551548004,-0.024738023057579994
1772094042456972500,0.57497265625,0.005350486841052771,-0.15518511831760406,-0.0018705250695347786
1772094042466921500,0.58492138671875,0.010086329653859138,-0.17261053621768951,0.01654549315571785
1772094042476870700,0.59487060546875,0.0043829046189785,-0.18860948085784912,0.03291328251361847
1772094042486820600,0.604820556640625,-0.015153789892792702,-0.22276698052883148,0.04913392663002014
1772094042496769800,0.614769775390625,-0.013218204490840435,-0.20309820771217346,0.0684298574924469
1772094042506718700,0.62471875,-0.0391572006046772,-0.1961188167333603,0.0498642697930336
1772094042516667600,0.634667724609375,-0.07118170708417892,-0.14229340851306915,0.008047312498092651
1772094042526616600,0.644616455078125,-0.08581787347793579,-0.09079648554325104,-0.05440610274672508
1772094042536566500,0.65456640625,-0.10554657131433487,-0.05320250242948532,-0.10096587985754013
1772094042546515500,0.664515380859375,-0.11598633974790573,-0.0020695612765848637,-0.11299686133861542
1772094042556464600,0.674464599609375,-0.11538179963827133,0.02680256776511669,-0.09801232069730759
1772094042566413600,0.68441357421875,-0.11050435155630112,0.06006694585084915,-0.07602962106466293
1772094042576362500,0.694362548828125,-0.10884121060371399,0.05121965706348419,-0.05373656749725342
1772094042586311700,0.704311767578125,-0.12115341424942017,0.045779917389154434,-0.010354775004088879
1772094042596261400,0.714261474609375,-0.1198817566037178,0.03220072761178017,0.03256765753030777
1772094042606210600,0.72421044921875,-0.10666175931692123,0.00943483505398035,0.06294967234134674
1772094042616159700,0.73415966796875,-0.10898829251527786,-0.018314504995942116,0.08265440165996552
1772094042626108700,0.744108642578125,-0.10585170239210129,-0.04960715025663376,0.09874265640974045
1772094042636057600,0.7540576171875,-0.10777983069419861,-0.09037402272224426,0.12297555804252625
1772094042646007600,0.764007568359375,-0.12713578343391418,-0.10179685056209564,0.14624753594398499
1772094042655956500,0.77395654296875,-0.1335630565881729,-0.12282703816890717,0.15193471312522888
1772094042665905400,0.783905517578125,-0.13221782445907593,-0.12546619772911072,0.1600978672504425
1772094042675854600,0.7938544921875,-0.11515600979328156,-0.12542465329170227,0.1507491022348404
1772094042685806800,0.803806884765625,-0.10366127640008926,-0.1308439075946808,0.1572008728981018
1772094042695755800,0.813755859375,-0.08879950642585754,-0.16933511197566986,0.19789743423461914
1772094042705705700,0.823705810546875,-0.06995168328285217,-0.2109856903553009,0.2457469254732132
1772094042715654700,0.833654541015625,-0.04922163113951683,-0.2458011955022812,0.2629978060722351
1772094042725603800,0.843603759765625,-0.03727100044488907,-0.2370922863483429,0.25518956780433655
1772094042735552800,0.853552734375,-0.0379924513399601,-0.2236393392086029,0.23353008925914764
1772094042745501700,0.863501708984375,-0.04040291905403137,-0.1894340217113495,0.2052999883890152
1772094042755450600,0.87345068359375,-0.03816666454076767,-0.1530376672744751,0.17353752255439758
1772094042765400600,0.883400634765625,-0.0038431398570537567,-0.0372738279402256,0.09352181106805801
1772094042775349500,0.893349609375,0.003699997905641794,0.0740090161561966,-0.01625235192477703
1772094042785298700,0.903298583984375,0.008611572906374931,0.0916769728064537,-0.03561950847506523
1772094042795247900,0.913247802734375,0.031559500843286514,0.08363635838031769,-0.020122841000556946
1772094042805196800,0.92319677734375,0.03831169009208679,0.07939602434635162,-0.023603245615959167
1772094042815146800,0.933146728515625,0.03708024322986603,0.10255780071020126,-0.03860989212989807
1772094042825095700,0.943095703125,0.025231029838323593,0.09932158142328262,-0.027318168431520462
1772094042835044600,0.953044677734375,0.014362402260303497,0.08551708608865738,-0.013946703635156155
1772094042844993500,0.96299365234375,0.0006622364744544029,0.09077520668506622,-0.012774469330906868
1772094042854942700,0.972942626953125,-0.007616199553012848,0.09094192087650299,-0.012829596176743507
1772094042864891600,0.9828916015625,-0.011409502476453781,0.09291232377290726,-0.025683410465717316
1772094042874841600,0.992841552734375,-0.008347665891051292,0.11710953712463379,-0.05054588243365288
1772094042884790800,1.002790771484375,-0.009380255825817585,0.13435481488704681,-0.05852768197655678
1772094042894739700,1.01273974609375,-0.005928266327828169,0.12097987532615662,-0.05576305091381073
1772094042904688600,1.022688720703125,-0.01655074581503868,0.11522221565246582,-0.059827882796525955
1772094042914637800,1.032637939453125,-0.019580624997615814,0.12956279516220093,-0.06791004538536072
1772094042924587800,1.042587890625,-0.025873929262161255,0.1327582746744156,-0.06824444979429245
1772094042934536700,1.05253662109375,-0.02933257631957531,0.11213235557079315,-0.054135292768478394
1772094042944485600,1.062485595703125,-0.03248992934823036,0.09898484498262405,-0.04166705161333084
1772094042954434600,1.0724345703125,-0.030672587454319,0.10094786435365677,-0.04623997211456299
1772094042964383500,1.082383544921875,-0.041375499218702316,0.12989485263824463,-0.06988875567913055
1772094042974333000,1.0923330078125,-0.02925039641559124,0.17649537324905396,-0.09832732379436493
1772094042984282600,1.10228271484375,-0.03415549173951149,0.186575785279274,-0.10192416608333588
1772094042994231800,1.112231689453125,-0.0036196871660649776,0.15971967577934265,-0.05440112575888634
1772094043004180700,1.1221806640625,0.019945653155446053,0.14896342158317566,0.012225688435137272
1772094043014129700,1.132129638671875,0.02594841830432415,0.14378489553928375,0.05284688621759415
1772094043024078600,1.14207861328125,0.00803663395345211,0.14712630212306976,0.06076279655098915
1772094043034028800,1.15202880859375,-0.014801571145653725,0.14527326822280884,0.04157578572630882
1772094043043977700,1.161977783203125,-0.005681888200342655,0.16033197939395905,0.02393907867372036
1772094043053926700,1.1719267578125,-0.0008035097271203995,0.17280782759189606,-0.00458497554063797
1772094043063875600,1.18187548828125,0.006498575676232576,0.17406147718429565,-0.02098802663385868
1772094043073824800,1.19182470703125,0.012005994096398354,0.15371599793434143,-0.031961847096681595
1772094043083773700,1.201773681640625,0.023092977702617645,0.15279452502727509,-0.048505090177059174
1772094043093723600,1.2117236328125,0.03378263860940933,0.1472061425447464,-0.07165329158306122
1772094043103672800,1.2216728515625,0.046662624925374985,0.1571069359779358,-0.08751631528139114
1772094043113621800,1.231621826171875,0.054002564400434494,0.15462353825569153,-0.10067685693502426
1772094043123570700,1.24157080078125,0.06182566285133362,0.13833439350128174,-0.0916554406285286
1772094043133519600,1.25151953125,0.06154976040124893,0.0865875780582428,-0.050975922495126724
1772094043143469800,1.2614697265625,0.07328294962644577,0.0404130294919014,-0.010832966305315495
1772094043153418800,1.271418701171875,0.07125415652990341,0.015619531273841858,-0.00996344443410635
1772094043163367700,1.28136767578125,0.06632144004106522,0.009782467968761921,-0.0116719426587224
1772094043173316600,1.291316650390625,0.07405579090118408,0.015146074816584587,-0.022329647094011307
1772094043183265800,1.301265869140625,0.08200056850910187,0.0347156897187233,-0.035698872059583664
1772094043193214700,1.311214599609375,0.08612047880887985,0.03599480539560318,-0.05675089359283447
1772094043203165000,1.3211650390625,0.08563791215419769,0.05515604466199875,-0.07122638076543808
1772094043213113900,1.33111376953125,0.07567262649536133,0.07452494651079178,-0.06982821971178055
1772094043223062800,1.341062744140625,0.07369129359722137,0.06413038074970245,-0.04481326788663864
1772094043233011700,1.35101171875,0.0711706131696701,0.030988402664661407,-0.014935796149075031
1772094043242960600,1.360960693359375,0.06148281320929527,0.0041944426484405994,0.005880373530089855
1772094043252909600,1.37090966796875,0.048074863851070404,0.0025499409530311823,0.0071067591197788715
1772094043262859800,1.38085986328125,0.037515219300985336,0.012121414765715599,-0.007691355887800455
1772094043272808700,1.39080859375,0.026621026918292046,0.02519194222986698,-0.015800947323441505
1772094043282757600,1.400757568359375,0.0200378205627203,0.01333411131054163,-0.021724125370383263
1772094043292706800,1.410706787109375,0.0173988938331604,-0.006132264621555805,-0.01784949190914631
1772094043302655700,1.42065576171875,0.014705335721373558,0.005411297082901001,-0.03438197448849678
1772094043312605700,1.430605712890625,0.004240977577865124,0.026243342086672783,-0.05086427554488182
1772094043322554600,1.4405546875,0.0020328285172581673,0.04712178185582161,-0.06466066092252731
1772094043332503800,1.45050390625,0.007147163152694702,0.061537206172943115,-0.07996824383735657
1772094043342452700,1.46045263671875,0.00750096095725894,0.08209510147571564,-0.08948296308517456
1772094043352401700,1.470401611328125,0.011721005663275719,0.0751972496509552,-0.07424808293581009
1772094043362351600,1.4803515625,0.01578381657600403,0.057115040719509125,-0.04220414161682129
1772094043372300500,1.490300537109375,0.022023335099220276,0.046099938452243805,-0.004107355140149593
1772094043382249500,1.50024951171875,0.017408793792128563,0.0314921997487545,0.02426273375749588
1772094043392199000,1.510198974609375,0.011277930811047554,0.03292151913046837,0.02156148850917816
1772094043402147800,1.52014794921875,0.006587929558008909,0.050380121916532516,0.0007215701043605804
1772094043412096800,1.5300966796875,0.0017545586451888084,0.06091771647334099,-0.02111608348786831
1772094043422046700,1.540046630859375,0.005084913223981857,0.06655411422252655,-0.03160871937870979
1772094043431995600,1.54999560546875,0.005781063809990883,0.05765676125884056,-0.03778405860066414
1772094043441944600,1.559944580078125,0.0037392000667750835,0.047355908900499344,-0.04796260595321655
1772094043451893800,1.569893798828125,-0.0013437089510262012,0.05296452343463898,-0.0635966956615448
1772094043461842700,1.5798427734375,-0.008394042029976845,0.053781263530254364,-0.08905930072069168
1772094043471792600,1.589792724609375,-0.015692435204982758,0.05253596603870392,-0.10747931897640228
1772094043481741600,1.599741455078125,-0.014287319965660572,0.06100638210773468,-0.12027344852685928
1772094043491690800,1.609690673828125,-0.01994999870657921,0.053696803748607635,-0.106232188642025
1772094043501639700,1.6196396484375,-0.011900070123374462,0.01640949584543705,-0.07670838385820389
1772094043511588900,1.6295888671875,-0.006578009109944105,-0.01583499275147915,-0.03778388723731041
1772094043521537800,1.639537841796875,0.003191774245351553,-0.025569221004843712,-0.015878826379776
1772094043531487700,1.64948779296875,0.005022164899855852,-0.029136525467038155,-0.01476349588483572
1772094043541436700,1.659436767578125,0.014250248670578003,-0.029216328635811806,-0.01663314551115036
1772094043551385600,1.669385498046875,0.014427348971366882,-0.03676639497280121,-0.027172338217496872
1772094043561334500,1.67933447265625,0.011886555701494217,-0.02976025454699993,-0.04421554505825043
1772094043571283700,1.68928369140625,0.008587963879108429,-0.019313206896185875,-0.05818888545036316
1772094043581233700,1.699233642578125,0.0015456746332347393,-0.009919421747326851,-0.055926110595464706
1772094043591182600,1.7091826171875,0.001336350105702877,-0.0018521742895245552,-0.041243039071559906
1772094043601131800,1.7191318359375,0.005892508663237095,-0.006639630068093538,-0.02202063612639904
1772094043611080700,1.729080810546875,0.008893891237676144,-0.015331123024225235,-0.008822809904813766
1772094043621029600,1.739029541015625,0.01790144294500351,-0.024290014058351517,-0.0016664457507431507
1772094043630978800,1.748978759765625,0.020716404542326927,-0.019714171066880226,-0.006084363907575607
1772094043640928800,1.7589287109375,0.022349240258336067,-0.017738834023475647,-0.015429656952619553
1772094043650877700,1.768877685546875,0.023660579696297646,-0.016632556915283203,-0.015379324555397034
1772094043660826600,1.77882666015625,0.02970479056239128,-0.02089354395866394,-0.0021883505396544933
1772094043670775600,1.788775634765625,0.02903660386800766,-0.023624882102012634,0.008238723501563072
1772094043680724700,1.798724853515625,0.02002641372382641,-0.013518150895833969,0.0021659526973962784
1772094043690671400,1.80867138671875,0.01130962185561657,0.00043947575613856316,-0.011741607449948788
1772094043700620300,1.818620361328125,0.006248054560273886,0.018643956631422043,-0.022920913994312286
1772094043710569500,1.828569580078125,0.0073410156182944775,0.02909073792397976,-0.016053952276706696
1772094043720518700,1.8385185546875,0.019388457760214806,0.025049054995179176,0.005445410031825304
1772094043730467600,1.848467529296875,0.0373365692794323,0.0017799523193389177,0.03325946629047394
1772094043740416500,1.85841650390625,0.04677969217300415,-0.004162908997386694,0.056922297924757004
1772094043750366500,1.868366455078125,0.045184727758169174,-0.010727334767580032,0.05960516631603241
1772094043760315400,1.8783154296875,0.03272649645805359,-0.0072775655426084995,0.040066998451948166
1772094043770264300,1.888264404296875,0.020786214619874954,0.003730876836925745,0.014523286372423172
1772094043780213500,1.898213623046875,0.017733203247189522,0.0044474429450929165,-0.01172471884638071
1772094043790162700,1.90816259765625,0.02386992610991001,-0.001512711402028799,-0.026784095913171768
1772094043800112400,1.9181123046875,0.031220804899930954,-0.01336781308054924,-0.032119181007146835
1772094043810061600,1.9280615234375,0.04501624405384064,-0.03496311977505684,-0.020244143903255463
1772094043820010500,1.938010498046875,0.05032467469573021,-0.04555683210492134,-0.008607251569628716
1772094043829959400,1.94795947265625,0.04213252663612366,-0.04974278807640076,0.002470698906108737
1772094043839908600,1.95790869140625,0.02795674093067646,-0.04224850982427597,-0.0046894000843167305
1772094043849857500,1.967857421875,0.021770216524600983,-0.03466356173157692,-0.01268633920699358
1772094043859807500,1.977807373046875,0.018985889852046967,-0.028321560472249985,-0.01363328006118536
1772094043869756400,1.98775634765625,0.027641963213682175,-0.031164750456809998,-0.009312567301094532
1772094043879705300,1.997705322265625,0.035759419202804565,-0.023201581090688705,-0.013164179399609566
1772094043889654300,2.007654296875,0.038890499621629715,-0.015181469731032848,-0.01649446226656437
1772094043899603700,2.017603759765625,0.03713371604681015,-0.007853731513023376,-0.014981532469391823
1772094043909553400,2.027553466796875,0.033481188118457794,0.0067915236577391624,-0.009479708969593048
1772094043919502600,2.037502685546875,0.03413688391447067,0.026185037568211555,0.0030051639769226313
1772094043929451500,2.047451416015625,0.04096709191799164,0.026795167475938797,0.02575548365712166
1772094043939400400,2.057400390625,0.050133321434259415,0.018792491406202316,0.05112581327557564
1772094043949349400,2.067349365234375,0.06046692281961441,0.027226189151406288,0.05816055089235306
1772094043959298600,2.077298583984375,0.0675521120429039,0.02649030275642872,0.06751744449138641
1772094043969248500,2.08724853515625,0.076045460999012,0.023643916472792625,0.0656665489077568
1772094043979197400,2.097197509765625,0.07349613308906555,0.02011004649102688,0.049455635249614716
1772094043989146400,2.107146484375,0.07175283133983612,0.028087012469768524,0.023884760215878487
1772094043999095600,2.117095458984375,0.06577229499816895,0.03843541815876961,-0.002184963319450617
1772094044009044500,2.12704443359375,0.05243278667330742,0.03666121885180473,-0.018337301909923553
1772094044018994700,2.13699462890625,0.044457364827394485,0.024393562227487564,-0.020594336092472076
1772094044028943600,2.146943603515625,0.04201817512512207,0.0051045529544353485,-0.02307906374335289
1772094044038892500,2.156892578125,0.04675193503499031,-0.013461623340845108,-0.02034514769911766
1772094044048841500,2.166841552734375,0.0483839176595211,-0.021976282820105553,-0.012283758260309696
1772094044058790400,2.176790283203125,0.04559332877397537,-0.040124017745256424,-0.003237491473555565
1772094044068740600,2.18674072265625,0.0482889823615551,-0.03439316153526306,-0.011012324132025242
1772094044078689500,2.196689453125,0.0448584146797657,-0.0018407199531793594,-0.02061639167368412
1772094044088638500,2.206638427734375,0.04631409794092178,0.010225796140730381,-0.016415787860751152
1772094044098587400,2.21658740234375,0.051096413284540176,0.01774159073829651,-0.0016920124180614948
1772094044108536600,2.22653662109375,0.05681448429822922,0.030540743842720985,0.018537892028689384
1772094044118485500,2.236485595703125,0.05428037419915199,0.024640455842018127,0.020921964198350906
1772094044128435700,2.246435791015625,0.05785753205418587,0.032631538808345795,0.025792885571718216
1772094044138384600,2.256384521484375,0.055884234607219696,0.04123977944254875,0.017085056751966476
1772094044148333600,2.26633349609375,0.047751739621162415,0.04202621057629585,-0.000958658754825592
1772094044158282500,2.276282470703125,0.03521396964788437,0.02657950296998024,-0.017939014360308647
1772094044168231400,2.2862314453125,0.02560954913496971,0.006385816261172295,-0.02456522546708584
1772094044178181400,2.296181396484375,0.015069057233631611,-0.000054862815886735916,-0.03176284208893776
1772094044188130300,2.30613037109375,0.004164478741586208,-0.003933224827051163,-0.0450269840657711
1772094044198079500,2.31607958984375,0.00045167095959186554,0.0023376194294542074,-0.0541391596198082
1772094044208028700,2.326028564453125,-0.0005616620182991028,0.012335125356912613,-0.06370256841182709
1772094044217977600,2.3359775390625,0.0027821799740195274,0.02269364893436432,-0.05795357748866081
1772094044227926500,2.345926513671875,0.011537054553627968,-0.00017225230112671852,-0.021458417177200317
1772094044237876500,2.35587646484375,0.02136586420238018,-0.0224055964499712,0.010329993441700935
1772094044247825400,2.365825439453125,0.024698544293642044,-0.017816171050071716,0.004237214103341103
1772094044257774600,2.375774658203125,0.025386523455381393,0.007744084112346172,-0.009038874879479408
1772094044267723500,2.3857236328125,0.022847197949886322,0.011527370661497116,-0.016532212495803833
1772094044277672400,2.39567236328125,0.02294331230223179,-0.009204555302858353,-0.0249397624284029
1772094044287622400,2.405622314453125,0.024796074256300926,-0.004525116179138422,-0.03625500202178955
1772094044297571300,2.4155712890625,0.023329604417085648,0.0008432967588305473,-0.043474286794662476
1772094044307520500,2.4255205078125,0.01984725520014763,0.0014739329926669598,-0.044599734246730804
1772094044317469700,2.4354697265625,0.0127702746540308,0.0030251569114625454,-0.047806516289711
1772094044327418600,2.445418701171875,0.007697484456002712,0.00275830808095634,-0.042860761284828186
1772094044337367600,2.455367431640625,0.015433525666594505,0.0002727620303630829,-0.028525114059448242
1772094044347317500,2.4653173828125,0.02034199796617031,-0.005765156354755163,-0.013182909227907658
1772094044357266400,2.475266357421875,0.026659421622753143,-0.0063349660485982895,-0.003180301748216152
1772094044367215400,2.48521533203125,0.02940514124929905,-0.0051482608541846275,0.0011686398647725582
1772094044377164500,2.49516455078125,0.0323769673705101,-0.0007245363667607307,0.007101177237927914
1772094044387113500,2.505113525390625,0.029522063210606575,0.005875042639672756,0.009764604270458221
1772094044397063400,2.5150634765625,0.026408707723021507,0.006409006658941507,-0.000026309862732887268
1772094044407012400,2.525012451171875,0.020561205223202705,0.017290417104959488,-0.006488736253231764
1772094044416961500,2.53496142578125,0.011677442118525505,0.023705560714006424,-0.027054939419031143
1772094044426910500,2.544910400390625,0.0016543678939342499,0.034837838262319565,-0.05140874907374382
1772094044436859600,2.554859619140625,-0.0023315215948969126,0.05365149676799774,-0.08256524801254272
1772094044446808600,2.56480859375,0.002391860820353031,0.07174661010503769,-0.09652313590049744
1772094044456758500,2.574758544921875,0.020301977172493935,0.06750577688217163,-0.07873444259166718
1772094044466707500,2.58470751953125,0.018795426934957504,0.03444422781467438,-0.014211377128958702
1772094044476656400,2.594656494140625,0.015436114743351936,0.009575629606842995,0.040351733565330505
1772094044486605300,2.604605224609375,0.0018832888454198837,-0.009566374123096466,0.06412018090486526
1772094044496554500,2.614554443359375,-0.015603780746459961,-0.018881719559431076,0.059418290853500366
1772094044506504400,2.62450439453125,-0.018144702538847923,-0.005679631140083075,0.030039098113775253
1772094044516453600,2.63445361328125,-0.016340767964720726,0.004299783147871494,0.007386402226984501
1772094044526402600,2.644402587890625,-0.009122269228100777,0.0074508353136479855,0.000166306272149086
1772094044536351500,2.6543515625,-0.0073434701189398766,0.012403069995343685,-0.00263112410902977
1772094044546300400,2.664300537109375,-0.0004978147335350513,0.01738690957427025,-0.00018660817295312881
1772094044556249300,2.674249267578125,0.0038276691921055317,0.030390311032533646,0.0038683698512613773
1772094044566199600,2.684199462890625,0.0033291256986558437,0.03710360825061798,0.017203615978360176
1772094044576148500,2.6941484375,0.001328048761934042,0.03180313482880592,0.027792828157544136
1772094044586097400,2.704097412109375,-0.0017204720061272383,0.03382793441414833,0.037472885102033615
1772094044596046300,2.71404638671875,-0.00021966686472296715,0.03192386403679848,0.033123500645160675
1772094044605995500,2.72399560546875,0.000002973247319459915,0.03783315420150757,0.023248497396707535
1772094044615945500,2.733945556640625,-0.005831480026245117,0.051417671144008636,0.02345995232462883
1772094044625894700,2.743894775390625,-0.012361817061901093,0.04446122795343399,0.026130039244890213
1772094044635843600,2.753843505859375,-0.01756528951227665,0.03980611264705658,0.02588951215147972
1772094044645792500,2.76379248046875,-0.017179930582642555,0.03829370439052582,0.02407243847846985
1772094044655741400,2.773741455078125,-0.013251480646431446,0.015202549286186695,0.024704985320568085
1772094044665690400,2.7836904296875,-0.007976824417710304,-0.0024885637685656548,0.017375700175762177
1772094044675640600,2.793640625,-0.0037099558394402266,0.0019564495887607336,0.0011336114257574081
1772094044685588700,2.803588623046875,-0.001866515725851059,0.008801039308309555,-0.01239045336842537
1772094044695538000,2.813537841796875,-0.0018978845328092575,0.013103622943162918,-0.01917833462357521
1772094044705486800,2.82348681640625,-0.004780223593115807,0.017493577674031258,-0.020709652453660965
1772094044715435800,2.833435791015625,-0.007564922794699669,0.010300220921635628,-0.02283708192408085
1772094044725386000,2.843385986328125,-0.007401138544082642,-0.005353839602321386,-0.02957727573812008
1772094044735335000,2.8533349609375,0.0016010962426662445,-0.005967768374830484,-0.03014320135116577
1772094044745283800,2.863283935546875,0.01336507685482502,-0.017879022285342216,-0.018107576295733452
1772094044755232800,2.873232666015625,0.017913876101374626,-0.028532732278108597,-0.01707659661769867
1772094044765181700,2.883181640625,0.014379860833287239,-0.010688487440347672,-0.01580600067973137
1772094044775132000,2.8931318359375,0.01188836432993412,-0.017804598435759544,-0.009762502275407314
1772094044785080800,2.903080810546875,0.00714527303352952,-0.012888403609395027,0.0024089429061859846
1772094044795029800,2.91302978515625,0.0019377237185835838,-0.0037528714165091515,0.012638961896300316
1772094044804979000,2.92297900390625,-0.011373554356396198,0.013002140447497368,0.015806259587407112
1772094044814928000,2.932927978515625,-0.014856034889817238,0.022334706038236618,0.023396914824843407
1772094044824876800,2.942876708984375,-0.012667980045080185,0.018282705917954445,0.026526927947998047
1772094044834827000,2.952826904296875,-0.011171293444931507,0.019403528422117233,0.03211454302072525
1772094044844776000,2.96277587890625,-0.011437077075242996,0.024990307167172432,0.02351200021803379
1772094044854724900,2.972724853515625,-0.013936474919319153,0.021786684170365334,0.019270412623882294
1772094044864673800,2.982673828125,-0.018808994442224503,0.013893873430788517,0.020779892802238464
1772094044874622700,2.992622802734375,-0.02641119994223118,0.01676749624311924,0.00866464339196682
1772094044884572700,3.00257275390625,-0.028667429462075233,0.008620353415608406,-0.0032380884513258934
1772094044894521600,3.012521484375,-0.027506088837981224,-0.0027265967801213264,-0.009919512085616589
1772094044904471000,3.022470947265625,-0.029432086274027824,-0.0136687271296978,-0.020289594307541847
1772094044914420000,3.032419921875,-0.027936749160289764,-0.013843925669789314,-0.03829552233219147
1772094044924369000,3.042368896484375,-0.022149700671434402,-0.005572146270424128,-0.061869826167821884
1772094044934317800,3.05231787109375,-0.026329724118113518,0.007169834338128567,-0.07414784282445908
1772094044944267800,3.062267822265625,-0.028249863535165787,0.009481724351644516,-0.07325168699026108
1772094044954216700,3.072216796875,-0.027758721262216568,-0.003613764885812998,-0.06440173089504242
1772094044964166000,3.082165771484375,-0.019174819812178612,-0.012837622314691544,-0.0599939301609993
1772094044974114800,3.09211474609375,-0.01505543477833271,-0.014705350622534752,-0.05252768471837044
1772094044984063700,3.102063720703125,-0.016658658161759377,-0.019067607820034027,-0.049916189163923264
1772094044994013700,3.112013671875,-0.015124289318919182,-0.0057127089239656925,-0.04686592519283295
1772094045003963000,3.121962890625,-0.01715654879808426,0.00035050930455327034,-0.03206807002425194
1772094045013911800,3.131911865234375,-0.01188182458281517,-0.006253897678107023,-0.0033755400218069553
1772094045023861000,3.141861083984375,-0.007373092696070671,-0.00895567424595356,0.021899988874793053
1772094045033810000,3.151809814453125,0.0016289185732603073,0.00009353365749120712,0.040008075535297394
1772094045043758800,3.1617587890625,-0.003396999090909958,0.00676208920776844,0.04731179401278496
1772094045053708800,3.171708740234375,-0.008035518229007721,0.0002911579795181751,0.0465627983212471
1772094045063657700,3.18165771484375,-0.00838705524802208,-0.004500934388488531,0.04095204919576645
1772094045073606700,3.191606689453125,-0.006627833470702171,-0.00841260515153408,0.028333373367786407
1772094045083555800,3.201555908203125,-0.008623339235782623,-0.00103804562240839,-0.0042115189135074615
1772094045093505000,3.211505126953125,-0.009228568524122238,0.009251222014427185,-0.04092957824468613
1772094045103454700,3.221454833984375,-0.015145846642553806,0.01373065821826458,-0.06640191376209259
1772094045113404000,3.23140380859375,-0.011441275477409363,0.010530868545174599,-0.06788097321987152
1772094045123352800,3.241352783203125,-0.012120116502046585,0.0003317599184811115,-0.049831125885248184
1772094045133301800,3.2513017578125,-0.011642640456557274,-0.013429820537567139,-0.03057756833732128
1772094045143251000,3.2612509765625,-0.011882323771715164,-0.017375826835632324,-0.017495321109890938
1772094045153199900,3.271199951171875,-0.01327427476644516,-0.011174621060490608,-0.011806240305304527
1772094045163149800,3.28114990234375,-0.014394400641322136,-0.0022719395346939564,-0.005047937389463186
1772094045173098800,3.2910986328125,-0.01782391034066677,0.011177378706634045,-0.000007020309567451477
1772094045183047700,3.301047607421875,-0.02190733700990677,0.021485410630702972,0.007322531659156084
1772094045192996900,3.310996826171875,-0.026502443477511406,0.025816526263952255,0.005129836034029722
1772094045202946000,3.320946044921875,-0.027500329539179802,0.03362544625997543,0.001460799016058445
1772094045212895700,3.330895751953125,-0.029143862426280975,0.043921299278736115,-0.0038915490731596947
1772094045222845000,3.340844970703125,-0.030150003731250763,0.045614004135131836,-0.0017543621361255646
1772094045232793900,3.3507939453125,-0.0299450121819973,0.03044840134680271,0.016446048393845558
1772094045242742800,3.36074267578125,-0.025575030595064163,0.013374608010053635,0.024562831968069077
1772094045252691700,3.370691650390625,-0.022554807364940643,0.0009297840297222137,0.019221719354391098
1772094045262640600,3.380640625,-0.018770720809698105,-0.00044786930084228516,-0.005214646924287081
1772094045272590800,3.3905908203125,-0.01915035769343376,-0.0025758417323231697,-0.028312815353274345
1772094045282539800,3.400539794921875,-0.017294932156801224,-0.012690527364611626,-0.04198441654443741
1772094045292488700,3.41048876953125,-0.011686582118272781,-0.013029281049966812,-0.04014923423528671
1772094045302438000,3.42043798828125,-0.011972606182098389,-0.021064303815364838,-0.036623209714889526
1772094045312386800,3.43038671875,-0.007036079652607441,-0.023493923246860504,-0.030972398817539215
1772094045322337000,3.4403369140625,-0.00710265850648284,-0.025181304663419724,-0.025749407708644867
1772094045332286000,3.450285888671875,-0.004278695210814476,-0.024654867127537727,-0.018280576914548874
1772094045342235000,3.46023486328125,-0.009255610406398773,-0.0304416511207819,-0.01088684145361185
1772094045352183800,3.470183837890625,-0.00748876016587019,-0.03548106178641319,-0.007139689289033413
1772094045362132700,3.4801328125,-0.009112754836678505,-0.03035447746515274,-0.01482610497623682
1772094045372082700,3.490082763671875,-0.008997688069939613,-0.01675364375114441,-0.023687899112701416
1772094045382032000,3.500031982421875,-0.013414274901151657,-0.009004643186926842,-0.035485170781612396
1772094045391980800,3.509980712890625,-0.018491225317120552,0.005153450649231672,-0.03959795832633972
1772094045401929700,3.5199296875,-0.024353642016649246,0.015451628714799881,-0.02610478736460209
1772094045411879000,3.52987890625,-0.023211456835269928,-0.0035525476559996605,-0.00724154245108366
1772094045421827800,3.539827880859375,-0.018631085753440857,-0.005884144455194473,0.008489217609167099
1772094045431777800,3.54977783203125,-0.01598069630563259,-0.0058874464593827724,0.014159778133034706
1772094045441727000,3.55972705078125,-0.011713246814906597,0.0008426276035606861,0.0021198925096541643
1772094045451676000,3.569676025390625,-0.008701438084244728,0.014685118570923805,-0.0108450623229146
1772094045461624800,3.579624755859375,-0.011068988591432571,0.013671519234776497,-0.007678563706576824
1772094045471573800,3.58957373046875,-0.010633561760187149,0.00942244566977024,-0.0038132518529891968
1772094045481523700,3.599523681640625,-0.011515600606799126,-0.0005849148146808147,-0.001895509660243988
1772094045491472600,3.60947265625,-0.00846010074019432,-0.0039988053031265736,-0.004595607984811068
1772094045501421800,3.619421875,-0.005860323552042246,0.004901212640106678,0.0036620553582906723
1772094045511371000,3.62937109375,-0.009791203774511814,0.0019336366094648838,0.020823650062084198
1772094045521320000,3.63931982421875,-0.01588398404419422,-0.0010605556890368462,0.02470121532678604
1772094045531270000,3.649269775390625,-0.0161475520581007,0.007259993813931942,0.01286403089761734
1772094045541218800,3.65921875,-0.018991276621818542,0.016699034720659256,0.001207907684147358
1772094045551167700,3.669167724609375,-0.022764526307582855,0.017761334776878357,-0.006687335669994354
1772094045561117000,3.679116943359375,-0.025113699957728386,0.01584945246577263,-0.0017343885265290737
1772094045571065900,3.68906591796875,-0.033532485365867615,0.0251912884414196,-0.0032750265672802925
1772094045581014800,3.699014892578125,-0.040030065923929214,0.035808779299259186,-0.003434816375374794
1772094045590964700,3.70896484375,-0.03703142702579498,0.022325370460748672,0.0037083555944263935
1772094045600913700,3.71891357421875,-0.028787877410650253,0.014091409742832184,0.025063712149858475
1772094045610862800,3.72886279296875,-0.019237520173192024,-0.00010931026190519333,0.0320642851293087
1772094045620812000,3.73881201171875,-0.011058153584599495,0.002645729808136821,0.036853447556495667
1772094045630761000,3.748760986328125,-0.00570665905252099,0.005786180961877108,0.023251470178365707
1772094045640711000,3.7587109375,-0.005783091764897108,0.013893375173211098,0.017945652827620506
1772094045650659800,3.768659912109375,-0.005628759972751141,0.016861574724316597,0.010470198467373848
1772094045660608800,3.77860888671875,-0.012848589569330215,0.015709225088357925,0.01090109720826149
1772094045670557700,3.7885576171875,-0.007177895866334438,0.006842303089797497,0.015215562656521797
1772094045680507000,3.7985068359375,-0.00904929917305708,-0.007125178351998329,0.022068407386541367
1772094045690457000,3.80845703125,-0.009932441636919975,-0.0072169676423072815,0.018548397347331047
1772094045700406300,3.81840625,-0.01796347089111805,0.0006436184048652649,0.004785447381436825
1772094045710355200,3.828355224609375,-0.016882799565792084,0.008276592940092087,-0.0017814873717725277
1772094045720304000,3.83830419921875,-0.014405259862542152,0.012580527924001217,-0.00930571649223566
1772094045730253300,3.84825341796875,-0.01029321551322937,0.015356021001935005,-0.008305816911160946
1772094045740202200,3.8582021484375,-0.00821914616972208,0.006301006767898798,-0.008634451776742935
1772094045750152200,3.868152099609375,-0.00739901652559638,-0.0037995106540620327,-0.005756521597504616
1772094045760101400,3.878101318359375,-0.013634808361530304,-0.004915374796837568,-0.01177153643220663
1772094045770050300,3.88805029296875,-0.015736307948827744,-0.010484045371413231,-0.016512494534254074
1772094045779999200,3.897999267578125,-0.017894534394145012,-0.02100273221731186,-0.02341381087899208
1772094045789948200,3.9079482421875,-0.02404053695499897,-0.033224865794181824,-0.02950221858918667
1772094045799898000,3.917898193359375,-0.01971476525068283,-0.02435174584388733,-0.03763311728835106
1772094045809847000,3.927846923828125,-0.019672103226184845,-0.044854819774627686,-0.040485091507434845
1772094045819796000,3.9377958984375,-0.006256163120269775,-0.05583023652434349,-0.044101133942604065
1772094045829745400,3.947745361328125,-0.011568542569875717,-0.04878491908311844,-0.050776153802871704
1772094045839694300,3.9576943359375,-0.0223037451505661,-0.023408988490700722,-0.05015696957707405
1772094045849643300,3.967643310546875,-0.024432646110653877,-0.020538881421089172,-0.02004518173635006
1772094045859593200,3.97759326171875,-0.02119743824005127,-0.028503596782684326,0.009041063487529755
1772094045869542100,3.987542236328125,-0.009835990145802498,-0.012887511402368546,0.04183713346719742
1772094045879491000,3.997490966796875,0.0037410715594887733,0.01242050714790821,0.05663898214697838
1772094045889440300,4.007440185546875,0.010150844231247902,0.03236740455031395,0.07146582007408142
1772094045899389200,4.01738916015625,0.01658637262880802,0.045694127678871155,0.08054666966199875
1772094045909339100,4.027339111328125,0.011543606407940388,0.0715777799487114,0.0786447674036026
1772094045919288000,4.0372880859375,0.002366353292018175,0.08426481485366821,0.06630393862724304
1772094045929237200,4.0472373046875,-0.0034636096097528934,0.08841591328382492,0.0495733916759491
1772094045939186200,4.057186279296875,-0.004984274506568909,0.08292048424482346,0.033249013125896454
1772094045949135400,4.06713525390625,-0.005569817498326302,0.07478722929954529,0.024823341518640518
1772094045959085300,4.077085205078125,-0.007779441773891449,0.058038074523210526,0.0180373415350914
1772094045969034200,4.0870341796875,-0.010629823431372643,0.03807901591062546,0.02001713588833809
1772094045978983200,4.096983154296875,-0.005728275515139103,0.019451536238193512,0.014500398188829422
1772094045988932000,4.10693212890625,-0.0056448825635015965,0.011794114485383034,0.009586900472640991
1772094045998881000,4.116881103515625,-0.0032147481106221676,-0.006131090689450502,0.006640645209699869
1772094046008830200,4.126830322265625,0.0027873581275343895,-0.02324344590306282,0.0003197495825588703
1772094046018780200,4.1367802734375,-0.004374947398900986,-0.023529469966888428,-0.015773998573422432
1772094046028729000,4.14672900390625,-0.0075353835709393024,-0.028592634946107864,-0.029331248253583908
1772094046038678300,4.15667822265625,-0.017900405451655388,-0.0224820114672184,-0.042497385293245316
1772094046048627200,4.166627197265625,-0.02445593848824501,-0.01785995438694954,-0.047095056623220444
1772094046058576100,4.176576171875,-0.020324043929576874,-0.024951685220003128,-0.03872128203511238
1772094046068526300,4.1865263671875,-0.0119481785222888,-0.02986166626214981,-0.016757505014538765
1772094046078475300,4.196475341796875,-0.0062418230809271336,-0.04130633547902107,0.005458318628370762
1772094046088424200,4.206424072265625,-0.0032500694505870342,-0.04046016186475754,0.009574120864272118
1772094046098373000,4.216373046875,-0.002531814854592085,-0.030285287648439407,0.0012829010374844074
1772094046108322000,4.226322021484375,-0.005703517701476812,-0.020275261253118515,-0.007939820177853107
1772094046118272300,4.236272216796875,-0.008369341492652893,0.001853741705417633,-0.01053533609956503
1772094046128221200,4.24622119140625,-0.015392620116472244,0.007252926006913185,-0.014025254175066948
1772094046138170400,4.25617041015625,-0.016119662672281265,0.017259754240512848,-0.010443834587931633
1772094046148119300,4.266119384765625,-0.015281038358807564,0.009075114503502846,0.004691098816692829
1772094046158068200,4.276068115234375,-0.007072643376886845,0.00011464348062872887,0.021021869033575058
1772094046168018200,4.28601806640625,-0.003065294586122036,-0.010056253522634506,0.019374817609786987
1772094046177967400,4.29596728515625,0.0013819183222949505,-0.024504967033863068,0.012675902806222439
1772094046187916300,4.305916259765625,0.007794372737407684,-0.043589308857917786,-0.00930396281182766
1772094046197865200,4.315865234375,0.016081862151622772,-0.05456286296248436,-0.04051461070775986
1772094046207814100,4.325814208984375,0.017108723521232605,-0.07436342537403107,-0.055322207510471344
1772094046217764000,4.33576416015625,0.01732337474822998,-0.06908690929412842,-0.06246320903301239
1772094046227713000,4.345713134765625,0.010067465715110302,-0.06938113272190094,-0.07245340943336487
1772094046237662200,4.355662109375,0.009723384864628315,-0.06952068209648132,-0.06855214387178421
1772094046247611400,4.365611328125,0.011073607951402664,-0.06919310986995697,-0.056536491960287094
1772094046257560300,4.375560302734375,0.020836222916841507,-0.07315109670162201,-0.04085233807563782
1772094046267509200,4.38550927734375,0.037313736975193024,-0.0797463208436966,-0.023647291585803032
1772094046277459200,4.395459228515625,0.04812617227435112,-0.06612744182348251,-0.009654778987169266
1772094046287408000,4.405408203125,0.045094411820173264,-0.05069649964570999,0.002378518460318446
1772094046297357300,4.415357421875,0.03813663497567177,-0.031637053936719894,0.007622815202921629
1772094046307306200,4.42530615234375,0.02535565197467804,-0.008348546922206879,0.01695442572236061
1772094046317255200,4.435255126953125,0.015331247821450233,0.011032341979444027,0.02489304170012474
1772094046327205000,4.445205078125,0.0058434936217963696,0.02372477389872074,0.039232440292835236
1772094046337154000,4.455154052734375,-0.0010642139241099358,0.02647928148508072,0.05212107300758362
1772094046347103200,4.465103271484375,0.00009459443390369415,0.037120915949344635,0.06002157926559448
1772094046357052200,4.47505224609375,-0.0053121550008654594,0.04148716852068901,0.061658091843128204
1772094046367001300,4.48500146484375,-0.00579311978071928,0.03973608464002609,0.059819258749485016
1772094046376951300,4.494951416015625,-0.01074899546802044,0.038250043988227844,0.04944917559623718
1772094046386900200,4.504900146484375,-0.007412503007799387,0.032639652490615845,0.03392690420150757
1772094046396849200,4.51484912109375,-0.00565295247361064,0.025167886167764664,0.022998353466391563
1772094046406798000,4.524798095703125,-0.0062999180518090725,0.014981147833168507,0.0143586415797472
1772094046416747000,4.5347470703125,-0.005055156536400318,0.007636682130396366,0.0028410025406628847
1772094046426697200,4.544697265625,-0.004191850312054157,0.0061768121086061,-0.008926630951464176
1772094046436646100,4.554646240234375,-0.007134643383324146,0.004352280404418707,-0.011506968177855015
1772094046446595000,4.564594970703125,-0.007905237376689911,0.0004528830759227276,-0.009453064762055874
1772094046456544300,4.574544189453125,-0.005097200628370047,-0.0010848264209926128,0.0000046193599700927734
1772094046466493200,4.5844931640625,-0.0029797134920954704,-0.007349755149334669,0.005602471996098757
1772094046476443400,4.594443359375,-0.0015157738234847784,-0.0021699066273868084,0.012855058535933495
1772094046486392300,4.604392333984375,-0.003103947499766946,0.0005657416768372059,0.01985928788781166
1772094046496341200,4.61434130859375,-0.0038967705331742764,0.004358615726232529,0.02099805325269699
1772094046506290200,4.624290283203125,-0.010367676615715027,0.009129848331212997,0.018343262374401093
1772094046516239000,4.634239013671875,-0.01252590212970972,0.01619521528482437,0.013951178640127182
1772094046526188000,4.64418798828125,-0.018868576735258102,0.029993869364261627,0.010490553453564644
1772094046536138200,4.65413818359375,-0.023284897208213806,0.028951242566108704,0.020898718386888504
1772094046546087200,4.664087158203125,-0.017919205129146576,0.02508452907204628,0.03320625051856041
1772094046556036400,4.674036376953125,-0.021763212978839874,0.032818615436553955,0.044307369738817215
1772094046565985300,4.6839853515625,-0.018450556322932243,0.03526279330253601,0.0499735102057457
1772094046575934200,4.693934326171875,-0.022029845044016838,0.030053917318582535,0.053029485046863556
1772094046585884200,4.70388427734375,-0.018390581011772156,0.026693500578403473,0.04478396475315094
1772094046595833300,4.713833251953125,-0.017554614692926407,0.03205497935414314,0.027611633762717247
1772094046605782300,4.7237822265625,-0.019858520478010178,0.03127078711986542,0.013703122735023499
1772094046615731200,4.733731201171875,-0.015520230866968632,0.01937471330165863,0.01223971601575613
1772094046625680100,4.74368017578125,-0.014006086625158787,0.009522398933768272,0.007599272765219212
1772094046635630000,4.753630126953125,-0.013552816584706306,-0.004889563657343388,0.0058149551041424274
1772094046645579000,4.7635791015625,-0.010838476940989494,-0.009342890232801437,-0.0052117896266281605
1772094046655528200,4.773528076171875,-0.01346089318394661,-0.015023145824670792,-0.01151256263256073
1772094046665477400,4.783477294921875,-0.013295255601406097,-0.022477056831121445,-0.019841980189085007
1772094046675426300,4.79342626953125,-0.01710943505167961,-0.020135872066020966,-0.02630946785211563
1772094046685376300,4.803376220703125,-0.01361016370356083,-0.017130233347415924,-0.035537127405405045
1772094046695328500,4.81332861328125,-0.011647414416074753,-0.01813557744026184,-0.037706006318330765
1772094046705277400,4.82327734375,-0.01072755828499794,-0.016847671940922737,-0.03039482794702053
1772094046715226400,4.833226318359375,-0.015046406537294388,-0.015866829082369804,-0.02640754170715809
1772094046725175300,4.84317529296875,-0.020849432796239853,-0.0013625663705170155,-0.01684025302529335
1772094046735125500,4.85312548828125,-0.028819475322961807,-0.0021218336187303066,-0.0013678199611604214
1772094046745074400,4.863074462890625,-0.029156412929296494,0.005092656705528498,0.010632841847836971
1772094046755023400,4.8730234375,-0.01709096133708954,0.01507631503045559,0.024082869291305542
1772094046764972500,4.88297265625,-0.015118265524506569,0.024538928642868996,0.039503369480371475
1772094046774921500,4.89292138671875,-0.010649748146533966,0.026226840913295746,0.05029769241809845
1772094046784871400,4.902871337890625,-0.009881606325507164,0.026298895478248596,0.057272136211395264
1772094046794820600,4.912820556640625,-0.007619517855346203,0.028140204027295113,0.055656664073467255
1772094046804769500,4.92276953125,-0.012622617185115814,0.03617854043841362,0.04272845759987831
1772094046814718500,4.932718505859375,-0.01880408078432083,0.04244282841682434,0.025256523862481117
1772094046824667400,4.94266748046875,-0.023355653509497643,0.049639832228422165,0.013388831168413162
1772094046834617300,4.952617431640625,-0.022602245211601257,0.0369754359126091,0.014102557674050331
1772094046844566300,4.962566162109375,-0.01077620405703783,0.018476899713277817,0.024941129609942436
1772094046854515500,4.972515380859375,-0.006947909947484732,0.006388278212398291,0.030109260231256485
1772094046864464600,4.982464599609375,-0.005005444400012493,0.0002919691614806652,0.02418825402855873
1772094046874413600,4.99241357421875,-0.010169314220547676,0.0033689853735268116,0.009947533719241619
1772094046884363500,5.002363525390625,-0.012158739380538464,0.0032566862646490335,-0.0005638115108013153
1772094046894312400,5.0123125,-0.014520697295665741,0.002071313327178359,-0.005187592003494501
1772094046904261400,5.022261474609375,-0.009576145559549332,-0.011710749939084053,-0.0027159126475453377
1772094046914210600,5.03221044921875,-0.004153683315962553,-0.02091010846197605,-0.0004173377528786659
1772094046924159500,5.042159423828125,0.000708410982042551,-0.02219851315021515,-0.0031820023432374
1772094046934109400,5.052109375,-0.0004607168957591057,-0.021937787532806396,-0.0035018473863601685
1772094046944058400,5.062058349609375,-0.0010653871577233076,-0.01772163435816765,-0.006646204274147749
1772094046954007300,5.07200732421875,-0.0004936063196510077,-0.012000365182757378,-0.003416588995605707
1772094046963956500,5.08195654296875,0.006171973422169685,-0.006787561345845461,0.0032271987292915583
1772094046973905700,5.09190576171875,0.004181792959570885,-0.0013832091353833675,0.010812414810061455
1772094046983855400,5.10185546875,0.006907940376549959,0.005391922313719988,0.018572714179754257
1772094046993804500,5.111804443359375,0.014568788930773735,0.008205018937587738,0.019456349313259125
1772094047003753500,5.12175341796875,0.019328035414218903,0.007841937243938446,0.024917731061577797
1772094047013702400,5.131702392578125,0.023194145411252975,0.009680316783487797,0.02271982468664646
1772094047023651300,5.1416513671875,0.02560199424624443,0.0024766705464571714,0.021919356659054756
1772094047033601500,5.1516015625,0.02898128144443035,-0.0012176665477454662,0.02110362984240055
1772094047043550500,5.161550537109375,0.02796306647360325,-0.004810362588614225,0.005624044220894575
1772094047053499400,5.17149951171875,0.027234161272644997,-0.0014763507060706615,-0.00925956480205059
1772094047063448300,5.1814482421875,0.029505392536520958,-0.00894372072070837,-0.016046632081270218
1772094047073397500,5.1913974609375,0.03437631577253342,-0.010545345023274422,-0.019112996757030487
1772094047083347500,5.201347412109375,0.039317190647125244,-0.010389531031250954,-0.01761561445891857
1772094047093296600,5.211296630859375,0.036618877202272415,-0.01415310986340046,-0.01489492878317833
1772094047103245600,5.22124560546875,0.032150134444236755,-0.006415382027626038,-0.01057942770421505
1772094047113194500,5.231194580078125,0.02260509878396988,-0.0036100083962082863,-0.006648336071521044
1772094047123143400,5.241143310546875,0.014084759168326855,-0.001743057742714882,-0.0002529439516365528
1772094047133093400,5.25109326171875,0.008270013146102428,-0.004788115620613098,0.001431505661457777
1772094047143042600,5.26104248046875,0.008974908851087093,-0.003190399147570133,0.0004811757244169712
1772094047152991500,5.270991455078125,0.01427433267235756,0.007820174098014832,0.0013874494470655918
1772094047162940400,5.2809404296875,0.008227404206991196,0.019263844937086105,0.011182021349668503
1772094047172889300,5.290889404296875,-0.0013027184177190065,0.01771441660821438,0.03256906941533089
1772094047182839300,5.30083935546875,-0.002982241101562977,0.011263127438724041,0.04796788468956947
1772094047192788500,5.31078857421875,-0.004919424187391996,0.00948147289454937,0.04889333248138428
1772094047202737700,5.320737548828125,0.00749396625906229,-0.000060150399804115295,0.03746186941862106
1772094047212686600,5.3306865234375,0.0029668589122593403,0.000897522084414959,0.01782691478729248
1772094047222635500,5.340635498046875,-0.000965517945587635,0.011888343840837479,0.0030891308560967445
1772094047232585500,5.35058544921875,-0.01333217229694128,0.004316177684813738,0.002677672542631626
1772094047242534400,5.360534423828125,-0.016013264656066895,-0.0017368458211421967,0.0020828007254749537
1772094047252483300,5.3704833984375,-0.011463254690170288,-0.0009970194660127163,-0.0018051480874419212
1772094047262432300,5.380432373046875,0.0028772461228072643,0.0014339324552565813,-0.014035562984645367
1772094047272381400,5.39038134765625,0.009698400273919106,0.0003186003305017948,-0.02099839597940445
1772094047282331400,5.400331298828125,0.016729675233364105,0.0016904508229345083,-0.023139387369155884
1772094047292280300,5.4102802734375,0.01335918065160513,0.002435869537293911,-0.025216922163963318
1772094047302229500,5.4202294921875,0.005025528836995363,-0.0071081374771893024,-0.01894601434469223
1772094047312178400,5.430178466796875,-0.0014720517210662365,-0.01370159164071083,-0.0121416375041008
1772094047322127400,5.44012744140625,-0.006601477041840553,-0.009812709875404835,-0.010007649660110474
1772094047332077600,5.45007763671875,-0.01164044439792633,-0.009858782403171062,-0.0133533775806427
1772094047342026500,5.460026611328125,-0.008824596181511879,0.002076953649520874,-0.010820066556334496
1772094047351975400,5.469975341796875,-0.009687460958957672,0.002475362503901124,-0.0024281800724565983
1772094047361924400,5.47992431640625,-0.005739988759160042,-0.004346905276179314,0.004060501232743263
1772094047371873300,5.489873291015625,-0.005325866863131523,-0.00263848714530468,0.0008987965993583202
1772094047381823500,5.499823486328125,-0.004766558762639761,0.005742394365370274,-0.00665487814694643
1772094047391772400,5.5097724609375,-0.006376706063747406,0.013085528276860714,-0.006493757478892803
1772094047401721600,5.5197216796875,-0.01104860007762909,0.012262060306966305,-0.0020080809481441975
1772094047411670500,5.52967041015625,-0.013153563253581524,0.015488746576011181,0.006613103672862053
1772094047421619500,5.539619384765625,-0.009033121168613434,0.016233518719673157,0.005066754296422005
1772094047431569400,5.5495693359375,-0.007611526176333427,0.01853555627167225,0.0008770693093538284
1772094047441518600,5.5595185546875,-0.005613002926111221,0.018962441012263298,0.003982961177825928
1772094047451467500,5.569467529296875,-0.004873176570981741,0.0004702494479715824,0.012165524065494537
1772094047461416400,5.57941650390625,-0.007570468820631504,-0.011120314709842205,0.006381256505846977
1772094047471366400,5.589366455078125,-0.013596137054264545,-0.00985371507704258,-0.007837359793484211
1772094047481315300,5.5993154296875,-0.017357897013425827,-0.007471906952559948,-0.027443740516901016
1772094047491264300,5.60926416015625,-0.01796642877161503,-0.004597557708621025,-0.04117420315742493
1772094047501213400,5.61921337890625,-0.021060889586806297,-0.008053815923631191,-0.03496219217777252
1772094047511162600,5.62916259765625,-0.015642687678337097,-0.0242594163864851,-0.023004863411188126
1772094047521111600,5.639111572265625,-0.009617151692509651,-0.0252259261906147,-0.00929342396557331
1772094047531061500,5.6490615234375,-0.005800309125334024,-0.03664582595229149,-0.0030128913931548595
1772094047541010400,5.659010498046875,-0.004402992781251669,-0.044157132506370544,-0.007804641500115395
1772094047550959400,5.66895947265625,-0.003825885709375143,-0.04118877276778221,-0.012614310719072819
1772094047560908500,5.678908447265625,-0.007149999961256981,-0.036366142332553864,-0.02218559756875038
1772094047570858500,5.6888583984375,-0.005589387845247984,-0.0301364716142416,-0.022001838311553
1772094047580807400,5.698807373046875,-0.014653102494776249,-0.025678839534521103,-0.026809338480234146
1772094047590756400,5.70875634765625,-0.016039278358221054,-0.013377430848777294,-0.03478630259633064
1772094047600705300,5.718705322265625,-0.017358072102069855,0.005014991387724876,-0.03228190913796425
1772094047610654500,5.728654541015625,-0.01793038658797741,0.015488671138882637,-0.017329856753349304
1772094047620604400,5.7386044921875,-0.0166550874710083,0.01618122309446335,-0.0026140259578824043
1772094047630553600,5.7485537109375,-0.010464836843311787,0.01999007724225521,0.004830041900277138
1772094047640502500,5.75850244140625,0.000746049452573061,0.02433178201317787,0.007934103719890118
1772094047650451500,5.768451416015625,-0.007703627925366163,0.026954997330904007,0.01195121556520462
1772094047660400400,5.778400390625,-0.01126866601407528,0.031461816281080246,0.014725053682923317
1772094047670349300,5.788349365234375,-0.01957160234451294,0.033678632229566574,0.01113777607679367
1772094047680299500,5.798299560546875,-0.020824089646339417,0.03760732710361481,0.00869272742420435
1772094047690245000,5.8082451171875,-0.01621655374765396,0.02710035815834999,0.0054854825139045715
1772094047700194300,5.8181943359375,-0.004412984941154718,0.023011453449726105,-0.0026152138598263264
1772094047710143200,5.828143310546875,0.002724819350987673,0.0042904955334961414,0.0010626115836203098
1772094047720093200,5.83809326171875,0.003153192810714245,-0.01630377396941185,0.002385027939453721
1772094047730042000,5.8480419921875,-0.001442890614271164,-0.020295053720474243,-0.009320897050201893
1772094047739991300,5.8579912109375,-0.009961675852537155,-0.014989076182246208,-0.02152486890554428
1772094047749940200,5.867940185546875,-0.023253511637449265,-0.010653717443346977,-0.03145766258239746
1772094047759889400,5.877889404296875,-0.02058742195367813,-0.0048309811390936375,-0.035509660840034485
1772094047769839400,5.88783935546875,-0.019608445465564728,0.0018796517979353666,-0.028879186138510704
1772094047779788300,5.897788330078125,-0.004964128136634827,-0.002258645836263895,-0.017730746418237686
1772094047789737200,5.9077373046875,0.0052160718478262424,-0.004380918573588133,-0.005408568307757378
1772094047799686100,5.91768603515625,0.013204004615545273,-0.005578893236815929,0.011317798867821693
1772094047809635000,5.927635009765625,0.013044748455286026,-0.009815981611609459,0.016987401992082596
1772094047819585300,5.937585205078125,0.015615144744515419,-0.006471128202974796,0.014718053862452507
1772094047829534200,5.9475341796875,0.014857208356261253,-0.00330542866140604,0.0022193067707121372
1772094047839483100,5.957483154296875,0.011100017465651035,0.010156162083148956,-0.008381292223930359
1772094047849432300,5.967432373046875,0.007417931221425533,0.009144160896539688,-0.013616267591714859
1772094047859381200,5.97738134765625,0.007509192917495966,0.018300550058484077,-0.01515154168009758
1772094047869331500,5.98733154296875,0.009095903486013412,0.011258885264396667,-0.012897443026304245
1772094047879280400,5.9972802734375,0.014800081960856915,0.00259741791523993,-0.010115770623087883
1772094047889229300,6.007229248046875,0.013777161948382854,0.0013273563235998154,-0.013181069865822792
1772094047899178200,6.01717822265625,0.009806834161281586,0.003962250892072916,-0.01892501302063465
1772094047909127200,6.027127197265625,0.009852640330791473,0.006677876226603985,-0.020566584542393684
1772094047919077000,6.0370771484375,0.0034082350321114063,-0.0024252249859273434,-0.023887168616056442
1772094047929026000,6.047026123046875,-0.0024459254927933216,-0.01974322833120823,-0.01581566035747528
1772094047938975200,6.056975341796875,0.0015843692235648632,-0.025128131732344627,-0.010405635461211205
1772094047948924400,6.06692431640625,-0.006444262340664864,-0.027712730690836906,-0.0077193062752485275
1772094047958873300,6.076873291015625,-0.004896305035799742,-0.0354144461452961,-0.00924842618405819
1772094047968823300,6.0868232421875,-0.008556554093956947,-0.03466343507170677,-0.014778213575482368
1772094047978772200,6.096772216796875,-0.0173465758562088,-0.020576685667037964,-0.026974719017744064
1772094047988721200,6.10672119140625,-0.017130861058831215,-0.007278189994394779,-0.027526527643203735
1772094047998670300,6.11667041015625,-0.024613015353679657,-0.0007262257859110832,-0.022402148693799973
1772094048008619300,6.126619384765625,-0.027346480637788773,0.012895310297608376,-0.007716946769505739
1772094048018569200,6.1365693359375,-0.030239738523960114,0.019165344536304474,0.006579851731657982
1772094048028518100,6.14651806640625,-0.030429091304540634,0.02943156659603119,0.01487346738576889
1772094048038467000,6.156467041015625,-0.022744011133909225,0.021342912688851357,0.03225436061620712
1772094048048416300,6.166416259765625,-0.013568621128797531,0.013328662142157555,0.04134772717952728
1772094048058365400,6.176365478515625,-0.003691174555569887,0.012764085084199905,0.045935094356536865
1772094048068315400,6.1863154296875,-0.000631734961643815,0.015399282798171043,0.03988545760512352
1772094048078264300,6.196264404296875,-0.0011611718218773603,0.016131272539496422,0.0281011201441288
1772094048088213200,6.206213134765625,0.0022327606566250324,0.013400733470916748,0.010245691053569317
1772094048098162200,6.216162109375,0.0019025737419724464,0.014350920915603638,0.0002913679927587509
1772094048108111000,6.226111083984375,0.005114878993481398,0.01105046458542347,-0.003148903138935566
1772094048118061300,6.236061279296875,0.011193633079528809,0.00480474391952157,-0.0059013585560023785
1772094048128010200,6.24601025390625,0.016651248559355736,-0.0017932374030351639,-0.012532096356153488
1772094048137959200,6.255959228515625,0.02328353561460972,0.00018633436411619186,-0.019083889201283455
1772094048147908000,6.265908203125,0.02089281752705574,0.0030329872388392687,-0.012328781187534332
1772094048157857300,6.275857177734375,0.029832342639565468,0.0032637533731758595,-0.0047148047015070915
1772094048167807200,6.28580712890625,0.02780274860560894,0.011646319180727005,0.009808743372559547
1772094048177756400,6.29575634765625,0.025872396305203438,0.015149288810789585,0.029628098011016846
1772094048187705300,6.305705322265625,0.020267507061362267,0.0183354951441288,0.04049299657344818
1772094048197654300,6.315654296875,0.01628412865102291,0.03414270654320717,0.03326825797557831
1772094048207603200,6.325603271484375,0.010415321215987206,0.0450398288667202,0.023616695776581764
1772094048217553200,6.33555322265625,0.007976622320711613,0.03965863585472107,0.02179795317351818
1772094048227502300,6.34550244140625,0.009041620418429375,0.04645289108157158,0.018314272165298462
1772094048237451300,6.355451171875,0.009477222338318825,0.047393690794706345,0.01838674396276474
1772094048247400200,6.365400146484375,0.004130661021918058,0.03343020752072334,0.018788348883390427
1772094048257349400,6.375349365234375,-0.003339858725667,0.025363091379404068,0.013054833747446537
1772094048267299000,6.385299072265625,-0.009066187776625156,0.02140217274427414,0.005015815608203411
1772094048277248300,6.395248291015625,-0.021501686424016953,0.03450721502304077,-0.0026418748311698437
1772094048287197400,6.405197509765625,-0.029628589749336243,0.048663780093193054,-0.010012440383434296
1772094048297146400,6.415146484375,-0.03418348357081413,0.046609438955783844,-0.00439062062650919
1772094048307096300,6.425096435546875,-0.03222765773534775,0.052993834018707275,0.0073022544384002686
1772094048317045200,6.435045166015625,-0.026726460084319115,0.041155409067869186,0.01362220011651516
1772094048326994200,6.444994140625,-0.018788110464811325,0.0308215469121933,0.028504475951194763
1772094048336943000,6.454943115234375,-0.02047184482216835,0.017197564244270325,0.026909315958619118
1772094048346892300,6.464892333984375,-0.016904005780816078,0.020559005439281464,0.014079537242650986
1772094048356842200,6.47484228515625,-0.020229360088706017,0.030630767345428467,0.0033021466806530952
1772094048366791200,6.484791259765625,-0.016786426305770874,0.039948370307683945,-0.005086011718958616
1772094048376740000,6.494739990234375,-0.013536348007619381,0.04341088607907295,-0.012657834216952324
1772094048386689300,6.504689208984375,-0.011825533583760262,0.04603090509772301,-0.013488475233316422
1772094048396638200,6.51463818359375,-0.009939750656485558,0.042014170438051224,-0.004040796309709549
1772094048406588400,6.52458837890625,-0.001480219652876258,0.028005944564938545,0.009637465700507164
1772094048416537300,6.534537353515625,0.010529839433729649,0.017977965995669365,0.01613546349108219
1772094048426486300,6.544486328125,0.020213890820741653,0.005121289286762476,0.022650355473160744
1772094048436435200,6.554435302734375,0.022030919790267944,-0.004014431033283472,0.01055260468274355
1772094048446384000,6.564384033203125,0.0233268141746521,-0.0020692581310868263,-0.010148944333195686
1772094048456334300,6.574334228515625,0.014873899519443512,0.0037785423919558525,-0.036358218640089035
1772094048466283300,6.584283203125,0.014592936262488365,0.012858057394623756,-0.04226510971784592
1772094048476232200,6.594232177734375,0.010499169118702412,0.015028446912765503,-0.03073776513338089
1772094048486181400,6.604181396484375,0.016635622829198837,0.012765824794769287,-0.011112933047115803
1772094048496130300,6.61413037109375,0.024168282747268677,0.012104636058211327,-0.0012272042222321033
1772094048506080300,6.624080322265625,0.02834811806678772,0.014145150780677795,0.008278949186205864
1772094048516029400,6.634029541015625,0.030510736629366875,0.007464926689863205,0.01527332328259945
1772094048525978400,6.643978271484375,0.028342390432953835,0.0029133183415979147,0.01570342481136322
1772094048535927300,6.65392724609375,0.017151478677988052,0.0041577452793717384,0.010217046365141869
1772094048545876200,6.663876220703125,0.0021512219682335854,0.00553752901032567,0.00008078897371888161
1772094048555826200,6.673826171875,-0.003175897989422083,0.0042808810248970985,-0.006089264526963234
1772094048565775000,6.683775146484375,-0.010332077741622925,0.007856441661715508,-0.015575177036225796
1772094048575724300,6.693724365234375,-0.010742470622062683,-0.0011915354989469051,-0.022692888975143433
1772094048585673200,6.703673095703125,-0.0055021680891513824,-0.0022498760372400284,-0.014543884433805943
1772094048595622400,6.713622314453125,-0.009392336010932922,-0.002959645353257656,-0.00570409232750535
1772094048605572000,6.723572021484375,-0.016582338139414787,-0.014965708367526531,-0.005149089265614748
1772094048615521300,6.733521240234375,-0.016591617837548256,-0.01668933779001236,0.0009053796529769897
1772094048625470200,6.74347021484375,-0.020087014883756638,-0.011220536194741726,0.0010244227014482021
1772094048635419100,6.753419189453125,-0.017287632450461388,-0.008639350533485413,0.0025129769928753376
1772094048645368300,6.763368408203125,-0.009844895452260971,-0.009699555113911629,0.001922554336488247
1772094048655318300,6.773318359375,-0.0024074860848486423,-0.012752069160342216,0.0007001631893217564
1772094048665267200,6.78326708984375,0.010720033198595047,-0.008356256410479546,-0.008907989598810673
1772094048675216100,6.793216064453125,0.015451006591320038,-0.01003980077803135,-0.016074784100055695
1772094048685165000,6.8031650390625,0.012419797480106354,-0.0081191286444664,-0.012762344442307949
1772094048695114200,6.8131142578125,0.00715800654143095,-0.01112569123506546,-0.0043663098476827145
1772094048705064000,6.82306396484375,0.0065643880516290665,-0.01473640464246273,0.00647461973130703
1772094048715013000,6.83301318359375,0.007385267876088619,-0.013288041576743126,0.00960516557097435
1772094048724962000,6.842962158203125,0.016704734414815903,-0.01192476786673069,0.011468046344816685
1772094048734911000,6.852910888671875,0.021707523614168167,-0.02879752404987812,0.011109888553619385
1772094048744860200,6.862860107421875,0.025120362639427185,-0.028810573741793633,0.0011211708188056946
1772094048754810000,6.87281005859375,0.018303783610463142,-0.018352270126342773,-0.009116286411881447
1772094048764759000,6.882759033203125,0.013851244002580643,-0.016071006655693054,-0.014347534626722336
1772094048774708000,6.8927080078125,0.007403284311294556,-0.02147819660604,-0.012825841084122658
1772094048784657000,6.902656982421875,0.00457181129604578,-0.02297063358128071,-0.02036338485777378
1772094048794606000,6.912606201171875,0.008896478451788425,-0.022203665226697922,-0.021856050938367844
1772094048804556000,6.92255615234375,0.00805358774960041,-0.014721781946718693,-0.0027417452074587345
1772094048814505200,6.932505126953125,0.003826130647212267,-0.019748318940401077,0.021548528224229813
1772094048824454100,6.9424541015625,-0.004664293490350246,-0.016251588240265846,0.034445684403181076
1772094048834403000,6.952403076171875,-0.008238477632403374,-0.003477135207504034,0.026613594964146614
1772094048844352000,6.96235205078125,-0.007137526758015156,0.0032031377777457237,0.011296955868601799
1772094048854302200,6.97230224609375,-0.001548444153741002,-0.0047933501191437244,-0.0065502929501235485
1772094048864251100,6.982251220703125,0.0035435198806226254,-0.015299519523978233,-0.015945926308631897
1772094048874200000,6.992199951171875,0.006361547391861677,-0.019702378660440445,-0.018932854756712914
1772094048884149000,7.00214892578125,-0.000013793818652629852,-0.01701631397008896,-0.015494713559746742
1772094048894098000,7.012097900390625,-0.00762590765953064,-0.019285593181848526,-0.008341729640960693
1772094048904047900,7.0220478515625,-0.009538855403661728,-0.02844473533332348,0.002803333569318056
1772094048913997000,7.0319970703125,-0.013135723769664764,-0.03748567774891853,0.007240126375108957
1772094048923946200,7.0419462890625,-0.0023549809120595455,-0.044407233595848083,0.005847026593983173
1772094048933895200,7.051895263671875,0.007016373798251152,-0.043954405933618546,0.012178312055766582
1772094048943844000,7.061843994140625,0.009088046848773956,-0.0409756600856781,0.008152944035828114
1772094048953794000,7.0717939453125,0.008974863216280937,-0.029576532542705536,0.0016220742836594582
1772094048963743000,7.081742919921875,0.003584092017263174,-0.013316071592271328,-0.004270436242222786
1772094048973692200,7.091692138671875,-0.0029277345165610313,0.005477106664329767,-0.00846400298178196
1772094048983641000,7.10164111328125,-0.00803834106773138,0.007113086525350809,0.008751735091209412
1772094048993590000,7.111590087890625,0.005678892135620117,-0.0067388322204351425,0.03273787721991539
1772094049003540000,7.1215400390625,0.014790897257626057,-0.024915972724556923,0.04129274562001228
1772094049013489000,7.131489013671875,0.027439270168542862,-0.03956635296344757,0.03892599791288376
1772094049023438000,7.14143798828125,0.027294393628835678,-0.04736648499965668,0.027456562966108322
1772094049033387300,7.15138720703125,0.016869932413101196,-0.05301852524280548,0.004341312684118748
1772094049043336200,7.161336181640625,0.004654013551771641,-0.03495750203728676,-0.020721429958939552
1772094049053286100,7.1712861328125,-0.00951635092496872,-0.01784507930278778,-0.03573305904865265
1772094049063235000,7.181235107421875,-0.0186158400028944,-0.004272280260920525,-0.033363111317157745
1772094049073184000,7.19118408203125,-0.008409408852458,-0.002554492559283972,-0.019918296486139297
1772094049083133000,7.2011328125,0.0047761681489646435,-0.006595307495445013,-0.009303469210863113
1772094049093082000,7.21108203125,0.01582358218729496,-0.01739518716931343,0.008341075852513313
1772094049103032000,7.221031982421875,0.02040102332830429,-0.021855449303984642,0.016666118055582047
1772094049112981000,7.23098095703125,0.016628921031951904,-0.01593198999762535,0.02112550660967827
1772094049122930200,7.24093017578125,0.004250016529113054,-0.01484408788383007,0.022622734308242798
1772094049132879000,7.250879150390625,-0.00604816060513258,-0.013892386108636856,0.021609019488096237
1772094049142828000,7.260828125,-0.017722394317388535,-0.00638253940269351,0.017316536977887154
1772094049152778200,7.2707783203125,-0.016474969685077667,-0.009286869317293167,0.016782689839601517
1772094049162727200,7.28072705078125,-0.009981384500861168,-0.011622462421655655,0.016524894163012505
1772094049172676000,7.290676025390625,-0.012366821989417076,-0.016702204942703247,0.007432098034769297
1772094049182625000,7.300625,-0.005889216437935829,-0.012485087849199772,-0.0035414574667811394
1772094049192574000,7.310573974609375,-0.01153809018433094,-0.0046468814834952354,-0.0090516097843647
1772094049202524200,7.320524169921875,-0.015614057891070843,-0.0015512234531342983,-0.00400864752009511
1772094049212473000,7.33047314453125,-0.01663786545395851,-0.005714524537324905,0.002986297244206071
1772094049222422000,7.340422119140625,-0.012929413467645645,-0.002405813429504633,0.014363854192197323
1772094049232371200,7.35037109375,-0.00901736319065094,0.00899709202349186,0.023092743009328842
1772094049242320100,7.360320068359375,-0.010707671754062176,0.012825386598706245,0.03348519653081894
1772094049252270000,7.37027001953125,-0.010093146935105324,0.010138152167201042,0.04183470085263252
1772094049262219300,7.38021923828125,-0.0067037418484687805,0.0031148637644946575,0.041668251156806946
1772094049272168200,7.390168212890625,-0.0010141218081116676,-0.006901315413415432,0.029355701059103012
1772094049282117000,7.4001171875,0.004792368039488792,-0.003273557871580124,0.012848895974457264
1772094049292066000,7.410066162109375,-0.006550533697009087,0.0011707469820976257,0.004037519916892052
1772094049302016000,7.42001611328125,-0.014460122212767601,-0.0037627588026225567,0.0030934291426092386
1772094049311965000,7.42996484375,-0.016089078038930893,-0.013583194464445114,0.004743486642837524
1772094049321914000,7.4399140625,-0.007558705750852823,-0.029940329492092133,0.007648462429642677
1772094049331863000,7.449863037109375,-0.001784350723028183,-0.0375225767493248,-0.005467566195875406
1772094049341812200,7.459812255859375,0.005746269598603249,-0.02519107609987259,-0.026405872777104378
1772094049351762200,7.46976220703125,0.0010595028288662434,-0.018946491181850433,-0.04132988303899765
1772094049361711000,7.479711181640625,-0.007465009577572346,-0.013241998851299286,-0.04403139278292656
1772094049371660000,7.489659912109375,-0.01226513646543026,-0.014988090842962265,-0.03329877555370331
1772094049381609000,7.49960888671875,-0.010692272335290909,-0.027755551040172577,-0.01743272878229618
1772094049391558100,7.50955810546875,-0.014404145069420338,-0.03829456493258476,-0.0032044118270277977
1772094049401508000,7.519508056640625,-0.009403528645634651,-0.03609186410903931,-0.00027067307382822037
1772094049411457000,7.52945703125,-0.004503582138568163,-0.025904688984155655,-0.00235866941511631
1772094049421406000,7.539406005859375,-0.005528633017092943,-0.016511186957359314,-0.00608975812792778
1772094049431355000,7.54935498046875,-0.008224185556173325,-0.00031988276168704033,-0.012466351501643658
1772094049441304000,7.559303955078125,-0.01132836565375328,0.01272028498351574,-0.013316166587173939
1772094049451254000,7.56925390625,-0.016889944672584534,0.010455450043082237,-0.002911807969212532
1772094049461203200,7.579203125,-0.013692285865545273,0.012503154575824738,0.014628303237259388
1772094049471152000,7.589152099609375,-0.013240830972790718,0.011443019844591618,0.024936337023973465
1772094049481101000,7.59910107421875,-0.008463386446237564,0.01244783028960228,0.03128398209810257
1772094049491050000,7.609050048828125,-0.006060859188437462,-0.0036933408118784428,0.023070374503731728
1772094049501000200,7.619000244140625,0.0028615291230380535,-0.032566267997026443,0.004031169228255749
1772094049510949000,7.62894921875,0.01247403584420681,-0.05123249441385269,-0.018940990790724754
1772094049520898000,7.63889794921875,0.004486682824790478,-0.037526801228523254,-0.03246372565627098
1772094049530847000,7.648846923828125,0.003090608399361372,-0.048520930111408234,-0.029587509110569954
1772094049540796200,7.658796142578125,0.0018298681825399399,-0.04019375890493393,-0.024224169552326202
1772094049550745900,7.668745849609375,-0.0015488420613110065,-0.044945988804101944,-0.010504249483346939
1772094049560695300,7.6786953125,0.004804128315299749,-0.04306979104876518,0.005564198829233646
1772094049570644200,7.688644287109375,0.014642109163105488,-0.03299366682767868,-0.00007245875895023346
1772094049580593200,7.69859326171875,0.009532568044960499,-0.008910968899726868,0.0005139694549143314
1772094049590542000,7.7085419921875,0.012544115073978901,-0.008673291653394699,0.002981312805786729
1772094049600492000,7.718491943359375,0.005637473426759243,-0.003077191300690174,-0.0029857661575078964
1772094049610441000,7.72844091796875,-0.0022021131590008736,0.02354619652032852,-0.018155168741941452
1772094049620390100,7.73839013671875,-0.005137182772159576,0.035241998732089996,-0.021433785557746887
1772094049630339000,7.748339111328125,-0.0071721915155649185,0.034580644220113754,-0.010357130318880081
1772094049640288000,7.7582880859375,0.000625543761998415,0.02800423465669155,0.00549320550635457
1772094049650238000,7.768238037109375,0.008762476965785027,0.02010984532535076,0.0195135697722435
1772094049660187000,7.778186767578125,0.01468348316848278,0.0126649783924222,0.014852238819003105
1772094049670136000,7.788135986328125,0.021477945148944855,0.011089867912232876,0.01417388953268528
1772094049680085200,7.798085205078125,0.024430857971310616,0.0005591963417828083,0.012197025120258331
1772094049690034400,7.808034423828125,0.022038817405700684,-0.011342578567564487,0.004470552317798138
1772094049699984400,7.817984375,0.02369397133588791,-0.01584971323609352,-0.006805271841585636
1772094049709933300,7.827933349609375,0.02183087170124054,-0.014279709197580814,-0.019525326788425446
1772094049719882200,7.83788232421875,0.017546378076076508,-0.015630729496479034,-0.029628027230501175
1772094049729831200,7.8478310546875,0.015511101111769676,-0.012988339178264141,-0.030022181570529938
1772094049739780400,7.8577802734375,0.018256021663546562,-0.018213193863630295,-0.03147546947002411
1772094049749730300,7.867730224609375,0.02440672740340233,-0.020331673324108124,-0.02888207510113716
1772094049759679200,7.87767919921875,0.03141617029905319,-0.02836509793996811,-0.017670169472694397
1772094049769628200,7.887628173828125,0.03617563471198082,-0.027821063995361328,-0.00813350360840559
1772094049779577300,7.897577392578125,0.029402149841189384,-0.02349609136581421,-0.007144938223063946
1772094049789526300,7.9075263671875,0.02390933409333229,-0.010898664593696594,-0.005242566112428904
1772094049799476500,7.9174765625,0.009691251441836357,-0.0016252719797194004,-0.0024497094564139843
1772094049809425400,7.92742529296875,0.001634783111512661,-0.0004617883823812008,0.00010148249566555023
1772094049819374300,7.937374267578125,0.001346895471215248,0.0010474247392266989,-0.003030128311365843
1772094049829323300,7.9473232421875,0.004882295615971088,0.004832002334296703,-0.0052350712940096855
1772094049839272200,7.957272216796875,0.003462831024080515,0.006242145784199238,-0.0014882697723805904
1772094049849221000,7.96722119140625,0.007214949931949377,-0.0035836887545883656,0.013261416926980019
1772094049859171300,7.97717138671875,0.0059960209764540195,-0.010008297860622406,0.020094556733965874
1772094049869120300,7.987120361328125,0.00844196230173111,-0.011204395443201065,0.01362805999815464
1772094049879069400,7.9970693359375,0.007271236274391413,-0.006471692584455013,0.001850496744737029
1772094049889018400,8.007018310546876,0.0012875166721642017,-0.0008276607841253281,-0.0057547688484191895
1772094049898967300,8.01696728515625,-0.006403426174074411,0.0018898285925388336,0.00102563900873065
1772094049908917500,8.02691748046875,-0.007925211451947689,0.0037272395566105843,0.008001026697456837
1772094049918866400,8.036866455078124,-0.0010734307579696178,0.003544546663761139,0.01599503681063652
1772094049928815400,8.0468154296875,0.006537271663546562,0.0060782297514379025,0.016227340325713158
1772094049938764300,8.056764404296874,0.014406380243599415,0.011340104043483734,0.0045461831614375114
1772094049948713200,8.066713134765624,0.01355341449379921,0.023604463785886765,-0.0036557787097990513
1772094049958663200,8.0766630859375,0.006444905884563923,0.026059897616505623,-0.001890635583549738
1772094049968612400,8.0866123046875,-0.0000048857182264328,0.020927036181092262,0.002002559369429946
1772094049978561300,8.096561279296875,-0.005778885446488857,0.026599302887916565,0.004444677848368883
1772094049988510500,8.106510498046875,-0.006185535341501236,0.026301074773073196,0.013371902517974377
1772094049998459400,8.11645947265625,-0.004261667840182781,0.011762346141040325,0.02635028585791588
1772094050008409300,8.126409423828125,0.002675376832485199,-0.001607341691851616,0.02230079472064972
1772094050018358300,8.136358154296875,0.01149470079690218,0.0029322828631848097,0.0017909940797835588
1772094050028307500,8.146307373046875,0.011491681449115276,0.006329695228487253,-0.013715907000005245
1772094050038256400,8.15625634765625,0.010662906803190708,-0.007496371865272522,-0.014914595521986485
1772094050048205300,8.166205322265625,0.0014010514132678509,-0.019031550735235214,-0.014718815684318542
1772094050058155300,8.1761552734375,-0.010949624702334404,-0.01679050177335739,-0.018809430301189423
1772094050068104200,8.186104248046876,-0.018403280526399612,-0.01678570732474327,-0.022932536900043488
1772094050078053000,8.19605322265625,-0.018315928056836128,-0.012258600443601608,-0.018503699451684952
1772094050088002600,8.20600244140625,-0.01740250550210476,-0.013355735689401627,-0.020118221640586853
1772094050097951500,8.215951416015624,-0.015596616081893444,-0.008308244869112968,-0.023087646812200546
1772094050107901400,8.2259013671875,-0.010930534452199936,-0.006698543671518564,-0.028740055859088898
1772094050117850400,8.235850341796874,-0.008688419125974178,-0.00465350179001689,-0.029816504567861557
1772094050127799300,8.24579931640625,-0.01236332394182682,-0.00895354337990284,-0.026941586285829544
1772094050137748200,8.255748291015625,-0.017870474606752396,-0.008582832291722298,-0.0198780857026577
1772094050147697200,8.265697265625,-0.024345193058252335,-0.0040247440338134766,-0.01070627011358738
1772094050157647400,8.2756474609375,-0.029350604861974716,-0.003619943745434284,-0.00724842119961977
1772094050167596300,8.28559619140625,-0.022601839154958725,-0.009041592478752136,-0.011016719043254852
1772094050177545200,8.295545166015625,-0.0043756961822509766,-0.003773327451199293,-0.017993934452533722
1772094050187494400,8.305494384765625,0.008497708477079868,-0.010804618708789349,-0.019880859181284904
1772094050197443300,8.315443359375,0.0197993665933609,-0.014874462969601154,-0.022040950134396553
1772094050207393300,8.325393310546875,0.01582595705986023,-0.011829119175672531,-0.028593435883522034
1772094050217342500,8.335342529296875,0.007575483527034521,-0.019358407706022263,-0.03031250461935997
1772094050227291400,8.34529150390625,0.0011949255131185055,-0.02972393110394478,-0.039407309144735336
1772094050237240300,8.355240234375,-0.004461095668375492,-0.04820387065410614,-0.03900330513715744
1772094050247189200,8.365189208984376,0.0037721539847552776,-0.02278635837137699,-0.03968397527933121
1772094050257138200,8.37513818359375,0.005729044321924448,-0.02295919880270958,-0.037429071962833405
1772094050267088400,8.38508837890625,0.02577642910182476,-0.03084421530365944,-0.018532007932662964
1772094050277037300,8.395037353515624,0.03828529641032219,-0.03134329244494438,-0.011244799941778183
1772094050286986200,8.404986328125,0.040164247155189514,-0.02746760845184326,-0.008793778717517853
1772094050296935400,8.414935302734374,0.04065346717834473,-0.03872052952647209,-0.006350061856210232
1772094050306884400,8.42488427734375,0.03316565230488777,-0.029796456918120384,-0.023294664919376373
1772094050316834300,8.434834228515625,0.017675908282399178,-0.011715192347764969,-0.044300880283117294
1772094050326783500,8.444783447265625,0.005523893982172012,0.0026454604230821133,-0.0530775785446167
1772094050336732400,8.454732421875,0.0002463078126311302,0.01919061504304409,-0.050405364483594894
1772094050346681300,8.464681396484375,-0.0032257072161883116,0.032536230981349945,-0.02392350137233734
1772094050356630300,8.47463037109375,0.004317963030189276,0.01469971053302288,0.011298401281237602
1772094050366580200,8.484580322265625,0.02237650193274021,0.0016779371071606874,0.026676444336771965
1772094050376529200,8.494529052734375,0.029127081856131554,0.0015290663577616215,0.03675144910812378
1772094050386478300,8.504478271484375,0.027443384751677513,-0.018390437588095665,0.04266214370727539
1772094050396427500,8.514427490234375,0.021657669916749,-0.019934270530939102,0.02405676618218422
1772094050406376400,8.52437646484375,0.007965689525008202,-0.004745571408420801,-0.004735770635306835
1772094050416326400,8.534326416015626,-0.005426815245300531,-0.003799350466579199,-0.022036731243133545
1772094050426275300,8.544275390625,-0.006144310347735882,-0.019463444128632545,-0.025554612278938293
1772094050436224300,8.554224365234376,-0.013294897973537445,-0.061764296144247055,-0.018298830837011337
1772094050446173400,8.56417333984375,-0.025598306208848953,-0.12365440279245377,0.035418689250946045
1772094050456122400,8.574122314453126,-0.00243359780870378,-0.15212784707546234,0.08161920309066772
1772094050466072300,8.584072265625,0.0030190031975507736,-0.13927212357521057,0.048886485397815704
1772094050476021200,8.594021240234374,0.019754307344555855,-0.09182950109243393,0.03633686900138855
1772094050485970200,8.60397021484375,0.031153127551078796,-0.06849799305200577,0.02432057447731495
1772094050495919000,8.613919189453124,0.033968355506658554,-0.05157839506864548,0.019134867936372757
1772094050505868500,8.62386865234375,0.025435104966163635,-0.014026690274477005,-0.000665200874209404
1772094050515818200,8.633818359375,0.010691313073039055,0.031047310680150986,-0.03259623795747757
1772094050525767400,8.643767333984375,-0.013077493757009506,0.0496508926153183,-0.05219116806983948
1772094050535716400,8.65371630859375,-0.022454483434557915,0.059019096195697784,-0.05527351051568985
1772094050545665300,8.663665283203125,-0.026499068364501,0.05187471956014633,-0.04030958563089371
1772094050555614200,8.6736142578125,-0.026958994567394257,0.029881274327635765,-0.012705657631158829
