time,seconds_elapsed,z,y,x
1772094449705698600,0.066698486328125,-12.67310910666585,-0.011981895020976662,-0.6056838836481795
1772094449715647500,0.0766474609375,-12.369956180930137,0.00606762947589159,-1.1037333950728176
1772094449725597400,0.086597412109375,-11.507550246798992,-0.17962335750497876,-1.5634312197387217
1772094449735546600,0.096546630859375,-10.276488694930077,-0.5965670592021197,-1.647132123993337
1772094449745496600,0.10649658203125,-8.81560307290852,-1.2158518539078533,-1.267530749349296
1772094449755445500,0.116445556640625,-7.267623689323663,-1.8498286793760954,-0.766884462897107
1772094449765395500,0.1263955078125,-5.7067661194652315,-2.287706448030472,-0.35849702915381637
1772094449775344600,0.1363447265625,-4.659622042098641,-2.502444592732191,-0.16616671375632286
1772094449785294600,0.146294677734375,-3.773251879534125,-2.355127102483064,-0.3013842355627566
1772094449795243500,0.156243408203125,-3.0487872661501165,-1.8678683400660752,-0.6372340736985206
1772094449805193500,0.166193359375,-2.6477555654644966,-1.3316462247766554,-0.8066987330216914
1772094449815143700,0.176143798828125,-2.388603109496832,-0.8624944161321967,-0.7433587720114737
1772094449825092600,0.186092529296875,-1.9287275901764631,-0.33277927158400417,-0.5916207619063556
1772094449835042600,0.19604248046875,-1.186919627803564,0.22740999474823473,-0.2257666114553809
1772094449844991500,0.205991455078125,-0.16617080540955065,0.46964361074939365,0.3922406375952065
1772094449854941700,0.215941650390625,1.1210954487621783,0.3297896613139659,0.9520634087026119
1772094449864890600,0.225890625,2.4012965868532654,0.09476122745126485,1.3216191901504992
1772094449874840600,0.235840576171875,3.696165717244148,-0.13253931557312607,1.5644041564241051
1772094449884789500,0.24578955078125,4.972863815650344,-0.27159334680251773,1.5819567642495036
1772094449894739500,0.255739501953125,6.030782385009527,-0.2992965425685048,1.5233353561937808
1772094449904688600,0.265688720703125,6.732741152074933,-0.2548286744844168,1.551146761574596
1772094449914638600,0.275638671875,6.9489464467197655,-0.2735290641054511,1.7302078820869327
1772094449924587500,0.28558740234375,7.045577267435193,-0.37889286104850467,2.0933336304873227
1772094449934537500,0.295537353515625,7.237366498225927,-0.45005226363800466,2.477192078053951
1772094449944486400,0.305486328125,7.351117965090275,-0.39507045419365167,2.7472458672642706
1772094449954436600,0.3154365234375,7.299090840733051,-0.2479479750599712,2.7840184316053986
1772094449964386600,0.325386474609375,7.285370942938328,-0.03172200295329094,2.5638831040352583
1772094449974335500,0.33533544921875,7.373849436858296,0.19240202892683445,2.3012435366041957
1772094449984285700,0.34528564453125,7.575452790176868,0.3050658466849476,2.038797007527202
1772094449994234600,0.355234619140625,7.837318012234568,0.32481603761985894,1.6658245495036244
1772094450004184600,0.3651845703125,7.904237000775336,0.31147425242252647,1.3755322743847966
1772094450014133500,0.375133544921875,7.722906035634875,0.29780038572661577,1.1918450284417719
1772094450024083700,0.385083740234375,7.359845461425185,0.28216464437320826,1.0504160117093473
1772094450034032600,0.39503271484375,6.96158205640912,0.3101568131484091,0.7788442191515117
1772094450043982600,0.404982666015625,6.597852789157629,0.43956075330525635,0.4412340933449566
1772094450053931500,0.414931640625,6.051667352128028,0.6784951816305518,0.24637071580588815
1772094450063881500,0.424881591796875,5.449801528930664,1.0175365823492408,0.03523499549332773
1772094450073830700,0.43483056640625,5.012679108688235,1.4360142156153917,-0.35666323785539716
1772094450083780600,0.444780517578125,4.492976604914665,1.7756491983130573,-0.920934768532589
1772094450093729500,0.4547294921875,3.6712650847434993,1.8746251208499072,-1.4379201953671872
1772094450103679500,0.464679443359375,2.846675378787517,1.5884432036593557,-1.5227436739109457
1772094450113629700,0.474629638671875,1.8811124370425938,0.9203963508069515,-1.2531357287719844
1772094450123578400,0.484578369140625,0.30850889981091023,0.08552271285429597,-0.8216666581161319
1772094450133528300,0.4945283203125,-1.511483005836606,-0.5595930540047586,-0.6778483350943774
1772094450143477200,0.504477294921875,-2.9789351467669007,-0.7762468230694531,-0.961804904385656
1772094450153427500,0.514427490234375,-4.151431696942448,-0.6635375587344169,-1.375035138517618
1772094450163376400,0.52437646484375,-5.054914906871319,-0.5284159715831279,-1.8184493523806333
1772094450173326300,0.534326416015625,-5.311434091725945,-0.4292506639540195,-2.275853951542824
1772094450183275300,0.544275146484375,-5.040397721219063,-0.3187203510932624,-2.5004595563948153
1772094450193225500,0.5542255859375,-4.890429862591624,-0.40469446097686884,-2.3869737547293304
1772094450203174400,0.56417431640625,-4.912651046749949,-0.7086018583416939,-2.2561524951204657
1772094450213124400,0.574124267578125,-5.204651294830441,-1.096916408534348,-1.83658779726997
1772094450223073300,0.5840732421875,-6.1305199395686385,-1.3784069530382752,-0.9705449679411947
1772094450233023500,0.5940234375,-7.186905892533064,-1.4352639817699788,0.16718743510618805
1772094450242972400,0.603972412109375,-7.9193942378968,-0.9146475780218839,0.5985456292660907
1772094450252922400,0.61392236328125,-8.392814298444986,0.10485796631276607,0.4951713987050578
1772094450262872300,0.623872314453125,-8.144570189982652,0.9011179421022534,0.3045922926227562
1772094450272821200,0.6338212890625,-7.2649068315804,1.0136677780918777,0.12495972889801486
1772094450282771500,0.643771484375,-6.098292909702658,0.6817208656787872,-0.12804972166945225
1772094450292720400,0.653720458984375,-4.5731770998328924,0.32498058053180573,-0.29893976502008734
1772094450302670300,0.66367041015625,-2.96041749330163,0.12247545606791972,-0.37472397786602374
1772094450312619300,0.673619384765625,-1.530662338081002,-0.131005018677935,-0.221814695491828
1772094450322569500,0.683569580078125,-0.23855565814077853,-0.4351015088740736,0.1493323372028768
1772094450332518400,0.693518310546875,0.6932873848319053,-0.6588146949309855,0.6296114698655902
1772094450342468400,0.70346826171875,1.3134417289137839,-0.6723390701536088,0.9847587867327033
1772094450352417300,0.713417236328125,1.6706559151828289,-0.5556042766295373,1.1212729242209345
1772094450362367500,0.723367431640625,1.893206779462099,-0.4430518833566457,1.072262371205911
1772094450372316400,0.73331640625,2.087292012235522,-0.343964463269338,0.8961547667369246
1772094450382266400,0.743266357421875,2.2450077085107565,-0.27647132810242475,0.6228533008422702
1772094450392215300,0.75321533203125,2.3714345325529576,-0.2725574060617015,0.30281565660536286
1772094450402165200,0.763165283203125,2.4789742852956054,-0.32234979363679883,0.15257468012496828
1772094450412115500,0.773115478515625,2.6651789939522743,-0.41366654318999496,0.08772548359557986
1772094450422064400,0.783064453125,2.948035566112399,-0.451468487111479,0.028863033325597642
1772094450432014300,0.793014404296875,3.1653637273073194,-0.4591777463145554,-0.0252105021674186
1772094450441963300,0.80296337890625,3.2133798624575136,-0.468665340301767,-0.1115536645591259
1772094450451913500,0.81291357421875,3.398296869391203,-0.21466913458611814,0.11507387457452714
1772094450461862400,0.8228623046875,3.5048283218741414,-0.08932546613812446,0.612660919586569
1772094450471812400,0.832812255859375,3.191865949785709,-0.0762958886951208,0.661561436355859
1772094450481761300,0.84276123046875,2.8060400015383955,0.14706146966144443,0.27134324449896813
1772094450491711500,0.85271142578125,2.2933558520942925,0.15982271502446382,-0.0175442053232342
1772094450501660400,0.862660400390625,1.7817922311127186,0.029177359971776604,-0.2885464543648064
1772094450511610400,0.8726103515625,1.4739736516535282,-0.0618712036319077,-0.47907238722145556
1772094450521559300,0.882559326171875,1.4840011246711016,-0.025440292335301637,-0.6844981483723968
1772094450531509500,0.892509521484375,1.9299223529189824,0.07509769188649952,-0.920488705265522
1772094450541458400,0.90245849609375,2.4413778373509643,0.11029570038728416,-0.9505644023165106
1772094450551408400,0.912408447265625,2.9009710325986147,0.1390366417031735,-0.7146268177196383
1772094450561358300,0.9223583984375,3.1821921125113963,0.5374168049667031,-0.22631584283597767
1772094450571307300,0.932307373046875,3.1395798822313545,0.8237311894305049,-0.2129392055209726
1772094450581257200,0.94225732421875,3.103981914627552,0.7799713965505362,-0.33536914194673295
1772094450591206400,0.952206298828125,2.5755127515524623,0.794413325009495,-0.18389197473488747
1772094450601156400,0.96215625,1.7312065377354622,0.777182496484369,-0.04856631637886166
1772094450611105300,0.972105224609375,1.2497194905877114,0.793953452412784,-0.10541830360926686
1772094450621055500,0.982055419921875,0.8778560167193412,0.8580174168486148,-0.2992708966705948
1772094450631004400,0.99200439453125,0.4869961659580469,0.8804466177344321,-0.5132200829517096
1772094450640954400,1.001954345703125,0.27040041069090365,0.9051015318457036,-0.6322508053932339
1772094450650903300,1.0119033203125,0.0485462965041399,0.9432394662559032,-0.6250041952658444
1772094450660853500,1.021853515625,-0.19314824418425558,0.9780858117748051,-0.5257794125344604
1772094450670802400,1.031802490234375,-0.3153928141057491,0.9624941287588328,-0.4328138363283127
1772094450680752400,1.04175244140625,-0.35274434737861154,0.8910244911763816,-0.3141939597100019
1772094450690701300,1.051701416015625,-0.3061222969353199,0.8417855362329631,-0.1172670007046312
1772094450700651500,1.061651611328125,-0.259886615461111,0.768245449052006,0.003897080503776669
1772094450710601200,1.071601318359375,-0.2417331191331148,0.6504403959479182,0.06168970958516001
1772094450720550400,1.08155029296875,-0.2886760720938444,0.5701152517367154,0.107667251579836
1772094450730500000,1.0915,-0.4252215545684099,0.5563596250414848,0.18116773740276693
1772094450740449300,1.10144921875,-0.5939736086428166,0.5542350341029465,0.23209387824814764
1772094450750399200,1.111399169921875,-0.7331780811935663,0.5507026221930981,0.31214053431153294
1772094450760348400,1.121348388671875,-0.8365297345966101,0.5348403786074369,0.3676802698995918
1772094450770298400,1.13129833984375,-0.8681763342261314,0.5245953173164278,0.3799083217013627
1772094450780247300,1.141247314453125,-0.8200292661726474,0.47503889392167326,0.39947405944745984
1772094450790197200,1.151197265625,-0.8888193092823028,0.3373236370153725,0.5124024829585105
1772094450800146400,1.161146484375,-1.1062369023263454,0.15387874846085906,0.6062620853949338
1772094450810096400,1.171096435546875,-1.7720044120699165,-0.03565861174985766,0.6510832969613373
1772094450820045300,1.18104541015625,-3.0119162098705767,-0.2507638361983001,0.7337629684094339
1772094450829995500,1.19099560546875,-4.312832803732157,-0.42012569273412226,0.7128357695844024
1772094450839944400,1.2009443359375,-5.4823821945399045,-0.49820247349664565,0.545765019660443
1772094450849894400,1.210894287109375,-6.507305672270059,-0.43452685079127545,0.24699730500532313
1772094450859844000,1.220843994140625,-7.467758723655343,-0.23827304180711506,-0.25228280766019595
1772094450869793300,1.230793212890625,-8.315840364357829,-0.03765051621943712,-0.7525562970109283
1772094450879743200,1.2407431640625,-9.070981271034478,-0.04449146815538406,-1.0503803558740765
1772094450889692400,1.2506923828125,-9.529421204593778,-0.33800372823402286,-1.1201740961335598
1772094450899642000,1.26064208984375,-9.305804756909609,-0.5955236145637929,-1.2460163982860744
1772094450909591300,1.27059130859375,-8.3828499537915,-0.6199015383645892,-1.4020394652992487
1772094450919541200,1.280541259765625,-7.224913259366154,-0.6603156740784645,-1.3755620850011705
1772094450929490400,1.290490478515625,-6.016250001788139,-0.9232182763598858,-1.2745929428204894
1772094450939440000,1.300440185546875,-4.952961429828405,-1.2036993515603243,-1.1340233924616128
1772094450949389300,1.310389404296875,-4.069189467063546,-1.3472703487575053,-0.9573992167726159
1772094450959339300,1.32033935546875,-3.3078087892144916,-1.4222072240591048,-0.7436191765133291
1772094450969288400,1.330288330078125,-2.6533506089925765,-1.4351635901354252,-0.5006817230917513
1772094450979238100,1.340238037109375,-2.035726660171151,-1.3683276037029921,-0.29964736530017105
1772094450989188000,1.35018798828125,-1.4941203676253556,-1.2636520082198082,-0.34599154865015297
1772094450999137300,1.36013720703125,-0.8754413567930459,-1.0570058384284375,-0.560729291493073
1772094451009087200,1.370087158203125,-0.09533785829544067,-0.8814642703443765,-0.6093200116608292
1772094451019036400,1.380036376953125,0.7159054593533277,-0.8036413182124496,-0.46511225093007086
1772094451028986000,1.389986083984375,1.4671715704232453,-0.745199139181152,-0.1617473629441112
1772094451038935300,1.399935302734375,2.2577304119616746,-0.7248208064105361,0.177293087926507
1772094451048885200,1.40988525390625,3.1595705308586357,-0.6874320098672062,0.4089215771526098
1772094451058834400,1.41983447265625,4.054770481088758,-0.6291527663126587,0.6561763092514127
1772094451068784000,1.4297841796875,4.727869648894667,-0.5981203165261074,1.037038278415799
1772094451078733300,1.4397333984375,5.311603018552065,-0.5383306684086099,1.4292607958324253
1772094451088683300,1.449683349609375,5.8943695890039205,-0.36241770972888915,1.7190093194633722
1772094451098632400,1.459632568359375,6.628245004811882,-0.15940218805745243,1.808671762470901
1772094451108582100,1.46958203125,7.182562894892692,0.03244827140122652,1.859953913679719
1772094451118532000,1.479531982421875,7.5385525078028435,0.13948243097560478,1.878053633993864
1772094451128481000,1.48948095703125,7.76480398016572,0.06559829786363988,1.9011834574297068
1772094451138431000,1.499430908203125,7.828545507714152,-0.09224592016208916,1.9030998124450444
1772094451148380200,1.509380126953125,7.769501782593131,-0.25999665170684455,1.8500135344237087
1772094451158329900,1.519329833984375,7.746881369984149,-0.37892201407775283,1.6732698970735072
1772094451168279000,1.529279052734375,7.914668378418684,-0.413605204924196,1.504995543513447
1772094451178229000,1.53922900390625,7.950075791886448,-0.3787665677877143,1.367643713092059
1772094451188178200,1.54917822265625,7.731054270777106,-0.29853878300376235,1.2030527242198585
1772094451198127900,1.5591279296875,7.25246703672409,-0.20963146921247242,1.0818400546293705
1772094451208077000,1.5690771484375,6.616531186142564,-0.22136136223375796,1.0325914550747721
1772094451218027000,1.579027099609375,5.899533839899301,-0.22605945692211388,0.829936912202835
1772094451227976200,1.58897607421875,5.28453147175312,-0.04851137132123112,0.40948092806842173
1772094451237926000,1.59892578125,4.818114567965269,0.19628245055675506,0.02762468716967851
1772094451247875800,1.608875732421875,4.311392541795969,0.3916449367243796,-0.2659849688688293
1772094451257825000,1.618824951171875,3.6816882790803906,0.5915074377249926,-0.5316507157206535
1772094451267775000,1.62877490234375,2.8743478140890595,0.7286725134026258,-0.6555307048242539
1772094451277724000,1.638723876953125,1.921222913634777,0.7447738995064049,-0.6945732599239796
1772094451287673900,1.648673828125,0.8703115926891565,0.5821169474367052,-0.6230960966221988
1772094451297623000,1.658623046875,-0.3314356018900871,0.2329278083216399,-0.4533667219482362
1772094451307573000,1.668572998046875,-1.9093436752706765,-0.047758799388259644,-0.20992614131011067
1772094451317522200,1.678522216796875,-3.414063178321719,-0.27100853265188635,0.27631416477933524
1772094451327471900,1.688471923828125,-4.377381556010246,-0.2801722284469753,0.36912597519587725
1772094451337421000,1.698421142578125,-4.879981533813476,0.030134222305193543,0.06451521533466875
1772094451347371000,1.70837109375,-4.869295889148116,0.4991006644453853,-0.3552054767951369
1772094451357321000,1.718321044921875,-4.399090114471316,0.8265659744650125,-0.7158733837146312
1772094451367270000,1.728269775390625,-3.8984436088234182,0.8535391754560172,-1.0077487633064388
1772094451377220000,1.73822021484375,-3.90041753924489,0.5008711081840097,-1.1109128582481294
1772094451387169000,1.7481689453125,-4.338056092315912,-0.32177111696600913,-0.8404414281476289
1772094451397119000,1.758118896484375,-5.138395154112577,-1.251000031917542,-0.4382824039325118
1772094451407068000,1.76806787109375,-6.580261018365621,-1.781982346857339,-0.22418138809055088
1772094451417017900,1.778017822265625,-8.043704508176445,-1.365144589752704,-0.8288369150716811
1772094451426967000,1.787967041015625,-8.976114537382125,-0.18605477879196405,-1.7041718158155679
1772094451436917000,1.7979169921875,-9.16353797417879,0.9164286162197589,-2.1778166250303386
1772094451446866000,1.807865966796875,-8.41227478571832,1.3737220100924372,-1.9411857974722981
1772094451456815900,1.81781591796875,-6.977941655057668,1.2157765967145562,-1.2955812241829932
1772094451466766000,1.82776611328125,-5.286213725751638,0.8627567933954298,-0.6633471507288515
1772094451476715000,1.837715087890625,-3.5420214497148987,0.5691238295465707,-0.23975867725498973
1772094451486665000,1.8476650390625,-1.8346750955164433,0.11743746190071105,0.15069741501100362
1772094451496614000,1.85761376953125,-0.4828244332313537,-0.32855602786578236,0.4783868161100894
1772094451506564000,1.867564208984375,0.5593149677157402,-0.6132555244788527,0.7688307746592908
1772094451516513000,1.877512939453125,1.1729893021285533,-0.704325569261983,1.0554344243932514
1772094451526463000,1.887462890625,1.4510855280190706,-0.612716668361798,1.198429594463855
1772094451536412000,1.897411865234375,1.6300567782908677,-0.37797764589972793,1.117949186625704
1772094451546361900,1.90736181640625,1.7991490241050718,-0.19044146944358945,0.9907559082556515
1772094451556311000,1.91731103515625,2.151687035256624,-0.10362192171178758,0.9346407839324324
1772094451566261000,1.927260986328125,2.584256614500284,-0.10807188685797155,0.9113944214448332
1772094451576211000,1.9372109375,2.9840631573051213,-0.16382548439241945,0.8154128584183752
1772094451586159900,1.947159912109375,3.383842812103033,-0.20405359601490197,0.6218192816194147
1772094451596110000,1.957110107421875,3.7539877916157245,-0.2768250369109213,0.49053003917261956
1772094451606059000,1.96705908203125,4.002771998304128,-0.3921688144680112,0.4372995303750038
1772094451616009000,1.977009033203125,4.145238687521219,-0.4609363534849137,0.4446385680261999
1772094451625958000,1.9869580078125,4.2036406076073645,-0.44152788865976034,0.44241365851834413
1772094451635908000,1.996908203125,4.2505765463054175,-0.3470716355044395,0.3966100117858499
1772094451645857000,2.00685693359375,4.037916376921534,-0.22490093453675508,0.3113927846841514
1772094451655807000,2.016806884765625,3.7189626554638147,-0.14083353505730628,0.2092107595823705
1772094451665756000,2.026755859375,3.488191659849882,-0.09966390480101107,0.11571180715188384
1772094451675706000,2.0367060546875,3.1891666276991364,-0.09964286201298236,0.02897913398593664
1772094451685656000,2.046656005859375,2.7925732017219067,-0.08723981897048652,-0.08850249585006385
1772094451695605000,2.05660498046875,2.276976379701495,-0.006765256351232528,-0.2333754790239036
1772094451705555000,2.066554931640625,1.826720921641588,0.07325688632540404,-0.31943551362529393
1772094451715503900,2.07650390625,1.5623668053776025,0.030925372682884332,-0.2730099356021732
1772094451725454000,2.0864541015625,1.3486726167708634,-0.15025040189586578,-0.18124346952009945
1772094451735403000,2.096403076171875,0.9381775066912174,-0.3110565384671092,-0.074982102682814
1772094451745353000,2.10635302734375,0.3306388985544443,-0.4235751025356352,-0.036718459533713756
1772094451755302000,2.116302001953125,-0.45090369283556936,-0.4606771180268377,-0.0703274087447673
1772094451765252000,2.126252197265625,-1.4192740932166577,-0.3776356275290251,-0.24500428629089147
1772094451775201000,2.136200927734375,-2.4217390709012747,-0.23796229535751043,-0.4325208081984892
1772094451785151000,2.14615087890625,-3.408350061371922,-0.17707199252173303,-0.4509816534426063
1772094451795101000,2.156100830078125,-4.239740094992518,-0.09485372804030776,-0.40884303202368316
1772094451805050000,2.166050048828125,-4.755958263781666,-0.08068360226005315,-0.3399962902907282
1772094451815000000,2.176,-4.941199680364131,-0.14416618661135433,-0.2570541685141623
1772094451824949000,2.185948974609375,-4.829290626496077,-0.18978410151340067,-0.20260734272934494
1772094451834899000,2.19589892578125,-4.531822760659456,-0.17109876333102583,-0.15690620652325452
1772094451844848000,2.20584814453125,-4.118202212035656,-0.173472141398862,-0.0725497609693557
1772094451854798000,2.215798095703125,-3.619889117771387,-0.24784575679451226,0.04539813467152416
1772094451864747000,2.2257470703125,-3.065072045996785,-0.35846323648206885,0.1424674929346889
1772094451874697000,2.235697021484375,-2.448581485119462,-0.4458496243163943,0.19058248534947633
1772094451884647200,2.245647216796875,-1.9035785358726978,-0.5121100758831948,0.18671506933160126
1772094451894596000,2.25559619140625,-1.3850982673704624,-0.5840807948555797,0.17901428569592534
1772094451904546000,2.265546142578125,-0.9317863443493842,-0.6202363232769071,0.1769570609051734
1772094451914495000,2.275494873046875,-0.5743944634258746,-0.6137200732506811,0.23335151362642645
1772094451924445200,2.285445068359375,-0.21694529935717582,-0.5327098693847656,0.27764270996935664
1772094451934394000,2.29539404296875,0.27450433887839315,-0.3880613791491836,0.26012751154489816
1772094451944344000,2.305343994140625,0.8174211295008659,-0.23461912240944802,0.2813163935134187
1772094451954293000,2.31529296875,1.3589789067298172,-0.17348346651047467,0.30284985113590956
1772094451964243000,2.325242919921875,1.9410060569912193,-0.161354271973297,0.28732805501837283
1772094451974192000,2.335192138671875,2.5097791734039783,-0.14037592748291788,0.2753406435720622
1772094451984142000,2.34514208984375,3.018019787442684,-0.11427424862943589,0.22746347850114107
1772094451994092000,2.355092041015625,3.5569483852118253,-0.07343538469746709,0.10570106607340275
1772094452004041000,2.365041015625,4.027059467342496,-0.07949161599650978,0.060651964035257695
1772094452013991200,2.3749912109375,4.371353381761908,-0.03148563691414893,-0.00008188786348327994
1772094452023940000,2.384940185546875,4.5920542342603206,0.04047236870713532,-0.03431106959842145
1772094452033890000,2.39489013671875,4.693070722714066,0.15215718536525963,-0.11095255686081945
1772094452043839000,2.4048388671875,4.811103227898478,0.24750490746758877,-0.2109211254305206
1772094452053789200,2.4147890625,4.858517890024185,0.35920945173949004,-0.28202532723406326
1772094452063738000,2.424738037109375,4.7849680851668115,0.454086487590149,-0.36195137085877355
1772094452073688000,2.43468798828125,4.633304528537392,0.5677434080388397,-0.5821969538703561
1772094452083637000,2.444636962890625,4.4085500167340035,0.6463957967322319,-0.8622866916656494
1772094452093587000,2.4545869140625,4.1077872010052205,0.7493166575025767,-1.119353792726621
1772094452103537200,2.464537109375,3.7876305334985254,0.8288322388965637,-1.125588960789144
1772094452113486000,2.474486083984375,3.4828058751583097,0.8867503940537571,-0.84871518936567
1772094452123436000,2.48443603515625,3.0737539496243,0.9301794936746358,-0.4647364764202386
1772094452133385000,2.494385009765625,2.620914904811978,0.9724525551281868,-0.280111127643194
1772094452143335200,2.504335205078125,2.3083909241408107,0.975480232386291,-0.4357327194496989
1772094452153284000,2.5142841796875,2.0499445706158874,0.9736362119548022,-0.8111401495352387
1772094452163234000,2.524234130859375,1.359790807634592,0.8897278024293481,-1.120277775703743
1772094452173183000,2.534182861328125,0.17547405580580233,0.6114518360577523,-1.303988987044245
1772094452183133000,2.5441328125,-1.72153094689548,0.1964097301982343,-1.1561892662361264
1772094452193083100,2.554083251953125,-4.522559257751703,-0.11649506648406385,-0.7083853660468011
1772094452203032000,2.564031982421875,-7.853108286562562,-0.20747816363610325,-0.4008335477650165
1772094452212982000,2.57398193359375,-11.005408534157276,-0.13104980766773222,-0.2233160034328699
1772094452222931000,2.583930908203125,-13.24574065207243,0.028710473112389445,-0.32030794907826926
1772094452232881200,2.593881103515625,-14.31867734234333,0.3962327759712934,-0.9149135354816913
1772094452242830000,2.603830078125,-14.208233100330828,0.7844475190512835,-1.6489144773654638
1772094452252780000,2.613780029296875,-12.831078485441207,0.7623186893515288,-2.0140356373667716
1772094452262729000,2.62372900390625,-10.725055469250679,0.10685498534888029,-1.6586162255600094
1772094452272679200,2.63367919921875,-8.480174017468094,-0.8768829339034855,-0.9472834809496998
1772094452282629000,2.643629150390625,-6.491811166018247,-1.7868518525898456,-0.41322468117401
1772094452292578000,2.653578125,-5.058746447858214,-2.4497246638052164,-0.04694514491781592
1772094452302528000,2.663528076171875,-4.03372769306004,-2.8150375469863413,0.1798598696745932
1772094452312477200,2.673477294921875,-3.2856174156725406,-2.9479242146924136,0.4289270580228418
1772094452322427100,2.68342724609375,-2.629876209902763,-2.919204023903608,0.6242322610452771
1772094452332376000,2.6933759765625,-2.073685511687398,-2.756706354048848,0.5606960468105971
1772094452342326000,2.703325927734375,-1.4274708436757326,-2.276094043909013,0.24738924519866703
1772094452352275000,2.71327490234375,-0.5719739582806825,-1.3922852562651038,-0.017286504235118627
1772094452362225200,2.72322509765625,0.3277764948606491,-0.563981498222053,0.1577101433172822
1772094452372175000,2.733175048828125,1.2294611309349537,-0.06744118578396738,0.5725425519488752
1772094452382124000,2.7431240234375,2.0034405935943127,0.2039334767665714,0.8877117864318191
1772094452392074000,2.753073974609375,2.7395880459874866,0.45028716837242244,1.0407079068392515
1772094452402023200,2.763023193359375,3.482464514374733,0.6391463370606303,1.259868105766922
1772094452411973000,2.77297314453125,4.269430884379148,0.6441881306201219,1.5704443133711814
1772094452421922000,2.782922119140625,5.007338332182169,0.5954777661280706,1.5875396789483724
1772094452431872000,2.7928720703125,5.955901039287448,0.39237189929205923,1.4636720378696917
1772094452441821200,2.8028212890625,6.709269091072678,0.23117044326029718,1.1480781482338904
1772094452451771100,2.812771240234375,7.119514610305428,0.09345913187675177,1.0912306179828941
1772094452461720000,2.822719970703125,7.35508043898046,-0.03894771642312407,1.186130523252487
1772094452471670000,2.832669921875,7.304561965620517,-0.08690536285173148,1.140462412533164
1772094452481620000,2.842619873046875,7.21309773388803,0.02585234373491257,1.1188248734816908
1772094452491569200,2.852569091796875,7.26723673583269,0.30207492124065755,1.154726938598603
1772094452501518800,2.862518798828125,7.42779554657936,0.6709490040346979,1.1292923453517258
1772094452511468000,2.872468017578125,7.662112251976132,0.9622744215935468,1.05415234869346
1772094452521418000,2.88241796875,7.7449454334855075,1.0562046050481497,1.0375921859715134
1772094452531367200,2.8923671875,7.69881847308278,0.9551632744140922,1.0428573399581014
1772094452541316900,2.90231689453125,8.02657567872107,0.7580792982161044,1.0598330977436154
1772094452551266800,2.912266845703125,8.363670037025212,0.6027668636903166,0.9189812233120203
1772094452561216000,2.922216064453125,8.224591821202635,0.584020954427123,0.5670199891351163
1772094452571166000,2.932166015625,7.543767612102627,0.6140533968582749,0.2613246854402125
1772094452581115000,2.942114990234375,6.58839464046061,0.5776452819153666,0.07850541797075421
1772094452591064800,2.95206494140625,5.5887692701160905,0.4847137541092932,-0.056660629376769064
1772094452601014000,2.962013916015625,4.556316565924883,0.4263742317348718,-0.2492823837351985
1772094452610964000,2.9719638671875,3.5161055026918646,0.4284983842819929,-0.43342904561720785
1772094452620913200,2.9819130859375,2.326553772819042,0.2862069055013358,-0.36906259110346434
1772094452630862800,2.99186279296875,1.0229565615713596,0.07048997889533638,-0.289008299722895
1772094452640812000,3.00181201171875,-0.4671370347559452,-0.1859194619745016,-0.19516630600839852
1772094452650762000,3.011761962890625,-2.1890660410583016,-0.4273945146933198,0.030614151309244334
1772094452660712000,3.0217119140625,-4.123749909290671,-0.648166824992746,0.3716721160147339
1772094452670660900,3.031660888671875,-6.175567872563004,-0.656226651199162,0.6513867368873208
1772094452680610800,3.04161083984375,-7.963395292186736,-0.3839011176645756,0.5458503598563372
1772094452690560000,3.05156005859375,-9.350888930261135,0.06464760954268277,0.09345832815915346
1772094452700510000,3.061510009765625,-10.389408971667288,0.49668132834397255,-0.6059541884895414
1772094452710459000,3.071458984375,-11.145841087198257,0.7029745930444449,-1.2827227655231952
1772094452720408800,3.081408935546875,-11.676679317492246,0.5206404422108084,-1.5778297474473715
1772094452730357800,3.091357666015625,-11.851300555860995,0.11920732111744582,-1.5187727244533598
1772094452740308000,3.101307861328125,-11.616644243246316,-0.06568900835439563,-1.5098703099429607
1772094452750258000,3.1112578125,-10.861546006667613,0.19220066113583742,-1.6983645908415317
1772094452760206800,3.121206787109375,-9.5049642242074,0.5478940675783902,-1.7591003607027231
1772094452770157000,3.131156982421875,-7.699514054131507,0.6051921180758625,-1.4623907658874988
1772094452780106000,3.14110595703125,-5.635562000951171,0.4003806163657456,-1.0085557688403874
1772094452790056000,3.151055908203125,-3.627105040499568,0.21514497193694113,-0.5555641638148575
1772094452800004900,3.1610048828125,-1.8915905764371155,0.054170858387649054,-0.08463855043090879
1772094452809954800,3.170954833984375,-0.4529021731764078,-0.15311463222056626,0.4710075195137411
1772094452819905000,3.180905029296875,0.6300462080210447,-0.361988597596623,0.9159555918805301
1772094452829854000,3.19085400390625,1.5648194592267275,-0.5164082480011507,1.1639692525878549
1772094452839804000,3.200803955078125,2.3836235675185917,-0.5911368873795494,1.221672742081061
1772094452849752800,3.2107529296875,3.140716192784905,-0.6430908369027077,1.1727442413263023
1772094452859703000,3.220703125,3.8620553676247593,-0.7078950252465903,1.1000856862202286
1772094452869652000,3.23065185546875,4.3349587108224625,-0.7719325400669127,1.0361625184945762
1772094452879602000,3.240601806640625,4.617275184756517,-0.8252046229839325,0.9249067409034818
1772094452889550800,3.25055078125,4.822488545265793,-0.8420388534069061,0.7469926715344191
1772094452899501000,3.2605009765625,4.9287160463660955,-0.8597885912396013,0.6304397373832762
1772094452909451000,3.270450927734375,5.030709855419397,-0.9205617705017328,0.6258643922917545
1772094452919400000,3.28039990234375,5.1070262023806565,-1.0390718300700188,0.6234492939740419
1772094452929350000,3.290349853515625,5.14420822430551,-1.1226822795622051,0.5716308439314365
1772094452939299000,3.300299072265625,5.23676843458116,-1.0845897186636924,0.47196167843341824
1772094452949249000,3.3102490234375,5.182015684652328,-0.9665205347307025,0.34356187381781633
1772094452959198000,3.320197998046875,5.019883925500512,-0.8365113952223211,0.2609697345227003
1772094452969148000,3.33014794921875,4.764111175099015,-0.7546586761176586,0.13482684198841452
1772094452979096800,3.340096923828125,4.432620628151297,-0.6436531469605863,-0.05208557654619217
1772094452989047000,3.350047119140625,3.9684406896352766,-0.43724469491522755,-0.3191352520370856
1772094452998997000,3.3599970703125,3.427577324411273,-0.17376337943039832,-0.6716330407761036
1772094453008946000,3.36994580078125,2.7372178097248074,0.021632497550174594,-0.934254195767641
1772094453018896100,3.379896240234375,1.9349428114295004,0.1468129017278552,-1.0872613490257412
1772094453028845000,3.389844970703125,0.9119254595816135,0.19487039180174467,-1.1313714166481048
1772094453038795000,3.399794921875,-0.26893969048857685,0.16900288703031838,-1.0841378101777284
1772094453048744000,3.409743896484375,-1.2187521053940058,0.19578071157969534,-1.0170471913971006
1772094453058694000,3.41969384765625,-1.9114760111242532,0.2815168479889631,-1.0490238266985863
1772094453068643000,3.42964306640625,-2.5457185017913577,0.2636100929636508,-1.115615994437784
1772094453078593000,3.439593017578125,-3.1603467759281396,0.23053762524947521,-1.240390667358786
1772094453088543000,3.44954296875,-3.7417256914138792,0.2600347917601466,-1.303693072837591
1772094453098492000,3.459491943359375,-4.362938020116091,0.362326853107661,-1.296386256955564
1772094453108442000,3.469442138671875,-5.00448235822916,0.48606480339206753,-1.2010259676326065
1772094453118391000,3.47939111328125,-5.4189937182128425,0.5367013501737267,-1.0642772176709026
1772094453128341000,3.489341064453125,-5.580519328165054,0.45213718015328047,-1.0184846037890762
1772094453138290000,3.4992900390625,-5.307952679350972,0.2832853920314461,-1.1043941970691085
1772094453148240000,3.509239990234375,-4.414445504513383,0.17974881051555275,-1.305148678473383
1772094453158188800,3.519188720703125,-3.302349354764819,0.0466398783609271,-1.3265345808513462
1772094453168139000,3.529138916015625,-2.2771938218444583,-0.14486439800858497,-1.072320604199171
1772094453178089000,3.5390888671875,-1.4081670082688331,-0.28395554637797177,-0.6625389030858874
1772094453188038000,3.549037841796875,-0.764034991750121,-0.35420031834058463,-0.23643530498594045
1772094453197987800,3.55898779296875,-0.30194939516484737,-0.39506862756274636,0.1254923927363008
1772094453207936800,3.568936767578125,0.06331482656896115,-0.5066072406832128,0.41854558393582697
1772094453217887000,3.578886962890625,0.30753859347403045,-0.6885590411357582,0.6122954838076606
1772094453227836000,3.5888359375,0.5111749139249324,-0.849831480044499,0.6187574828960001
1772094453237785900,3.598785888671875,0.8205874845772981,-0.8986206453938037,0.5271387912541627
1772094453247734800,3.60873486328125,1.195713175112009,-0.9027941316861658,0.4501424626721069
1772094453257685000,3.61868505859375,1.5207307266533374,-0.9186898391500115,0.46355252733267843
1772094453267635000,3.628635009765625,1.8968577031850813,-0.9344318173568695,0.5487894089829176
1772094453277584000,3.638583984375,2.3930565817743537,-1.0191372224789113,0.7587259255565703
1772094453287533800,3.648533935546875,2.9387054277092215,-1.1244136333994568,0.9056816698212176
1772094453297483000,3.65848291015625,3.5914591421008106,-1.2348917776815593,0.9198717424109577
1772094453307433000,3.668432861328125,4.263707246035337,-1.374633425848931,0.9198140208743512
1772094453317382000,3.6783818359375,4.84862485704124,-1.5114412125214933,0.9624706017527729
1772094453327331800,3.688331787109375,5.179439696684479,-1.6232327774897217,0.9919145767714828
1772094453337281000,3.698281005859375,5.305071570956707,-1.6752167933575808,0.970988327794522
1772094453347231000,3.70823095703125,5.316241784268617,-1.5201020733609796,0.8237527436751871
1772094453357181000,3.718180908203125,5.244685199055075,-1.2449945078924298,0.6960245547108351
1772094453367129900,3.7281298828125,5.127952086031437,-1.0301467653363943,0.6991945630490779
1772094453377080000,3.738080078125,4.962534144815803,-0.8454104487318546,0.7452632173933088
1772094453387029000,3.748029052734375,4.5458454407930375,-0.6914640418622643,0.7385410695314407
1772094453396979000,3.75797900390625,3.7699446546822784,-0.554568576906249,0.6201935070484876
1772094453406928000,3.767927978515625,2.9402614249795676,-0.3326520650077611,0.49482024717982853
1772094453416878000,3.777878173828125,2.3842039977550504,-0.014627514158934355,0.5729028366286307
1772094453426827000,3.787826904296875,2.027707019844651,0.1908178284753114,0.8605497848704456
1772094453436777000,3.79777685546875,1.8112006964266298,0.17141082495488225,0.996321652624011
1772094453446727000,3.807726806640625,1.7283184150785207,-0.030126258194446563,1.057253091187775
1772094453456675800,3.81767578125,1.301831955140829,-0.12814707196354866,0.9744752931274473
1772094453466626000,3.8276259765625,0.2145803237915039,-0.19109854511283336,0.9908882293984294
1772094453476575000,3.837574951171875,-1.205461831188202,-0.20527181269824504,1.1109573549769818
1772094453486525000,3.84752490234375,-2.4311019425302742,-0.073336235171929,1.0734033579345792
1772094453496473900,3.857473876953125,-3.4696862813442944,0.06609605478532612,0.7397441617108881
1772094453506424000,3.867424072265625,-4.350142251428961,0.16939853528439996,0.2634214567900635
1772094453516373000,3.877373046875,-5.4689539731681345,0.12267865048982202,-0.01242331864554435
1772094453526323000,3.887322998046875,-7.09328886668086,-0.013716975185275078,-0.13265198216736315
1772094453536272600,3.897272705078125,-8.958923748606443,0.231127407836169,-0.3157257723871618
1772094453546222000,3.90722216796875,-10.956979726552962,1.002522845351696,-0.4698884888885542
1772094453556171800,3.917171875,-12.734584442847966,1.8507101383857427,-0.7436956758156419
1772094453566121000,3.927120849609375,-14.188006304860114,2.44180541511327,-1.2066746410440652
1772094453576071000,3.93707080078125,-14.600239198517798,3.1195553313344715,-1.9936841926030813
1772094453586019800,3.947019775390625,-13.722483719563483,3.6894273488998413,-2.540363404498994
1772094453595969800,3.9569697265625,-12.19141280068159,3.4667005435317755,-2.461938102559745
1772094453605919000,3.9669189453125,-10.345705439019202,2.7008152477398513,-2.250143902355432
1772094453615869000,3.976868896484375,-7.920861387839913,2.119656258615106,-2.032683054691553
1772094453625819000,3.98681884765625,-5.858127478277683,1.4967150602936743,-1.7813177454687654
1772094453635768000,3.99676806640625,-4.14788598715961,0.5080100201532244,-1.5358032081007957
1772094453645717800,4.0067177734375,-2.4730805510818956,-0.4743146713003516,-1.3564653164736926
1772094453655667000,4.0166669921875,-1.337770699006319,-1.3617568470105528,-0.9580417524598538
1772094453665617000,4.026616943359375,-0.7961533005446195,-1.716808886809647,-0.6969215035505593
1772094453675566000,4.036566162109375,-0.226018248128891,-1.3907102620333431,-0.5461029463779181
1772094453685515800,4.046515869140625,0.3694727793395519,-0.7893744540594517,-0.269649519258365
1772094453695465000,4.05646484375,0.8639923265397548,-0.28845161568820477,0.16444602744355796
1772094453705414700,4.06641455078125,1.3460545432269573,-0.11449015640243887,0.5571003604061902
1772094453715364900,4.07636474609375,2.220260220745206,0.042090398363023994,0.7110590422354638
1772094453725313800,4.086313720703125,3.260332752290368,0.49879620160609484,1.2011430912062524
1772094453735263700,4.096263671875,3.7642490733891725,0.71266998456344,1.4554616972766816
1772094453745212700,4.106212646484375,4.2961306752562525,0.49290159060955047,1.0636322708308696
1772094453755163000,4.116162841796875,5.427122079610824,0.5681567380800843,1.0264287677265702
1772094453765111800,4.12611181640625,6.142156016826629,0.5999750410147011,1.093974363733083
1772094453775061800,4.136061767578125,6.607858050343394,0.5240784538354725,1.2121357559941708
1772094453785010700,4.1460107421875,6.959235201022029,0.47616972458250817,1.3444497383788228
1772094453794961000,4.1559609375,7.2247753122001885,0.6138230952337383,1.468613147533685
1772094453804910800,4.165910888671875,7.497607333952188,0.9357590473726392,1.4739882647007703
1772094453814859800,4.17585986328125,8.077991393181682,1.0881663350414483,1.5926304262161255
1772094453824809700,4.185809814453125,8.659377907451987,1.1812597023457287,1.742670765557885
1772094453834758700,4.195758544921875,9.147283589470385,1.3375297298572957,1.7706085737973452
1772094453844708900,4.205708984375,9.638319970729947,1.3685285331025718,1.7034563610225915
1772094453854657800,4.21565771484375,9.859614697468281,1.2500810173764825,1.4912649781942366
1772094453864607700,4.225607666015625,9.524946105006336,0.8753258406545966,1.0455091696411372
1772094453874556700,4.235556640625,8.78984845392704,0.36707470522187646,0.5184438820146023
1772094453884507000,4.2455068359375,7.852821286314725,-0.015153547327034174,0.22738968261256812
1772094453894456800,4.255456787109375,6.74513009352684,-0.11287636453025042,-0.041910877077654
1772094453904405800,4.26540576171875,5.402918781724572,-0.25633367221988734,-0.15116777246911078
1772094453914355700,4.275355712890625,4.195371376433968,-0.466375548864156,-0.07919878879608586
1772094453924305000,4.285304931640625,3.374880922490358,-0.5215880983244627,-0.14300521654058246
1772094453934254800,4.2952548828125,2.7384131569892167,-0.3654919295424595,-0.3240778230058029
1772094453944203800,4.305203857421875,2.213261740159988,-0.33872955829054113,-0.5254975633857771
1772094453954153700,4.31515380859375,1.7814643143326043,-0.6315505481693894,-0.713101800109446
1772094453964104000,4.32510400390625,1.2494424272119997,-0.9434618768349289,-1.0350900669574736
1772094453974052900,4.335052978515625,0.7123410448700189,-1.117916964856535,-1.3414862123981117
1772094453984002800,4.3450029296875,0.2544640058904886,-1.3859082685790955,-1.304448567380011
1772094453993951700,4.35495166015625,-0.17816636362969873,-1.7315407381258905,-1.1683732597004621
1772094454003902000,4.36490185546875,-0.7776905921369791,-1.8290838513806462,-1.0932786365538836
1772094454013851000,4.374850830078125,-1.5122282712459563,-1.7927103693597017,-0.8178028953600674
1772094454023800800,4.38480078125,-2.5392063434183596,-1.8045155195742844,-0.2891264462098479
1772094454033749800,4.394749755859375,-3.519299914819002,-1.596871278656274,0.22595365846008061
1772094454043700000,4.404699951171875,-4.159190640506148,-1.0237782532177866,0.29476759390197693
1772094454053649000,4.41464892578125,-4.433164818030596,-0.4597826899377629,0.08670388546288013
1772094454063598800,4.424598876953125,-4.2790795872122045,-0.11899330390742979,-0.00798603031784296
1772094454073548800,4.434548828125,-4.0218209821671245,0.08594622636283747,-0.14381138182431458
1772094454083497700,4.444497802734375,-4.227048955723643,0.3782740350304171,-0.484039946500957
1772094454093448000,4.454447998046875,-5.101684841352701,0.7578728889238089,-0.7576266590777784
1772094454103396900,4.46439697265625,-6.576157674700021,1.1248644459068775,-0.728452148650214
1772094454113346800,4.474346923828125,-8.067405117237568,1.4021284587569534,-0.3729926970940083
1772094454123299000,4.484299072265625,-9.602547231081127,1.5505011571474372,0.20415311086662113
1772094454133249300,4.494249267578125,-10.756921264588833,1.4835709165602922,0.5099171689487993
1772094454143198200,4.5041982421875,-11.107421632432937,1.6492998234212397,0.3106459118396044
1772094454153148200,4.514148193359375,-10.594356374716758,2.157662018013,-0.1947524279778823
1772094454163098000,4.52409814453125,-9.352958137750624,2.0799711678281425,-0.4599676911158487
1772094454173047000,4.534047119140625,-7.769422872138023,1.3967948426440358,-0.24046909054666757
1772094454182997200,4.543997314453125,-5.889048686242103,0.5514584455290809,0.16646967875827104
1772094454192946200,4.5539462890625,-3.989175434628129,-0.030860454220511018,0.27852000426053997
1772094454202896100,4.563896240234375,-2.1182932996988297,-0.5409860782882199,0.33842429173365235
1772094454212845000,4.573844970703125,-0.3928764512807131,-0.947754532527551,0.5116494726341217
1772094454222795300,4.583795166015625,0.9487298803657293,-1.2372028311029075,0.7983556328944862
1772094454232744200,4.593744140625,1.9781863253504037,-1.4073381562292575,1.0294374480232595
1772094454242694100,4.603694091796875,2.9062691390067337,-1.405195445112139,1.0827873454168437
1772094454252644000,4.61364404296875,3.648960898476839,-1.325836515584588,1.0567190573763101
1772094454262593300,4.62359326171875,4.237868455901742,-1.2795939659781754,1.0569691596798598
1772094454272543200,4.633543212890625,4.60408427927196,-1.3942697080805897,1.0406645060889421
1772094454282492200,4.6434921875,4.70210976921618,-1.5738783794730902,0.9676054073579609
1772094454292442000,4.653442138671875,4.745621578684449,-1.6274515642285345,0.8182860027018934
1772094454302391000,4.66339111328125,4.771381458362937,-1.5362544589996336,0.7057993681415915
1772094454312341200,4.67334130859375,4.783175356531143,-1.338565356515348,0.6483052836153655
1772094454322290200,4.683290283203125,4.652935111680627,-1.153341694785282,0.7173012976258992
1772094454332240100,4.693240234375,4.301280313104391,-0.9646820672571659,0.7770971562884748
1772094454342190300,4.7031904296875,3.8329000002890825,-0.853536691237986,0.8559274588320404
1772094454352139300,4.71313916015625,3.253734084677696,-0.7510355171844363,0.9161962687686085
1772094454362089200,4.723089111328125,2.7342940312325954,-0.6011704248117282,0.9320691068135202
1772094454372038100,4.7330380859375,2.375129879939556,-0.44251090834774076,0.8311937073308974
1772094454381988000,4.742988037109375,2.144964449003339,-0.4118386701757088,0.6764874950699508
1772094454391937300,4.752937255859375,1.9350889419019222,-0.43551761539429423,0.382814418406412
1772094454401887200,4.76288720703125,1.7567156575232743,-0.4868668404899537,0.05507538774562999
1772094454411836200,4.772836181640625,1.5305121159553527,-0.4997168966475874,-0.32774120435155923
1772094454421786000,4.7827861328125,1.4589695592671632,-0.4804303411690518,-0.7071811778888106
1772094454431736300,4.792736328125,1.5270254428833723,-0.41994766928609456,-0.9081504710875451
1772094454441685200,4.802685302734375,1.4095347894906998,-0.22784924468202514,-0.9033633829414844
1772094454451635200,4.81263525390625,1.0428700533092021,-0.04974755291952751,-0.760471161788702
1772094454461584100,4.822584228515625,0.4034095357328653,0.05339348994013853,-0.5710000717472284
1772094454471534300,4.832534423828125,-0.47694531206488605,0.10656421310822478,-0.3688941757339984
1772094454481483300,4.842483154296875,-1.4198843340694904,0.18952249143514782,-0.24022012075427918
1772094454491433200,4.85243310546875,-2.3065800753265617,0.33853385305535044,-0.28274657244700935
1772094454501382100,4.862382080078125,-2.950072040376067,0.533253767003119,-0.44038931308388707
1772094454511332400,4.872332275390625,-3.3249031318783757,0.6861557063210755,-0.5534067300526425
1772094454521282300,4.8822822265625,-3.5307483605504033,0.7306634680241346,-0.6045061085730791
1772094454531231200,4.892231201171875,-3.60779769796133,0.6540612898588181,-0.5167733549864962
1772094454541181200,4.90218115234375,-3.5697996834784744,0.46078558336999265,-0.27350959222000093
1772094454551130000,4.912130126953125,-3.3627386492758986,0.3004494389306754,-0.035672962218907193
1772094454561080300,4.922080322265625,-3.0509663637548683,0.19313423392521217,0.19691694906800986
1772094454571029200,4.932029296875,-2.5930326261520382,0.11898421641867607,0.4796309709522873
1772094454580979200,4.941979248046875,-2.080793297865987,0.012972129901032895,0.7623664009507745
1772094454590928100,4.95192822265625,-1.549831148931384,-0.16946177324634043,0.9724823657445609
1772094454600878300,4.96187841796875,-0.9592898528248072,-0.34805670101903374,1.02093689231202
1772094454610827300,4.9718271484375,-0.27718437174260613,-0.5178766400532797,0.9370451416604221
1772094454620777200,4.981777099609375,0.45946460043191906,-0.6711830319862813,0.7922814275473355
1772094454630727200,4.99172705078125,1.2368763756275176,-0.8005540927868336,0.6670506083566695
1772094454640676400,5.00167626953125,2.035641319975257,-0.9076634182229637,0.6351740724287926
1772094454650626300,5.011626220703125,2.7967233071386812,-0.9749389651164412,0.6288396817754953
1772094454660575200,5.0215751953125,3.4068542698562143,-1.0362578686278312,0.6406144368518144
1772094454670525200,5.031525146484375,3.9162750335901975,-1.0483589330490677,0.6231058873638511
1772094454680474400,5.041474365234375,4.402351162093877,-1.0002616954866796,0.5510779583115131
1772094454690424300,5.05142431640625,4.77163747895062,-0.9591424802433699,0.5264508820552378
1772094454700373200,5.061373291015625,4.98737983225882,-0.9076790541835129,0.5737722398743033
1772094454710323200,5.0713232421875,5.106753230658173,-0.8348625320367514,0.6248575533367693
1772094454720273200,5.081273193359375,5.151246452379226,-0.6905487536482513,0.5740406084869056
1772094454730222300,5.091222412109375,4.940756612771749,-0.5295910432444885,0.3125683678021654
1772094454740172000,5.101172119140625,4.514876302033662,-0.3690175829179585,-0.0704546335873194
1772094454750121200,5.111121337890625,4.042689582672715,-0.2274300511555746,-0.23544172737132757
1772094454760071200,5.1210712890625,3.4060119738131758,-0.06004180538081564,-0.019674093491397798
1772094454770020400,5.131020263671875,2.7170646640121934,0.021916410791780798,0.35145967786293475
1772094454779970000,5.140969970703125,2.0899434035271405,0.11351367605309932,0.6339429962638765
1772094454789919200,5.150919189453125,1.4088000454753637,0.19132263619229195,0.7547381710946559
1772094454799869200,5.160869140625,0.7621294503897428,0.19218376479996366,0.662843731251359
1772094454809819100,5.170819091796875,0.21898761883974074,0.2518854058404453,0.3123475281257182
1772094454819768000,5.18076806640625,-0.36744799551367757,0.37398956264425065,-0.06320957609619945
1772094454829718000,5.190718017578125,-1.130616725823283,0.19154469971144572,-0.3272751577423885
1772094454839667200,5.200667236328125,-2.084468771508336,-0.045802660351805385,-0.5636336711650713
1772094454849617200,5.2106171875,-3.0700492498874663,0.012837214942369609,-0.6712317664988339
1772094454859566300,5.22056640625,-4.2801568610548975,0.26463256787918504,-0.5479082787668332
1772094454869516000,5.23051611328125,-5.434862902995944,0.639281069356203,-0.5912121811054647
1772094454879465200,5.24046533203125,-6.255765444871783,1.089091194801405,-0.779184630087018
1772094454889415200,5.250415283203125,-6.769148682495952,1.3915823686927555,-0.9980093865152447
1772094454899365000,5.260365234375,-7.080509464606642,1.5865101897701621,-1.3442287891045213
1772094454909314000,5.27031396484375,-7.354770057857036,1.8135060507595537,-1.6363110163800418
1772094454919264000,5.280263916015625,-7.654933154127002,1.7952707213670014,-1.697188094408065
1772094454929213000,5.290212890625,-7.826614831912517,1.4852455717742443,-1.615428825740516
1772094454939163100,5.3001630859375,-7.649203670564294,1.0897430097736418,-1.5309383785434065
1772094454949112000,5.310112060546875,-7.224102527505159,0.7801676497749984,-1.4152850235804915
1772094454959062000,5.32006201171875,-6.675260438486934,0.57659219266586,-1.465312790814042
1772094454969011000,5.330010986328125,-5.909831946551799,0.29240627159811555,-1.5615642568230628
1772094454978961200,5.339961181640625,-5.155754285192489,-0.046466421490162606,-1.6298206314474344
1772094454988910000,5.34991015625,-4.4982513304471965,-0.3934834041979164,-1.6888924136191605
1772094454998860000,5.359860107421875,-3.998169472944736,-0.6592344547130167,-1.71052732232213
1772094455008810200,5.369810302734375,-3.8314451253056525,-0.8482932376265525,-1.7561410725057125
1772094455018759200,5.37975927734375,-3.7190392278313635,-0.8182516620408743,-1.9330512985944748
1772094455028709000,5.389709228515625,-3.3909938529014587,-0.5028935539223254,-2.022621387143433
1772094455038658000,5.399657958984375,-2.8891911629557607,-0.10603767761662602,-1.6992499953739344
1772094455048608000,5.40960791015625,-2.158809434482455,0.15352050960771738,-1.1817144603759049
1772094455058557200,5.41955712890625,-1.0834721128106117,0.26895602056886997,-0.46810164200440046
1772094455068507100,5.429507080078125,0.0018435820400714872,0.33079178756121547,0.3256123025640845
1772094455078456000,5.4394560546875,0.8992395810097455,0.3339961000278592,1.0548822704032064
1772094455088406000,5.449406005859375,1.678839221638441,0.3300133870672434,1.6195996816843747
1772094455098356200,5.459356201171875,2.5470827758818864,0.28853805186264214,2.0200223105609414
1772094455108305200,5.46930517578125,3.4940099907398223,0.198668231448438,2.315301288051158
1772094455118255000,5.479255126953125,4.5475902386337514,0.07442596663739531,2.3843073119990525
1772094455128201500,5.489201416015625,5.404197131097316,0.016710914570558816,2.327094747827947
1772094455138151400,5.4991513671875,5.902274078518152,-0.2976871711431071,2.3689381856925786
1772094455148100400,5.509100341796875,6.4048717182338235,-0.6664269965656101,2.37716430837661
1772094455158050300,5.51905029296875,6.8844678370684385,-0.8568539260271936,2.292373855319619
1772094455167999200,5.528999267578125,7.2814528927117586,-0.8710880569543689,2.2286453333832323
1772094455177949400,5.538949462890625,7.355310156083107,-0.7173644259899854,2.1476148173816503
1772094455187898400,5.5488984375,7.019048741471767,-0.5629186912961304,2.034804284629226
1772094455197848300,5.558848388671875,6.26960926130712,-0.5684571823313832,1.9853866121180355
1772094455207798500,5.568798583984375,5.6251943361937995,-0.6417723016500473,1.9821336016714572
1772094455217747500,5.57874755859375,5.451726944035292,-0.6900804054841398,1.8226991187795996
1772094455227697400,5.588697509765625,5.605336374035478,-0.6635077481180429,1.5811699977859854
1772094455237646300,5.598646240234375,5.603904295405745,-0.617695552752912,1.1836895598411559
1772094455247596300,5.60859619140625,5.611677267494797,-0.46845995392277834,0.8590501939624547
1772094455257545500,5.61854541015625,5.168722487837075,-0.2782422650313936,0.6495695313975215
1772094455267495400,5.628495361328125,4.507525939270853,-0.18452227199506013,0.29310145078804345
1772094455277444400,5.6384443359375,4.106517034938931,-0.1928554352501407,-0.24723352491399272
1772094455287394300,5.648394287109375,3.933106925925612,-0.16518245195932685,-0.718164855652675
1772094455297343200,5.65834326171875,3.8188469250172377,-0.16929502011099828,-0.9069036858968437
1772094455307293400,5.66829345703125,3.4240321991503238,-0.17043397927936166,-0.9513259612735361
1772094455317243400,5.678243408203125,2.610772865504026,-0.13883277142783626,-1.0457422477446496
1772094455327192300,5.6881923828125,1.7240484826743603,-0.0660357759654522,-1.1511376819349826
1772094455337142500,5.698142578125,0.8378139291882515,0.03204469556901604,-1.2167447841595858
1772094455347091500,5.708091552734375,-0.04417699537873268,0.05429769963771104,-1.242533232345432
1772094455357041400,5.71804150390625,-0.9606301615178584,0.10654062217008321,-1.191475683672726
1772094455366990300,5.727990234375,-2.125104148757458,0.1666248327873647,-1.117243157248199
1772094455376940500,5.7379404296875,-3.039023412504792,0.06888491831887512,-1.1240304793007672
1772094455386889500,5.747889404296875,-3.4185751027882096,-0.1703615350976586,-1.1203624583125114
1772094455396839400,5.75783935546875,-3.310038740223646,-0.5584376003593207,-0.9721220079995692
1772094455406789400,5.767789306640625,-2.7453637067794796,-0.9458845739372074,-0.7557387264393269
1772094455416738300,5.77773828125,-2.444826516500115,-1.1457033819265663,-0.6975107016153633
1772094455426688500,5.7876884765625,-2.55037714125216,-1.1792751043997705,-1.0440738030757755
1772094455436637400,5.797637451171875,-3.0393986755579707,-0.9922862596280873,-1.5140828130714594
1772094455446587400,5.80758740234375,-4.11519192430377,-0.7164817248713224,-1.4668419000774622
1772094455456536300,5.817536376953125,-5.739731400477885,-0.38481859783567485,-1.1018350141055882
1772094455466486500,5.827486572265625,-7.293505734077096,0.24718181299306452,-0.9584338205173611
1772094455476435500,5.837435546875,-8.385596622151136,1.2298285029426217,-0.9936989029049873
1772094455486385400,5.847385498046875,-8.474097912424803,2.1679593940131365,-0.6975127474419772
1772094455496334300,5.857334228515625,-8.092551833453774,2.831250722901523,-0.24694705438911912
1772094455506284500,5.867284423828125,-7.129759525465965,2.805290059953928,0.13783698358982802
1772094455516234500,5.877234375,-5.486802933591604,1.908154757747054,0.569280919804424
1772094455526183400,5.887183349609375,-3.657278644967079,0.6793516523294151,0.9210693546976894
1772094455536133400,5.89713330078125,-1.992228879228234,-0.20448815150726585,1.0904171096429227
1772094455546082300,5.907082275390625,-0.7814835546791553,-0.758931385000795,1.312612000091374
1772094455556032500,5.917032470703125,-0.16120996813178062,-0.9985574488520622,1.660636625471711
1772094455565981400,5.9269814453125,0.1834615474283695,-0.9457225152432918,1.8611907619982957
1772094455575931400,5.936931396484375,0.6373492245107889,-0.7955292503621428,1.9068840071588753
1772094455585880300,5.94688037109375,1.106998534348607,-0.5830167823532596,1.8160335234105587
1772094455595830500,5.95683056640625,1.4812906966686248,-0.5377770531138405,1.6824743632704018
1772094455605779500,5.966779541015625,1.7051982362538576,-0.7147177839387208,1.5091893419414757
1772094455615729400,5.9767294921875,1.839910073560476,-1.0187984189786017,1.289365418408066
1772094455625679400,5.986679443359375,2.1101883191764355,-1.1411594548866153,0.9876811769854277
1772094455635628500,5.996628662109375,2.4321920758545397,-1.083022761607915,0.6180084180943668
1772094455645578500,6.00657861328125,2.78490193644166,-1.0318689129538834,0.2952727852114476
1772094455655527400,6.01652734375,3.008097528365254,-1.0455644800249486,0.12507242289171552
1772094455665477400,6.026477294921875,3.2270734567672013,-1.0820365270495413,0.023660852439468725
1772094455675426600,6.036426513671875,3.501522266066074,-1.0723839517589657,-0.004635267718369141
1772094455685376500,6.04637646484375,3.8005145649909973,-0.9284563231438397,-0.04879037092570215
1772094455695325400,6.056325439453125,3.9746845524609085,-0.6324303997438401,-0.08699327859720214
1772094455705275400,6.066275390625,3.812955528891086,-0.32054310954101384,0.0487633550546132
1772094455715224300,6.076224365234375,3.2178415180414914,-0.16355327985491602,0.18968747273851186
1772094455725174500,6.086174560546875,2.60817408118248,-0.10626236235112882,0.23045400208663194
1772094455735124200,6.096124267578125,2.1639321843236683,-0.06101391094913706,0.142448459440656
1772094455745073400,6.106073486328125,2.0415993515968323,-0.08446761431079357,-0.12654186525661498
1772094455755023400,6.1160234375,2.0771096409171816,-0.1565118003781885,-0.36981253268793224
1772094455764972500,6.12597265625,1.8206763807803392,-0.1963131379559636,-0.4050877346107736
1772094455774922500,6.135922607421875,1.5386089131712912,-0.25422950301486996,-0.45056145526915786
1772094455784871400,6.145871337890625,1.2409370491951703,-0.18660927086956797,-0.5476338457396254
1772094455794821400,6.1558212890625,0.9716478146165609,0.026519502406753596,-0.7374801623016596
1772094455804770600,6.1657705078125,0.8565455176651477,0.29147783164158464,-0.8613697229512035
1772094455814720500,6.175720458984375,0.7978951757758855,0.4764837224351242,-0.9028362903274595
1772094455824669400,6.18566943359375,0.5088672215044499,0.5874954986698925,-0.905622194718942
1772094455834619400,6.195619384765625,-0.22062544917464255,0.7586086558524519,-0.8010517401106655
1772094455844569300,6.2055693359375,-1.4003472744286058,0.9744240013316273,-0.5853833653541282
1772094455854518500,6.2155185546875,-2.3713842636704445,0.9313685573287308,-0.26184023374691606
1772094455864468200,6.22546826171875,-2.896380782198906,0.9161807058732956,-0.13597279715314506
1772094455874417400,6.23541748046875,-3.0521506051033733,0.9613134676069021,-0.11045238878633826
1772094455884367400,6.245367431640625,-2.981094370627403,0.8268224334441124,-0.17791779569610952
1772094455894316500,6.255316650390625,-2.3494594321101903,0.5318371051382274,-0.3720541010696441
1772094455904266200,6.265266357421875,-1.6587644018590448,0.4374504466203972,-0.463995302664116
1772094455914215400,6.27521533203125,-0.9434060549944638,0.4859012103281915,-0.5112209815563634
1772094455924165400,6.285165283203125,-0.4984194772481918,0.43808173026125874,-0.42493170477636155
1772094455934114600,6.295114501953125,0.06978840649724007,0.3519894008254632,-0.2677966761996038
1772094455944064300,6.305064208984375,0.7626163571238518,0.31451069750897587,-0.13471897943345829
1772094455954014200,6.31501416015625,1.2121002462893724,0.22272373662814496,0.0008550093941390514
1772094455963963400,6.32496337890625,1.5886784737199544,-0.012820318606495856,0.11549209998659789
1772094455973913300,6.334913330078125,1.8700018449634312,-0.162806407010369,0.26875640634354203
