time,seconds_elapsed,z,y,x
1772094449705698600,0.066698486328125,-0.037454187870025635,-0.5925812721252441,-0.2568822503089905
1772094449715647500,0.0766474609375,0.01900961808860302,-0.3259966969490051,0.1732422411441803
1772094449725597400,0.086597412109375,0.014929087832570076,-0.14792625606060028,0.5459163188934326
1772094449735546600,0.096546630859375,-0.027058841660618782,-0.1639435738325119,0.7796677947044373
1772094449745496600,0.10649658203125,-0.08604315668344498,-0.3818745017051697,0.8260953426361084
1772094449755445500,0.116445556640625,-0.17399351298809052,-0.751563310623169,0.724205732345581
1772094449765395500,0.1263955078125,-0.2781558930873871,-1.227623462677002,0.5137736201286316
1772094449775344600,0.1363447265625,-0.3975238502025604,-1.6434454917907715,0.21662531793117523
1772094449785294600,0.146294677734375,-0.5263189077377319,-1.9203931093215942,-0.16960391402244568
1772094449795243500,0.156243408203125,-0.6548630595207214,-2.0504140853881836,-0.6087013483047485
1772094449805193500,0.166193359375,-0.7190822958946228,-1.9105339050292969,-0.9611085057258606
1772094449815143700,0.176143798828125,-0.696127712726593,-1.4643696546554565,-1.1324461698532104
1772094449825092600,0.186092529296875,-0.5899707674980164,-0.8244932889938354,-1.1301782131195068
1772094449835042600,0.19604248046875,-0.44888344407081604,-0.2002299576997757,-1.0147895812988281
1772094449844991500,0.205991455078125,-0.2984330952167511,0.3514278829097748,-0.8365243673324585
1772094449854941700,0.215941650390625,-0.13367372751235962,0.7284987568855286,-0.6425474286079407
1772094449864890600,0.225890625,0.004484822507947683,0.9190335273742676,-0.4615158140659332
1772094449874840600,0.235840576171875,0.1022699698805809,0.9701001644134521,-0.32633429765701294
1772094449884789500,0.24578955078125,0.12919585406780243,0.9254187941551208,-0.23450623452663422
1772094449894739500,0.255739501953125,0.08971501886844635,0.820663571357727,-0.1883070468902588
1772094449904688600,0.265688720703125,0.03641841188073158,0.6385591626167297,-0.1619337797164917
1772094449914638600,0.275638671875,0.009631539694964886,0.47371557354927063,-0.13318149745464325
1772094449924587500,0.28558740234375,0.040406111627817154,0.3825884461402893,-0.0864701047539711
1772094449934537500,0.295537353515625,0.13750842213630676,0.3495287597179413,-0.0004097907803952694
1772094449944486400,0.305486328125,0.28128623962402344,0.3445017635822296,0.13105443120002747
1772094449954436600,0.3154365234375,0.456757128238678,0.3520853817462921,0.3082028329372406
1772094449964386600,0.325386474609375,0.616097629070282,0.42735981941223145,0.5248802900314331
1772094449974335500,0.33533544921875,0.7317094206809998,0.6151416897773743,0.767937421798706
1772094449984285700,0.34528564453125,0.7985394597053528,0.8769934773445129,0.9971804618835449
1772094449994234600,0.355234619140625,0.847690761089325,1.099429965019226,1.1753755807876587
1772094450004184600,0.3651845703125,0.8676280379295349,1.194169044494629,1.2727633714675903
1772094450014133500,0.375133544921875,0.8461789488792419,1.112028956413269,1.2941906452178955
1772094450024083700,0.385083740234375,0.7934497594833374,0.8620694279670715,1.2430267333984375
1772094450034032600,0.39503271484375,0.7213827967643738,0.5373126268386841,1.1611510515213013
1772094450043982600,0.404982666015625,0.6096261143684387,0.260216623544693,1.0719555616378784
1772094450053931500,0.414931640625,0.48376569151878357,0.09133759140968323,0.9853261113166809
1772094450063881500,0.424881591796875,0.398673415184021,0.1172695979475975,0.9063400626182556
1772094450073830700,0.43483056640625,0.42285943031311035,0.4133627712726593,0.8251168131828308
1772094450083780600,0.444780517578125,0.5048978328704834,0.7929118871688843,0.6863920092582703
1772094450093729500,0.4547294921875,0.586818516254425,1.0986137390136719,0.5107917189598083
1772094450103679500,0.464679443359375,0.6326056718826294,1.1881014108657837,0.31863725185394287
1772094450113629700,0.474629638671875,0.6592628359794617,0.9059084057807922,0.13364236056804657
1772094450123578400,0.484578369140625,0.6602444052696228,0.3295241892337799,0.008088640868663788
1772094450133528300,0.4945283203125,0.598881185054779,-0.22097808122634888,0.02001720666885376
1772094450143477200,0.504477294921875,0.4510714113712311,-0.5346131324768066,0.16642756760120392
1772094450153427500,0.514427490234375,0.23895490169525146,-0.6292075514793396,0.3718624711036682
1772094450163376400,0.52437646484375,0.03901376947760582,-0.4840163588523865,0.5553126335144043
1772094450173326300,0.534326416015625,-0.12060412019491196,-0.20502573251724243,0.6114802956581116
1772094450183275300,0.544275146484375,-0.2583584487438202,0.004220984876155853,0.49088984727859497
1772094450193225500,0.5542255859375,-0.416024774312973,0.0364026203751564,0.18732596933841705
1772094450203174400,0.56417431640625,-0.639337956905365,-0.14561410248279572,-0.2948172986507416
1772094450213124400,0.574124267578125,-0.932529628276825,-0.5720876455307007,-0.8999655246734619
1772094450223073300,0.5840732421875,-1.147707223892212,-1.088788390159607,-1.4353207349777222
1772094450233023500,0.5940234375,-1.1973965167999268,-1.3354297876358032,-1.7174136638641357
1772094450242972400,0.603972412109375,-1.1148370504379272,-1.2227312326431274,-1.706364393234253
1772094450252922400,0.61392236328125,-0.9213790893554688,-0.7273462414741516,-1.4518828392028809
1772094450262872300,0.623872314453125,-0.6858375072479248,-0.022220036014914513,-1.1149449348449707
1772094450272821200,0.6338212890625,-0.501722514629364,0.681475818157196,-0.8234149813652039
1772094450282771500,0.643771484375,-0.3801005184650421,1.2597202062606812,-0.6366446614265442
1772094450292720400,0.653720458984375,-0.3439848721027374,1.5828231573104858,-0.5925655961036682
1772094450302670300,0.66367041015625,-0.3729635775089264,1.6247800588607788,-0.6608211994171143
1772094450312619300,0.673619384765625,-0.4172745943069458,1.4243481159210205,-0.7903786897659302
1772094450322569500,0.683569580078125,-0.4474331736564636,1.0578562021255493,-0.9093589186668396
1772094450332518400,0.693518310546875,-0.41964948177337646,0.6630569696426392,-0.9650594592094421
1772094450342468400,0.70346826171875,-0.3519940972328186,0.342999666929245,-0.9494851231575012
1772094450352417300,0.713417236328125,-0.2529948055744171,0.12839975953102112,-0.8669231534004211
1772094450362367500,0.723367431640625,-0.10784871876239777,0.046478066593408585,-0.7353003025054932
1772094450372316400,0.73331640625,0.048007991164922714,0.09983450174331665,-0.5620712637901306
1772094450382266400,0.743266357421875,0.17089660465717316,0.21392208337783813,-0.37564459443092346
1772094450392215300,0.75321533203125,0.2674258053302765,0.301839679479599,-0.2065304070711136
1772094450402165200,0.763165283203125,0.3244113028049469,0.3541099727153778,-0.06322667747735977
1772094450412115500,0.773115478515625,0.33704161643981934,0.34931308031082153,0.028766898438334465
1772094450422064400,0.783064453125,0.31825292110443115,0.3216210901737213,0.05808855593204498
1772094450432014300,0.793014404296875,0.28884896636009216,0.32551276683807373,0.028780199587345123
1772094450441963300,0.80296337890625,0.2855151891708374,0.3884764611721039,-0.04760807007551193
1772094450451913500,0.81291357421875,0.3402141034603119,0.3838542699813843,-0.13188274204730988
1772094450461862400,0.8228623046875,0.4067175090312958,0.23629595339298248,-0.21854546666145325
1772094450471812400,0.832812255859375,0.49385347962379456,0.0636775866150856,-0.2637600600719452
1772094450481761300,0.84276123046875,0.5790706276893616,-0.04853326454758644,-0.21976448595523834
1772094450491711500,0.85271142578125,0.5774820446968079,-0.07438722997903824,-0.10945609211921692
1772094450501660400,0.862660400390625,0.521458625793457,-0.0542115643620491,0.0372164249420166
1772094450511610400,0.8726103515625,0.4395030736923218,-0.0021606129594147205,0.19459247589111328
1772094450521559300,0.882559326171875,0.33601289987564087,0.13567596673965454,0.3071763813495636
1772094450531509500,0.892509521484375,0.2233220487833023,0.2903289198875427,0.34057241678237915
1772094450541458400,0.90245849609375,0.1341232806444168,0.3808339536190033,0.29639074206352234
1772094450551408400,0.912408447265625,0.08480846881866455,0.3366127014160156,0.2177949696779251
1772094450561358300,0.9223583984375,0.1282654106616974,0.20193436741828918,0.16860030591487885
1772094450571307300,0.932307373046875,0.23855702579021454,0.15598951280117035,0.15696868300437927
1772094450581257200,0.94225732421875,0.34726062417030334,0.04639001190662384,0.1420453041791916
1772094450591206400,0.952206298828125,0.4163334369659424,-0.19773398339748383,0.15068194270133972
1772094450601156400,0.96215625,0.4358620047569275,-0.41133469343185425,0.17555688321590424
1772094450611105300,0.972105224609375,0.4229837656021118,-0.5185741186141968,0.18895632028579712
1772094450621055500,0.982055419921875,0.38398855924606323,-0.5589047074317932,0.17203277349472046
1772094450631004400,0.99200439453125,0.33385083079338074,-0.534406840801239,0.12098316848278046
1772094450640954400,1.001954345703125,0.2856634855270386,-0.4502086043357849,0.06835947930812836
1772094450650903300,1.0119033203125,0.2432750165462494,-0.34440305829048157,0.03956884145736694
1772094450660853500,1.021853515625,0.21686597168445587,-0.22881299257278442,0.06368456780910492
1772094450670802400,1.031802490234375,0.1929989904165268,-0.15159198641777039,0.11916274577379227
1772094450680752400,1.04175244140625,0.16742174327373505,-0.13751110434532166,0.17485123872756958
1772094450690701300,1.051701416015625,0.13591015338897705,-0.18812447786331177,0.20351296663284302
1772094450700651500,1.061651611328125,0.09668058156967163,-0.24829964339733124,0.20111963152885437
1772094450710601200,1.071601318359375,0.05847274512052536,-0.2969377636909485,0.19054076075553894
1772094450720550400,1.08155029296875,0.027042750269174576,-0.32190951704978943,0.19545695185661316
1772094450730500000,1.0915,0.0009419061243534088,-0.3015488386154175,0.22506970167160034
1772094450740449300,1.10144921875,-0.02348078042268753,-0.23228079080581665,0.27820509672164917
1772094450750399200,1.111399169921875,-0.02372073195874691,-0.11312270909547806,0.35475635528564453
1772094450760348400,1.121348388671875,0.007229090202599764,0.008271338418126106,0.45576244592666626
1772094450770298400,1.13129833984375,0.05077177286148071,0.0826459676027298,0.5397947430610657
1772094450780247300,1.141247314453125,0.09322017431259155,0.03752428665757179,0.5737607479095459
1772094450790197200,1.151197265625,0.13505631685256958,-0.1372549831867218,0.5502055883407593
1772094450800146400,1.161146484375,0.13533872365951538,-0.4051305055618286,0.4809526801109314
1772094450810096400,1.171096435546875,0.09779109060764313,-0.7503573894500732,0.4160005748271942
1772094450820045300,1.18104541015625,0.02883835881948471,-1.0701756477355957,0.376207172870636
1772094450829995500,1.19099560546875,-0.033774156123399734,-1.2685856819152832,0.389769047498703
1772094450839944400,1.2009443359375,-0.047077976167201996,-1.3370263576507568,0.44358089566230774
1772094450849894400,1.210894287109375,0.019496789202094078,-1.3110133409500122,0.4992350935935974
1772094450859844000,1.220843994140625,0.11887189745903015,-1.1637507677078247,0.5422875285148621
1772094450869793300,1.230793212890625,0.19649691879749298,-0.9336844682693481,0.5622615218162537
1772094450879743200,1.2407431640625,0.22983744740486145,-0.7249110341072083,0.5685306191444397
1772094450889692400,1.2506923828125,0.2105359137058258,-0.5043155550956726,0.5772649645805359
1772094450899642000,1.26064208984375,0.16302578151226044,-0.20541581511497498,0.5559166073799133
1772094450909591300,1.27059130859375,0.12814582884311676,0.041477054357528687,0.44553494453430176
1772094450919541200,1.280541259765625,0.09591203927993774,0.1852155327796936,0.2530055344104767
1772094450929490400,1.290490478515625,0.07761052995920181,0.22164304554462433,0.015784187242388725
1772094450939440000,1.300440185546875,0.05694790929555893,0.14298760890960693,-0.22875145077705383
1772094450949389300,1.310389404296875,0.04171302914619446,-0.02822728268802166,-0.46442070603370667
1772094450959339300,1.32033935546875,0.0345044769346714,-0.27103787660598755,-0.6639552712440491
1772094450969288400,1.330288330078125,0.027713950723409653,-0.5217529535293579,-0.8382194638252258
1772094450979238100,1.340238037109375,0.019333666190505028,-0.6991834044456482,-0.9734215140342712
1772094450989188000,1.35018798828125,0.009066382423043251,-0.7790470719337463,-1.0732253789901733
1772094450999137300,1.36013720703125,-0.03381950780749321,-0.7606666684150696,-1.1695516109466553
1772094451009087200,1.370087158203125,-0.1050364300608635,-0.6540648341178894,-1.25626540184021
1772094451019036400,1.380036376953125,-0.17840975522994995,-0.5036531686782837,-1.32728111743927
1772094451028986000,1.389986083984375,-0.2543599009513855,-0.37623131275177,-1.3586872816085815
1772094451038935300,1.399935302734375,-0.31525081396102905,-0.29218438267707825,-1.3425896167755127
1772094451048885200,1.40988525390625,-0.3722666800022125,-0.2813431918621063,-1.282488465309143
1772094451058834400,1.41983447265625,-0.40609583258628845,-0.34193626046180725,-1.1745696067810059
1772094451068784000,1.4297841796875,-0.4170244038105011,-0.4055863320827484,-1.013608455657959
1772094451078733300,1.4397333984375,-0.3925214111804962,-0.4548090696334839,-0.8161380290985107
1772094451088683300,1.449683349609375,-0.321370005607605,-0.40544551610946655,-0.5978962182998657
1772094451098632400,1.459632568359375,-0.22101998329162598,-0.2777417004108429,-0.377902090549469
1772094451108582100,1.46958203125,-0.0933629646897316,-0.09221578389406204,-0.13626202940940857
1772094451118532000,1.479531982421875,0.02314477041363716,0.14300695061683655,0.10485901683568954
1772094451128481000,1.48948095703125,0.11402327567338943,0.3613435626029968,0.3237282633781433
1772094451138431000,1.499430908203125,0.17253340780735016,0.48601335287094116,0.501426100730896
1772094451148380200,1.509380126953125,0.17112059891223907,0.5249240398406982,0.640166163444519
1772094451158329900,1.519329833984375,0.11853037774562836,0.5457862615585327,0.7183905839920044
1772094451168279000,1.529279052734375,0.06356300413608551,0.5550263524055481,0.729565441608429
1772094451178229000,1.53922900390625,0.031031785532832146,0.500891387462616,0.6356267929077148
1772094451188178200,1.54917822265625,0.01120002381503582,0.34113821387290955,0.42896580696105957
1772094451198127900,1.5591279296875,0.007638151291757822,0.19012050330638885,0.18008771538734436
1772094451208077000,1.5690771484375,0.021285520866513252,0.17086637020111084,-0.010517923161387444
1772094451218027000,1.579027099609375,0.03158673271536827,0.3245515525341034,-0.10534520447254181
1772094451227976200,1.58897607421875,0.026066266000270844,0.617500364780426,-0.12943296134471893
1772094451237926000,1.59892578125,0.01913921721279621,0.9867008924484253,-0.1175115779042244
1772094451247875800,1.608875732421875,0.07098643481731415,1.333756923675537,-0.0973929911851883
1772094451257825000,1.618824951171875,0.15726885199546814,1.5660730600357056,-0.0809466764330864
1772094451267775000,1.62877490234375,0.22119776904582977,1.6703640222549438,-0.04830270633101463
1772094451277724000,1.638723876953125,0.2793315351009369,1.5896059274673462,0.016997067257761955
1772094451287673900,1.648673828125,0.33808833360671997,1.3407683372497559,0.11132516711950302
1772094451297623000,1.658623046875,0.3461371064186096,0.8962672352790833,0.24517777562141418
1772094451307573000,1.668572998046875,0.32489147782325745,0.3029426336288452,0.440912663936615
1772094451317522200,1.678522216796875,0.3092038631439209,-0.2001110166311264,0.7272167205810547
1772094451327471900,1.688471923828125,0.3037947118282318,-0.4587748050689697,1.0859661102294922
1772094451337421000,1.698421142578125,0.3321402072906494,-0.49092981219291687,1.425934076309204
1772094451347371000,1.70837109375,0.36169785261154175,-0.45009636878967285,1.6361172199249268
1772094451357321000,1.718321044921875,0.3750233054161072,-0.4954230487346649,1.6278374195098877
1772094451367270000,1.728269775390625,0.33006808161735535,-0.8271573185920715,1.3112767934799194
1772094451377220000,1.73822021484375,0.1767427921295166,-1.4168726205825806,0.7219391465187073
1772094451387169000,1.7481689453125,-0.0717993825674057,-2.0302929878234863,0.013213684782385826
1772094451397119000,1.758118896484375,-0.3226015567779541,-2.4894723892211914,-0.6145521998405457
1772094451407068000,1.76806787109375,-0.5636914372444153,-2.6755800247192383,-1.0383356809616089
1772094451417017900,1.778017822265625,-0.7730464339256287,-2.3863112926483154,-1.2003477811813354
1772094451426967000,1.787967041015625,-0.877258837223053,-1.6541539430618286,-1.1145548820495605
1772094451436917000,1.7979169921875,-0.8653231263160706,-0.7419201731681824,-0.8964552283287048
1772094451446866000,1.807865966796875,-0.7620614171028137,0.13441669940948486,-0.6596131324768066
1772094451456815900,1.81781591796875,-0.6196860074996948,0.7824792265892029,-0.4958864152431488
1772094451466766000,1.82776611328125,-0.5077748894691467,1.1348707675933838,-0.4223021864891052
1772094451476715000,1.837715087890625,-0.4356270730495453,1.2391269207000732,-0.43013226985931396
1772094451486665000,1.8476650390625,-0.4063333570957184,1.1087124347686768,-0.48602747917175293
1772094451496614000,1.85761376953125,-0.40557461977005005,0.8014686107635498,-0.5377007722854614
1772094451506564000,1.867564208984375,-0.3878222703933716,0.4158324897289276,-0.5471715331077576
1772094451516513000,1.877512939453125,-0.320333868265152,0.07915056496858597,-0.4906799793243408
1772094451526463000,1.887462890625,-0.20714789628982544,-0.12335353344678879,-0.36037391424179077
1772094451536412000,1.897411865234375,-0.08329161256551743,-0.18169048428535461,-0.15636147558689117
1772094451546361900,1.90736181640625,0.03724757954478264,-0.14643262326717377,0.07002639025449753
1772094451556311000,1.91731103515625,0.14463572204113007,-0.08313969522714615,0.2622738480567932
1772094451566261000,1.927260986328125,0.2438797503709793,-0.02815208025276661,0.41131365299224854
1772094451576211000,1.9372109375,0.3131507933139801,0.0056976755149662495,0.4951116144657135
1772094451586159900,1.947159912109375,0.33152899146080017,0.020771432667970657,0.5174936652183533
1772094451596110000,1.957110107421875,0.3147888779640198,0.018699001520872116,0.4894298315048218
1772094451606059000,1.96705908203125,0.2911461293697357,0.004561876878142357,0.4226670563220978
1772094451616009000,1.977009033203125,0.27682802081108093,0.017603516578674316,0.3411007225513458
1772094451625958000,1.9869580078125,0.28157350420951843,0.06340029835700989,0.2506464719772339
1772094451635908000,1.996908203125,0.2898194193840027,0.13003024458885193,0.18735943734645844
1772094451645857000,2.00685693359375,0.28267842531204224,0.21260793507099152,0.15565131604671478
1772094451655807000,2.016806884765625,0.2801389992237091,0.2863713204860687,0.14329200983047485
1772094451665756000,2.026755859375,0.2828200161457062,0.3360871970653534,0.14463265240192413
1772094451675706000,2.0367060546875,0.2876385748386383,0.37251555919647217,0.17507953941822052
1772094451685656000,2.046656005859375,0.2937047481536865,0.38844525814056396,0.2312418818473816
1772094451695605000,2.05660498046875,0.27566683292388916,0.3690650165081024,0.281435489654541
1772094451705555000,2.066554931640625,0.24585703015327454,0.3137040436267853,0.2774695158004761
1772094451715503900,2.07650390625,0.22045603394508362,0.21864095330238342,0.2056521475315094
1772094451725454000,2.0864541015625,0.18958494067192078,0.07864309102296829,0.06147445738315582
1772094451735403000,2.096403076171875,0.15109306573867798,-0.09902769327163696,-0.11038591712713242
1772094451745353000,2.10635302734375,0.11673162877559662,-0.2800145447254181,-0.2685561180114746
1772094451755302000,2.116302001953125,0.08127090334892273,-0.4382595121860504,-0.3755781948566437
1772094451765252000,2.126252197265625,0.03146020323038101,-0.5567646026611328,-0.436891108751297
1772094451775201000,2.136200927734375,-0.004812006372958422,-0.6158004999160767,-0.44075408577919006
1772094451785151000,2.14615087890625,-0.04319188743829727,-0.6405639052391052,-0.3925604522228241
1772094451795101000,2.156100830078125,-0.07768623530864716,-0.6061139106750488,-0.30939409136772156
1772094451805050000,2.166050048828125,-0.08291934430599213,-0.5215592980384827,-0.2172202318906784
1772094451815000000,2.176,-0.06801028549671173,-0.39586347341537476,-0.1315227895975113
1772094451824949000,2.185948974609375,-0.04984645918011665,-0.2522895336151123,-0.0659155547618866
1772094451834899000,2.19589892578125,-0.04056423157453537,-0.12255793809890747,-0.02587459608912468
1772094451844848000,2.20584814453125,-0.027843642979860306,-0.004994565155357122,0.00019801780581474304
1772094451854798000,2.215798095703125,-0.016646381467580795,0.08292250335216522,0.008444897830486298
1772094451864747000,2.2257470703125,-0.023326922208070755,0.14930976927280426,-0.005148142110556364
1772094451874697000,2.235697021484375,-0.0356781966984272,0.20338279008865356,-0.02770495042204857
1772094451884647200,2.245647216796875,-0.05109044536948204,0.2607603371143341,-0.050967663526535034
1772094451894596000,2.25559619140625,-0.06915899366140366,0.31293028593063354,-0.060814280062913895
1772094451904546000,2.265546142578125,-0.08859874308109283,0.3493921458721161,-0.04388696327805519
1772094451914495000,2.275494873046875,-0.09831734746694565,0.3790089786052704,0.001719780033454299
1772094451924445200,2.285445068359375,-0.09176596999168396,0.4241178631782532,0.06958591192960739
1772094451934394000,2.29539404296875,-0.07398250699043274,0.4596094787120819,0.13966450095176697
1772094451944344000,2.305343994140625,-0.044121548533439636,0.4814463257789612,0.19189228117465973
1772094451954293000,2.31529296875,-0.014974627643823624,0.49287399649620056,0.2353142648935318
1772094451964243000,2.325242919921875,0.016613392159342766,0.4916324317455292,0.25240057706832886
1772094451974192000,2.335192138671875,0.03870438039302826,0.471680611371994,0.24659936130046844
1772094451984142000,2.34514208984375,0.04329247400164604,0.4428825080394745,0.22023247182369232
1772094451994092000,2.355092041015625,0.04701337218284607,0.4121040403842926,0.17508408427238464
1772094452004041000,2.365041015625,0.04529909789562225,0.3662412166595459,0.1263229250907898
1772094452013991200,2.3749912109375,0.03805882856249809,0.295197457075119,0.07713977247476578
1772094452023940000,2.384940185546875,0.03237351402640343,0.2258484810590744,0.04133303835988045
1772094452033890000,2.39489013671875,0.038764968514442444,0.17169775068759918,0.027928218245506287
1772094452043839000,2.4048388671875,0.040400680154561996,0.13446490466594696,0.021981647238135338
1772094452053789200,2.4147890625,0.04512304067611694,0.12106995284557343,0.039033934473991394
1772094452063738000,2.424738037109375,0.05401773005723953,0.12053518742322922,0.08601368963718414
1772094452073688000,2.43468798828125,0.047470152378082275,0.14439372718334198,0.17437493801116943
1772094452083637000,2.444636962890625,0.011586451902985573,0.1753401905298233,0.2919580340385437
1772094452093587000,2.4545869140625,-0.03725072741508484,0.19659075140953064,0.4028930068016052
1772094452103537200,2.464537109375,-0.056117359548807144,0.19801899790763855,0.4864291846752167
1772094452113486000,2.474486083984375,-0.04924130067229271,0.1513417363166809,0.5180870294570923
1772094452123436000,2.48443603515625,-0.03788318485021591,0.09017771482467651,0.49115556478500366
1772094452133385000,2.494385009765625,-0.020744234323501587,0.08060161024332047,0.41807612776756287
1772094452143335200,2.504335205078125,-0.0070547861978411674,0.17291715741157532,0.2970874011516571
1772094452153284000,2.5142841796875,-0.007066130638122559,0.2776643633842468,0.12266824394464493
1772094452163234000,2.524234130859375,-0.006373975425958633,0.27735623717308044,-0.09668541699647903
1772094452173183000,2.534182861328125,-0.015172410756349564,0.09548551589250565,-0.3568386733531952
1772094452183133000,2.5441328125,-0.020719509571790695,-0.30599454045295715,-0.5915545225143433
1772094452193083100,2.554083251953125,-0.052141059190034866,-0.8632387518882751,-0.7143868207931519
1772094452203032000,2.564031982421875,-0.10890793800354004,-1.434373140335083,-0.6449989676475525
1772094452212982000,2.57398193359375,-0.1364917755126953,-1.7918769121170044,-0.36344510316848755
1772094452222931000,2.583930908203125,-0.12210671603679657,-1.755606770515442,0.07050234079360962
1772094452232881200,2.593881103515625,-0.062480516731739044,-1.3638466596603394,0.5195160508155823
1772094452242830000,2.603830078125,0.007984859868884087,-0.7601643204689026,0.8521744012832642
1772094452252780000,2.613780029296875,0.04759989306330681,-0.23512808978557587,0.954093873500824
1772094452262729000,2.62372900390625,0.01157078705728054,-0.011442258954048157,0.8134816288948059
1772094452272679200,2.63367919921875,-0.04949481040239334,-0.03653645142912865,0.5207105278968811
1772094452282629000,2.643629150390625,-0.11225192993879318,-0.16597114503383636,0.18283849954605103
1772094452292578000,2.653578125,-0.17162810266017914,-0.28499358892440796,-0.11494980752468109
1772094452302528000,2.663528076171875,-0.22565405070781708,-0.3931909203529358,-0.34101277589797974
1772094452312477200,2.673477294921875,-0.28644001483917236,-0.5583884119987488,-0.5067680478096008
1772094452322427100,2.68342724609375,-0.37194401025772095,-0.8033134341239929,-0.6494458317756653
1772094452332376000,2.6933759765625,-0.5236334800720215,-1.0179961919784546,-0.8240844011306763
1772094452342326000,2.703325927734375,-0.7081559300422668,-1.1233627796173096,-1.0414632558822632
1772094452352275000,2.71327490234375,-0.8568065762519836,-1.1142113208770752,-1.2892770767211914
1772094452362225200,2.72322509765625,-0.9173889756202698,-1.0034013986587524,-1.531269907951355
1772094452372175000,2.733175048828125,-0.8442638516426086,-0.8020290732383728,-1.679960012435913
1772094452382124000,2.7431240234375,-0.6631249189376831,-0.5004245042800903,-1.6617929935455322
1772094452392074000,2.753073974609375,-0.42645931243896484,-0.1667598932981491,-1.4654005765914917
1772094452402023200,2.763023193359375,-0.25984182953834534,0.11841271817684174,-1.1772404909133911
1772094452411973000,2.77297314453125,-0.14931698143482208,0.23400485515594482,-0.8868780136108398
1772094452421922000,2.782922119140625,-0.07639617472887039,0.3073999881744385,-0.5668355226516724
1772094452431872000,2.7928720703125,-0.035511039197444916,0.3613264560699463,-0.25753214955329895
1772094452441821200,2.8028212890625,0.056430600583553314,0.3859899938106537,0.05920025333762169
1772094452451771100,2.812771240234375,0.1556975245475769,0.41528475284576416,0.38532963395118713
1772094452461720000,2.822719970703125,0.2190575897693634,0.4684257507324219,0.7356756925582886
1772094452471670000,2.832669921875,0.22494901716709137,0.5414894819259644,1.1064479351043701
1772094452481620000,2.842619873046875,0.20702435076236725,0.629231870174408,1.4619683027267456
1772094452491569200,2.852569091796875,0.1884397566318512,0.7283031344413757,1.7749927043914795
1772094452501518800,2.862518798828125,0.18917186558246613,0.8403100967407227,1.982533574104309
1772094452511468000,2.872468017578125,0.18446902930736542,0.9210613369941711,2.0144073963165283
1772094452521418000,2.88241796875,0.20366030931472778,0.8259175419807434,1.8176051378250122
1772094452531367200,2.8923671875,0.2864210903644562,0.720213770866394,1.5142769813537598
1772094452541316900,2.90231689453125,0.35495567321777344,0.782089114189148,1.168904423713684
1772094452551266800,2.912266845703125,0.3919646441936493,0.9174050688743591,0.8396480083465576
1772094452561216000,2.922216064453125,0.39376121759414673,1.0279603004455566,0.534254789352417
1772094452571166000,2.932166015625,0.37373536825180054,1.0738191604614258,0.282888263463974
1772094452581115000,2.942114990234375,0.3207826614379883,1.0359396934509277,0.08381538093090057
1772094452591064800,2.95206494140625,0.22536742687225342,0.9520525932312012,-0.0744016170501709
1772094452601014000,2.962013916015625,0.09585283696651459,0.8087303638458252,-0.20779083669185638
1772094452610964000,2.9719638671875,-0.022318407893180847,0.6072061061859131,-0.3161989748477936
1772094452620913200,2.9819130859375,-0.0989609882235527,0.353238046169281,-0.41232073307037354
1772094452630862800,2.99186279296875,-0.163826584815979,0.06761352717876434,-0.5151000618934631
1772094452640812000,3.00181201171875,-0.23230044543743134,-0.23110739886760712,-0.6458277106285095
1772094452650762000,3.011761962890625,-0.2894974946975708,-0.5768191814422607,-0.7786256670951843
1772094452660712000,3.0217119140625,-0.32938098907470703,-0.9853656888008118,-0.8496040105819702
1772094452670660900,3.031660888671875,-0.3258444368839264,-1.2746888399124146,-0.7837316989898682
1772094452680610800,3.04161083984375,-0.26257839798927307,-1.331748127937317,-0.5676092505455017
1772094452690560000,3.05156005859375,-0.18658645451068878,-1.2829447984695435,-0.30032992362976074
1772094452700510000,3.061510009765625,-0.1781386435031891,-1.322800636291504,-0.11231794208288193
1772094452710459000,3.071458984375,-0.26156488060951233,-1.4909348487854004,-0.08127659559249878
1772094452720408800,3.081408935546875,-0.3821541368961334,-1.6156508922576904,-0.1668599396944046
1772094452730357800,3.091357666015625,-0.5030567049980164,-1.5201092958450317,-0.28907138109207153
1772094452740308000,3.101307861328125,-0.6155071258544922,-1.1066529750823975,-0.4008048474788666
1772094452750258000,3.1112578125,-0.7037702798843384,-0.4504283666610718,-0.5019557476043701
1772094452760206800,3.121206787109375,-0.7599411606788635,0.26941314339637756,-0.6244403719902039
1772094452770157000,3.131156982421875,-0.7891327738761902,0.9456437230110168,-0.7682245373725891
1772094452780106000,3.14110595703125,-0.7866938710212708,1.488080620765686,-0.9215866327285767
1772094452790056000,3.151055908203125,-0.7733282446861267,1.8252928256988525,-1.0751038789749146
1772094452800004900,3.1610048828125,-0.7395788431167603,1.9195269346237183,-1.1945985555648804
1772094452809954800,3.170954833984375,-0.6707471013069153,1.798601508140564,-1.2398618459701538
1772094452819905000,3.180905029296875,-0.5549858808517456,1.5251067876815796,-1.1934634447097778
1772094452829854000,3.19085400390625,-0.42557838559150696,1.1793566942214966,-1.0704048871994019
1772094452839804000,3.200803955078125,-0.30773216485977173,0.819124162197113,-0.8987889885902405
1772094452849752800,3.2107529296875,-0.20128239691257477,0.49684348702430725,-0.7176096439361572
1772094452859703000,3.220703125,-0.08911482989788055,0.2179279625415802,-0.538087010383606
1772094452869652000,3.23065185546875,0.03340364620089531,0.006848065182566643,-0.35674625635147095
1772094452879602000,3.240601806640625,0.16134697198867798,-0.11820332705974579,-0.17130422592163086
1772094452889550800,3.25055078125,0.2705370783805847,-0.15754152834415436,0.03259720653295517
1772094452899501000,3.2605009765625,0.3439404368400574,-0.12187620997428894,0.2241530567407608
1772094452909451000,3.270450927734375,0.39437204599380493,-0.0657961368560791,0.37660855054855347
1772094452919400000,3.28039990234375,0.4259406328201294,-0.03171699494123459,0.4617239832878113
1772094452929350000,3.290349853515625,0.45807933807373047,0.0022929487749934196,0.4743507504463196
1772094452939299000,3.300299072265625,0.4932871162891388,0.044538140296936035,0.451492041349411
1772094452949249000,3.3102490234375,0.5244438052177429,0.08675713837146759,0.42983362078666687
1772094452959198000,3.320197998046875,0.5361238718032837,0.132884681224823,0.4279893934726715
1772094452969148000,3.33014794921875,0.532653272151947,0.20794758200645447,0.4321845471858978
1772094452979096800,3.340096923828125,0.5346969962120056,0.2892293930053711,0.4423820674419403
1772094452989047000,3.350047119140625,0.5523651242256165,0.37765371799468994,0.4669111371040344
1772094452998997000,3.3599970703125,0.5686295628547668,0.45966604351997375,0.4856936037540436
1772094453008946000,3.36994580078125,0.5738211274147034,0.5169631838798523,0.4870309829711914
1772094453018896100,3.379896240234375,0.569361686706543,0.5000414848327637,0.4771682322025299
1772094453028845000,3.389844970703125,0.5364723801612854,0.36232423782348633,0.47226810455322266
1772094453038795000,3.399794921875,0.4738348722457886,0.155044823884964,0.46689465641975403
1772094453048744000,3.409743896484375,0.3921138048171997,-0.05978615581989288,0.46797242760658264
1772094453058694000,3.41969384765625,0.2873589098453522,-0.25322937965393066,0.4313318729400635
1772094453068643000,3.42964306640625,0.18641886115074158,-0.43597301840782166,0.3491262197494507
1772094453078593000,3.439593017578125,0.08232789486646652,-0.5735146403312683,0.24495959281921387
1772094453088543000,3.44954296875,0.008981261402368546,-0.6589189171791077,0.16137045621871948
1772094453098492000,3.459491943359375,-0.030909163877367973,-0.7145051956176758,0.14482584595680237
1772094453108442000,3.469442138671875,-0.05926961079239845,-0.7354020476341248,0.2036176472902298
1772094453118391000,3.47939111328125,-0.10120055079460144,-0.7119914889335632,0.31174013018608093
1772094453128341000,3.489341064453125,-0.1840302050113678,-0.6382441520690918,0.42561355233192444
1772094453138290000,3.4992900390625,-0.29707103967666626,-0.48477688431739807,0.4774453043937683
1772094453148240000,3.509239990234375,-0.4129936099052429,-0.2962503433227539,0.42067310214042664
1772094453158188800,3.519188720703125,-0.5132142305374146,-0.1505727767944336,0.2633894681930542
1772094453168139000,3.529138916015625,-0.5710843801498413,-0.08188889175653458,0.05606664717197418
1772094453178089000,3.5390888671875,-0.5877043604850769,-0.0918097048997879,-0.1538413017988205
1772094453188038000,3.549037841796875,-0.5674225091934204,-0.17660582065582275,-0.3333998918533325
1772094453197987800,3.55898779296875,-0.5388723611831665,-0.2886330187320709,-0.48704537749290466
1772094453207936800,3.568936767578125,-0.5244781970977783,-0.3753420114517212,-0.6147907376289368
1772094453217887000,3.578886962890625,-0.5214861035346985,-0.39984947443008423,-0.7180657386779785
1772094453227836000,3.5888359375,-0.5187785625457764,-0.3201882541179657,-0.766315758228302
1772094453237785900,3.598785888671875,-0.5107752084732056,-0.13324740529060364,-0.7576695680618286
1772094453247734800,3.60873486328125,-0.47722744941711426,0.10985773056745529,-0.6809998154640198
1772094453257685000,3.61868505859375,-0.4042145013809204,0.36618566513061523,-0.553673267364502
1772094453267635000,3.628635009765625,-0.2986256778240204,0.5633015632629395,-0.39316827058792114
1772094453277584000,3.638583984375,-0.18611910939216614,0.6967530846595764,-0.2414676994085312
1772094453287533800,3.648533935546875,-0.0838119238615036,0.743355393409729,-0.12385335564613342
1772094453297483000,3.65848291015625,-0.0013564638793468475,0.7067036628723145,-0.050988469272851944
1772094453307433000,3.668432861328125,0.05504777655005455,0.5908712148666382,-0.010263676755130291
1772094453317382000,3.6783818359375,0.10053829848766327,0.417207270860672,0.026792079210281372
1772094453327331800,3.688331787109375,0.13497000932693481,0.2214680165052414,0.09655354917049408
1772094453337281000,3.698281005859375,0.1505092829465866,0.01921718195080757,0.1816873550415039
1772094453347231000,3.70823095703125,0.13916842639446259,-0.18978562951087952,0.23838715255260468
1772094453357181000,3.718180908203125,0.12122191488742828,-0.3561490476131439,0.2522592842578888
1772094453367129900,3.7281298828125,0.12408877909183502,-0.425896018743515,0.22313585877418518
1772094453377080000,3.738080078125,0.15213905274868011,-0.41296902298927307,0.19333669543266296
1772094453387029000,3.748029052734375,0.18526296317577362,-0.34295138716697693,0.20639050006866455
1772094453396979000,3.75797900390625,0.20674429833889008,-0.20905083417892456,0.2934308648109436
1772094453406928000,3.767927978515625,0.2301446497440338,-0.0009548412635922432,0.40106457471847534
1772094453416878000,3.777878173828125,0.24772949516773224,0.23972435295581818,0.4479069113731384
1772094453426827000,3.787826904296875,0.2789183259010315,0.4823395907878876,0.4266938269138336
1772094453436777000,3.79777685546875,0.3377473056316376,0.7318117022514343,0.35634350776672363
1772094453446727000,3.807726806640625,0.39986059069633484,0.8952794075012207,0.26247841119766235
1772094453456675800,3.81767578125,0.4358430802822113,0.9362172484397888,0.21182668209075928
1772094453466626000,3.8276259765625,0.45428287982940674,0.8845129609107971,0.27202239632606506
1772094453476575000,3.837574951171875,0.4764094948768616,0.7941191792488098,0.4134788513183594
1772094453486525000,3.84752490234375,0.4859829843044281,0.709781289100647,0.5482656955718994
1772094453496473900,3.857473876953125,0.48252779245376587,0.6594459414482117,0.5986266136169434
1772094453506424000,3.867424072265625,0.48166796565055847,0.5818960666656494,0.5355217456817627
1772094453516373000,3.877373046875,0.48050254583358765,0.4333372116088867,0.44534334540367126
1772094453526323000,3.887322998046875,0.5066242814064026,0.2261393517255783,0.4324742555618286
1772094453536272600,3.897272705078125,0.5399662256240845,-0.10365106910467148,0.5216765999794006
1772094453546222000,3.90722216796875,0.5907423496246338,-0.5382434129714966,0.7164052128791809
1772094453556171800,3.917171875,0.6820815801620483,-1.0019716024398804,1.0354362726211548
1772094453566121000,3.927120849609375,0.7104734182357788,-1.3066612482070923,1.3982974290847778
1772094453576071000,3.93707080078125,0.7212427258491516,-1.2556291818618774,1.6720200777053833
1772094453586019800,3.947019775390625,0.7950068712234497,-0.9558114409446716,1.7646138668060303
1772094453595969800,3.9569697265625,0.9408865571022034,-0.5839985013008118,1.7195273637771606
1772094453605919000,3.9669189453125,1.0827456712722778,-0.22196710109710693,1.586330533027649
1772094453615869000,3.976868896484375,1.1591517925262451,-0.1403699815273285,1.3383092880249023
1772094453625819000,3.98681884765625,1.1718090772628784,-0.3659937083721161,1.0346275568008423
1772094453635768000,3.99676806640625,1.0936028957366943,-0.7644563913345337,0.6824284791946411
1772094453645717800,4.0067177734375,0.9423548579216003,-1.205232858657837,0.2888464331626892
1772094453655667000,4.0166669921875,0.7588582634925842,-1.5348056554794312,-0.05949344113469124
1772094453665617000,4.026616943359375,0.5704933404922485,-1.648218035697937,-0.34609466791152954
1772094453675566000,4.036566162109375,0.41570353507995605,-1.5833194255828857,-0.6442304849624634
1772094453685515800,4.046515869140625,0.310889333486557,-1.3916893005371094,-0.9924176335334778
1772094453695465000,4.05646484375,0.2713296711444855,-1.0966843366622925,-1.3336551189422607
1772094453705414700,4.06641455078125,0.2877081036567688,-0.6811825633049011,-1.6036828756332397
1772094453715364900,4.07636474609375,0.3498649597167969,-0.16042748093605042,-1.7522084712982178
1772094453725313800,4.086313720703125,0.41787829995155334,0.20686496794223785,-1.763482928276062
1772094453735263700,4.096263671875,0.4348924458026886,0.3509574234485626,-1.6548413038253784
1772094453745212700,4.106212646484375,0.3846834599971771,0.46892398595809937,-1.4879523515701294
1772094453755163000,4.116162841796875,0.2835749685764313,0.5405718088150024,-1.277652382850647
1772094453765111800,4.12611181640625,0.1525074541568756,0.5691552758216858,-1.0469087362289429
1772094453775061800,4.136061767578125,-0.0022437877487391233,0.5870842337608337,-0.8262386918067932
1772094453785010700,4.1460107421875,-0.16095846891403198,0.6293250322341919,-0.6021850109100342
1772094453794961000,4.1559609375,-0.29265737533569336,0.6868242621421814,-0.3968023359775543
1772094453804910800,4.165910888671875,-0.3765217065811157,0.7969404458999634,-0.2821351885795593
1772094453814859800,4.17585986328125,-0.3839748203754425,0.9282377362251282,-0.2817498445510864
1772094453824809700,4.185809814453125,-0.33312809467315674,1.0285388231277466,-0.33878764510154724
1772094453834758700,4.195758544921875,-0.24134224653244019,1.0762226581573486,-0.421967476606369
1772094453844708900,4.205708984375,-0.14908866584300995,1.019059181213379,-0.5532621145248413
1772094453854657800,4.21565771484375,-0.09406962990760803,0.8494165539741516,-0.7268224358558655
1772094453864607700,4.225607666015625,-0.08357692509889603,0.6868263483047485,-0.9118828177452087
1772094453874556700,4.235556640625,-0.12825091183185577,0.6320397853851318,-1.0667948722839355
1772094453884507000,4.2455068359375,-0.2207196205854416,0.60434889793396,-1.158658504486084
1772094453894456800,4.255456787109375,-0.3187841475009918,0.49192917346954346,-1.182107925415039
1772094453904405800,4.26540576171875,-0.4052535593509674,0.3931661546230316,-1.1299796104431152
1772094453914355700,4.275355712890625,-0.4416999816894531,0.40891289710998535,-0.9858810901641846
1772094453924305000,4.285304931640625,-0.432943731546402,0.5447468757629395,-0.8055665493011475
1772094453934254800,4.2952548828125,-0.36652663350105286,0.7567682862281799,-0.6604413390159607
1772094453944203800,4.305203857421875,-0.24534645676612854,0.9734926819801331,-0.539033830165863
1772094453954153700,4.31515380859375,-0.11783243715763092,1.1796537637710571,-0.38508662581443787
1772094453964104000,4.32510400390625,-0.053433846682310104,1.3037104606628418,-0.23001624643802643
1772094453974052900,4.335052978515625,-0.04890620708465576,1.314768671989441,-0.09651650488376617
1772094453984002800,4.3450029296875,-0.08745793253183365,1.2315363883972168,0.003211052156984806
1772094453993951700,4.35495166015625,-0.17337924242019653,1.0562348365783691,0.08782180398702621
1772094454003902000,4.36490185546875,-0.31220757961273193,0.7655965685844421,0.1328848898410797
1772094454013851000,4.374850830078125,-0.42700472474098206,0.42158085107803345,0.17593088746070862
1772094454023800800,4.38480078125,-0.44279810786247253,0.1739528477191925,0.2989967465400696
1772094454033749800,4.394749755859375,-0.4085597097873688,0.03956306725740433,0.46267515420913696
1772094454043700000,4.404699951171875,-0.34119680523872375,-0.06263773143291473,0.5792728066444397
1772094454053649000,4.41464892578125,-0.2970690131187439,-0.14941683411598206,0.5639931559562683
1772094454063598800,4.424598876953125,-0.3155631124973297,-0.2897169291973114,0.3802066147327423
1772094454073548800,4.434548828125,-0.4123178720474243,-0.5449116230010986,0.04335431382060051
1772094454083497700,4.444497802734375,-0.550507664680481,-0.8983687162399292,-0.3703537881374359
1772094454093448000,4.454447998046875,-0.7040106654167175,-1.3114495277404785,-0.7658058404922485
1772094454103396900,4.46439697265625,-0.8306183815002441,-1.6600804328918457,-1.0721673965454102
1772094454113346800,4.474346923828125,-0.8770471215248108,-1.8731871843338013,-1.2222977876663208
1772094454123299000,4.484299072265625,-0.7914528846740723,-1.811215877532959,-1.150465965270996
1772094454133249300,4.494249267578125,-0.6064039468765259,-1.4661128520965576,-0.932365357875824
1772094454143198200,4.5041982421875,-0.4750845730304718,-0.9814635515213013,-0.6496425867080688
1772094454153148200,4.514148193359375,-0.3862993121147156,-0.41370585560798645,-0.3888813555240631
1772094454163098000,4.52409814453125,-0.27778810262680054,0.1065661683678627,-0.22656622529029846
1772094454173047000,4.534047119140625,-0.1654815375804901,0.5014429092407227,-0.17220871150493622
1772094454182997200,4.543997314453125,-0.1141558289527893,0.7252503633499146,-0.1775740087032318
1772094454192946200,4.5539462890625,-0.1306874006986618,0.7801597118377686,-0.17630793154239655
1772094454202896100,4.563896240234375,-0.16015587747097015,0.6787318587303162,-0.15755698084831238
1772094454212845000,4.573844970703125,-0.1733105629682541,0.4727514684200287,-0.1376759558916092
1772094454222795300,4.583795166015625,-0.13919779658317566,0.2590845227241516,-0.09164178371429443
1772094454232744200,4.593744140625,-0.06487057358026505,0.12202709168195724,-0.016124926507472992
1772094454242694100,4.603694091796875,0.028080053627490997,0.03743613138794899,0.05847886949777603
1772094454252644000,4.61364404296875,0.09953133761882782,-0.07355988770723343,0.10114163905382156
1772094454262593300,4.62359326171875,0.1460692584514618,-0.19825106859207153,0.10221739858388901
1772094454272543200,4.633543212890625,0.1403389275074005,-0.2752571702003479,0.0844423919916153
1772094454282492200,4.6434921875,0.0981311947107315,-0.22706957161426544,0.062068644911050797
1772094454292442000,4.653442138671875,0.04351562261581421,-0.0835675448179245,0.04703349992632866
1772094454302391000,4.66339111328125,-0.018318915739655495,0.06964658200740814,0.015568217262625694
1772094454312341200,4.67334130859375,-0.05395840108394623,0.16951884329319,-0.028785131871700287
1772094454322290200,4.683290283203125,-0.0535774827003479,0.1936081051826477,-0.060984477400779724
1772094454332240100,4.693240234375,-0.01193629764020443,0.20617662370204926,-0.05244851112365723
1772094454342190300,4.7031904296875,0.060043174773454666,0.22404448688030243,-0.002968311309814453
1772094454352139300,4.71313916015625,0.14014147222042084,0.2655935287475586,0.09816443175077438
1772094454362089200,4.723089111328125,0.2192329615354538,0.3380790650844574,0.23356226086616516
1772094454372038100,4.7330380859375,0.29953765869140625,0.4487169086933136,0.37292495369911194
1772094454381988000,4.742988037109375,0.3742870092391968,0.5382282137870789,0.49212849140167236
1772094454391937300,4.752937255859375,0.4154168665409088,0.5944976210594177,0.5835273265838623
1772094454401887200,4.76288720703125,0.4016283452510834,0.6063635349273682,0.6486390829086304
1772094454411836200,4.772836181640625,0.32986918091773987,0.5547738075256348,0.6734054088592529
1772094454421786000,4.7827861328125,0.23078553378582,0.4273276627063751,0.6437264680862427
1772094454431736300,4.792736328125,0.12113361805677414,0.20277738571166992,0.5531840324401855
1772094454441685200,4.802685302734375,0.020199868828058243,-0.07389356940984726,0.42791181802749634
1772094454451635200,4.81263525390625,-0.049102772027254105,-0.3478316366672516,0.29139789938926697
1772094454461584100,4.822584228515625,-0.09245748072862625,-0.5507506132125854,0.17784477770328522
1772094454471534300,4.832534423828125,-0.1112641915678978,-0.639620840549469,0.11072512716054916
1772094454481483300,4.842483154296875,-0.11942955106496811,-0.6255511045455933,0.09347619861364365
1772094454491433200,4.85243310546875,-0.11932782083749771,-0.5107776522636414,0.1119508147239685
1772094454501382100,4.862382080078125,-0.12613506615161896,-0.331121563911438,0.12452542781829834
1772094454511332400,4.872332275390625,-0.1429547816514969,-0.1760624647140503,0.10367234796285629
1772094454521282300,4.8822822265625,-0.18990083038806915,-0.06824386864900589,0.06644424796104431
1772094454531231200,4.892231201171875,-0.24844269454479218,0.0013189655728638172,0.011122938245534897
1772094454541181200,4.90218115234375,-0.31070002913475037,0.059360358864068985,-0.04610263183712959
1772094454551130000,4.912130126953125,-0.345511257648468,0.10055413097143173,-0.09466137737035751
1772094454561080300,4.922080322265625,-0.32643505930900574,0.12783560156822205,-0.11117850244045258
1772094454571029200,4.932029296875,-0.2673379182815552,0.1353933960199356,-0.09556492418050766
1772094454580979200,4.941979248046875,-0.17843899130821228,0.1282930225133896,-0.051942378282547
1772094454590928100,4.95192822265625,-0.06387512385845184,0.11949234455823898,0.021466590464115143
1772094454600878300,4.96187841796875,0.02721913903951645,0.13450774550437927,0.11175660043954849
1772094454610827300,4.9718271484375,0.09577876329421997,0.16365337371826172,0.18814536929130554
1772094454620777200,4.981777099609375,0.12765373289585114,0.18848641216754913,0.23425889015197754
1772094454630727200,4.99172705078125,0.14855581521987915,0.18008041381835938,0.2407071888446808
1772094454640676400,5.00167626953125,0.15250371396541595,0.1357591301202774,0.21356095373630524
1772094454650626300,5.011626220703125,0.14576804637908936,0.09133361279964447,0.1662006378173828
1772094454660575200,5.0215751953125,0.1399562805891037,0.08802592009305954,0.11803796887397766
1772094454670525200,5.031525146484375,0.14061515033245087,0.10716898739337921,0.06735295802354813
1772094454680474400,5.041474365234375,0.14783021807670593,0.10345330089330673,0.01873541995882988
1772094454690424300,5.05142431640625,0.15797953307628632,0.0575270839035511,-0.0064114793203771114
1772094454700373200,5.061373291015625,0.16631148755550385,-0.020047971978783607,-0.005181135144084692
1772094454710323200,5.0713232421875,0.15826979279518127,-0.09098578989505768,0.016324955970048904
1772094454720273200,5.081273193359375,0.1442088931798935,-0.1314772367477417,0.042251065373420715
1772094454730222300,5.091222412109375,0.10485563427209854,-0.1349494755268097,0.07184011489152908
1772094454740172000,5.101172119140625,0.06315211206674576,-0.11273214966058731,0.08813023567199707
1772094454750121200,5.111121337890625,0.03242828696966171,-0.09875987470149994,0.09888434410095215
1772094454760071200,5.1210712890625,0.020136289298534393,-0.09792958945035934,0.10272262990474701
1772094454770020400,5.131020263671875,0.04503258317708969,-0.05434029921889305,0.1013399139046669
1772094454779970000,5.140969970703125,0.11115492135286331,0.07954475283622742,0.09541032463312149
1772094454789919200,5.150919189453125,0.21939830482006073,0.36497703194618225,0.07949979603290558
1772094454799869200,5.160869140625,0.3580646514892578,0.7370063066482544,0.06598382443189621
1772094454809819100,5.170819091796875,0.4418756663799286,1.0106914043426514,0.055547162890434265
1772094454819768000,5.18076806640625,0.4631806015968323,1.0569682121276855,0.05396411567926407
1772094454829718000,5.190718017578125,0.4501657485961914,0.8298696875572205,0.08083221316337585
1772094454839667200,5.200667236328125,0.400410532951355,0.47314736247062683,0.17034794390201569
1772094454849617200,5.2106171875,0.3409557342529297,0.05179425701498985,0.34016335010528564
1772094454859566300,5.22056640625,0.32568857073783875,-0.3261801600456238,0.5820813775062561
1772094454869516000,5.23051611328125,0.3392874598503113,-0.5690191388130188,0.8340837955474854
1772094454879465200,5.24046533203125,0.3744903802871704,-0.6598927974700928,1.0492212772369385
1772094454889415200,5.250415283203125,0.428169310092926,-0.6962124705314636,1.16202974319458
1772094454899365000,5.260365234375,0.4560503661632538,-0.803068995475769,1.1461801528930664
1772094454909314000,5.27031396484375,0.4204699993133545,-0.9672150611877441,1.038075566291809
1772094454919264000,5.280263916015625,0.33154839277267456,-1.0801178216934204,0.8838344216346741
1772094454929213000,5.290212890625,0.27437299489974976,-1.0802578926086426,0.7359234690666199
1772094454939163100,5.3001630859375,0.27608758211135864,-1.0310786962509155,0.5955203771591187
1772094454949112000,5.310112060546875,0.3002432584762573,-1.0289982557296753,0.4710540771484375
1772094454959062000,5.32006201171875,0.30448997020721436,-1.1260735988616943,0.3271813988685608
1772094454969011000,5.330010986328125,0.2654048800468445,-1.2534332275390625,0.14160513877868652
1772094454978961200,5.339961181640625,0.179438978433609,-1.3339316844940186,-0.093670554459095
1772094454988910000,5.34991015625,0.05355960503220558,-1.3231894969940186,-0.381997674703598
1772094454998860000,5.359860107421875,-0.13761687278747559,-1.249220371246338,-0.6645047068595886
1772094455008810200,5.369810302734375,-0.34124109148979187,-1.1353508234024048,-0.8513515591621399
1772094455018759200,5.37975927734375,-0.5253246426582336,-1.0422265529632568,-0.9495958685874939
1772094455028709000,5.389709228515625,-0.7009885907173157,-0.9931482672691345,-1.008160948753357
1772094455038658000,5.399657958984375,-0.8460997343063354,-0.9934037923812866,-1.0598300695419312
1772094455048608000,5.40960791015625,-0.9126806259155273,-1.0058397054672241,-1.0807534456253052
1772094455058557200,5.41955712890625,-0.8968668580055237,-1.0182991027832031,-1.0387086868286133
1772094455068507100,5.429507080078125,-0.799710750579834,-1.0071200132369995,-0.9180933833122253
1772094455078456000,5.4394560546875,-0.650312602519989,-0.9621541500091553,-0.7102213501930237
1772094455088406000,5.449406005859375,-0.4926025867462158,-0.8493242859840393,-0.45991241931915283
1772094455098356200,5.459356201171875,-0.3435983955860138,-0.6694178581237793,-0.2375989556312561
1772094455108305200,5.46930517578125,-0.24687612056732178,-0.4317411184310913,-0.10217136144638062
1772094455118255000,5.479255126953125,-0.23169450461864471,-0.17241524159908295,-0.09377001971006393
1772094455128201500,5.489201416015625,-0.24076683819293976,0.0329245887696743,-0.22282227873802185
1772094455138151400,5.4991513671875,-0.2438649982213974,0.2999328076839447,-0.4288605749607086
1772094455148100400,5.509100341796875,-0.2380521148443222,0.6937634944915771,-0.6362451314926147
1772094455158050300,5.51905029296875,-0.2148231863975525,1.1429166793823242,-0.8019856214523315
1772094455167999200,5.528999267578125,-0.20109513401985168,1.5083458423614502,-0.9466099143028259
1772094455177949400,5.538949462890625,-0.18952208757400513,1.7457534074783325,-1.0607753992080688
1772094455187898400,5.5488984375,-0.16565988957881927,1.845693588256836,-1.071364402770996
1772094455197848300,5.558848388671875,-0.09047311544418335,1.8437528610229492,-0.9570697546005249
1772094455207798500,5.568798583984375,0.0244609285145998,1.7685692310333252,-0.7077962756156921
1772094455217747500,5.57874755859375,0.11253529787063599,1.6871483325958252,-0.38820138573646545
1772094455227697400,5.588697509765625,0.19591009616851807,1.5258859395980835,-0.03965591639280319
1772094455237646300,5.598646240234375,0.2845459580421448,1.3687392473220825,0.28619369864463806
1772094455247596300,5.60859619140625,0.3730846047401428,1.156069278717041,0.5639885067939758
1772094455257545500,5.61854541015625,0.45847949385643005,0.8579691052436829,0.803235650062561
1772094455267495400,5.628495361328125,0.5278487205505371,0.5114444494247437,0.9673827886581421
1772094455277444400,5.6384443359375,0.5176616907119751,0.17031113803386688,1.0372636318206787
1772094455287394300,5.648394287109375,0.4363114535808563,-0.0900016725063324,0.9811393022537231
1772094455297343200,5.65834326171875,0.35451361536979675,-0.2526491582393646,0.8060872554779053
1772094455307293400,5.66829345703125,0.3340570628643036,-0.3517262041568756,0.5844691395759583
1772094455317243400,5.678243408203125,0.36111196875572205,-0.3956070840358734,0.4083845317363739
1772094455327192300,5.6881923828125,0.37449994683265686,-0.42700496315956116,0.35535648465156555
1772094455337142500,5.698142578125,0.36180421710014343,-0.48534026741981506,0.41950297355651855
1772094455347091500,5.708091552734375,0.32148101925849915,-0.5749524235725403,0.5295066833496094
1772094455357041400,5.71804150390625,0.26585716009140015,-0.6794745326042175,0.6579695343971252
1772094455366990300,5.727990234375,0.1784772425889969,-0.7232428193092346,0.831633985042572
1772094455376940500,5.7379404296875,0.027466658502817154,-0.6250044703483582,1.0266404151916504
1772094455386889500,5.747889404296875,-0.14177696406841278,-0.3997836112976074,1.1946077346801758
1772094455396839400,5.75783935546875,-0.27631449699401855,-0.15504831075668335,1.2410222291946411
1772094455406789400,5.767789306640625,-0.41693633794784546,-0.1529068648815155,1.104892373085022
1772094455416738300,5.77773828125,-0.5916600823402405,-0.446724534034729,0.7629944682121277
1772094455426688500,5.7876884765625,-0.8519558310508728,-0.9313780665397644,0.2186984419822693
1772094455436637400,5.797637451171875,-1.1968157291412354,-1.4943053722381592,-0.5185064077377319
1772094455446587400,5.80758740234375,-1.491515040397644,-1.959276556968689,-1.3163000345230103
1772094455456536300,5.817536376953125,-1.6431621313095093,-1.9992154836654663,-1.916722059249878
1772094455466486500,5.827486572265625,-1.5870381593704224,-1.4840081930160522,-2.1327152252197266
1772094455476435500,5.837435546875,-1.3444759845733643,-0.5344067215919495,-1.9858556985855103
1772094455486385400,5.847385498046875,-1.02968430519104,0.480368971824646,-1.5956096649169922
1772094455496334300,5.857334228515625,-0.7824234962463379,1.2591191530227661,-1.1166901588439941
1772094455506284500,5.867284423828125,-0.6359219551086426,1.6940804719924927,-0.7259166836738586
1772094455516234500,5.877234375,-0.5409260988235474,1.7405117750167847,-0.5310595631599426
1772094455526183400,5.887183349609375,-0.509118378162384,1.4665963649749756,-0.5335954427719116
1772094455536133400,5.89713330078125,-0.5174332857131958,1.0699536800384521,-0.614859938621521
1772094455546082300,5.907082275390625,-0.518841028213501,0.6942517757415771,-0.6597467064857483
1772094455556032500,5.917032470703125,-0.483756959438324,0.4512743055820465,-0.6633697748184204
1772094455565981400,5.9269814453125,-0.3567633330821991,0.41547396779060364,-0.6283977031707764
1772094455575931400,5.936931396484375,-0.18668003380298615,0.5520405769348145,-0.551025390625
1772094455585880300,5.94688037109375,-0.016485661268234253,0.7223712801933289,-0.4634672999382019
1772094455595830500,5.95683056640625,0.1278020590543747,0.8049730658531189,-0.3532581627368927
1772094455605779500,5.966779541015625,0.2569217085838318,0.7935425043106079,-0.21163924038410187
1772094455615729400,5.9767294921875,0.3745124638080597,0.7647287845611572,-0.015808414667844772
1772094455625679400,5.986679443359375,0.4476407468318939,0.7243898510932922,0.21885496377944946
1772094455635628500,5.996628662109375,0.47355732321739197,0.6232423186302185,0.46051210165023804
1772094455645578500,6.00657861328125,0.44270646572113037,0.4403347969055176,0.6742651462554932
1772094455655527400,6.01652734375,0.3948855698108673,0.24720728397369385,0.7975866198539734
1772094455665477400,6.026477294921875,0.3789106011390686,0.12442995607852936,0.8023078441619873
1772094455675426600,6.036426513671875,0.39360305666923523,0.14203564822673798,0.715266764163971
1772094455685376500,6.04637646484375,0.4318732023239136,0.2866421043872833,0.5987822413444519
1772094455695325400,6.056325439453125,0.49013206362724304,0.4932343363761902,0.48549512028694153
1772094455705275400,6.066275390625,0.5684809684753418,0.6697350740432739,0.4340612292289734
1772094455715224300,6.076224365234375,0.6515228152275085,0.7651131749153137,0.4287945032119751
1772094455725174500,6.086174560546875,0.7127121090888977,0.7809128761291504,0.4622794985771179
1772094455735124200,6.096124267578125,0.7344933748245239,0.6848484873771667,0.4968355894088745
1772094455745073400,6.106073486328125,0.7296922206878662,0.5064268112182617,0.525118887424469
1772094455755023400,6.1160234375,0.6532491445541382,0.24748434126377106,0.5328637361526489
1772094455764972500,6.12597265625,0.5648233890533447,-0.03365599364042282,0.5125265121459961
1772094455774922500,6.135922607421875,0.47868749499320984,-0.2547707259654999,0.4616726040840149
1772094455784871400,6.145871337890625,0.39790716767311096,-0.3504655659198761,0.379630982875824
1772094455794821400,6.1558212890625,0.31623268127441406,-0.3354625403881073,0.26932433247566223
1772094455804770600,6.1657705078125,0.24964861571788788,-0.23699936270713806,0.09726600348949432
1772094455814720500,6.175720458984375,0.19077922403812408,-0.130495086312294,-0.1385834664106369
1772094455824669400,6.18566943359375,0.12534774839878082,-0.07445019483566284,-0.3835764229297638
1772094455834619400,6.195619384765625,0.047312647104263306,-0.08834660053253174,-0.563768208026886
1772094455844569300,6.2055693359375,0.029096893966197968,-0.11093686521053314,-0.623900294303894
1772094455854518500,6.2155185546875,0.05771486461162567,-0.1159571036696434,-0.5253711938858032
1772094455864468200,6.22546826171875,0.04201872646808624,-0.17800955474376678,-0.2504836916923523
1772094455874417400,6.23541748046875,0.01432001031935215,-0.2991047203540802,0.020758353173732758
1772094455884367400,6.245367431640625,0.026792658492922783,-0.3513152003288269,0.2556917667388916
1772094455894316500,6.255316650390625,-0.004957907367497683,-0.3421889543533325,0.43359145522117615
1772094455904266200,6.265266357421875,-0.05898785591125488,-0.24662569165229797,0.4823131859302521
1772094455914215400,6.27521533203125,-0.10678841918706894,-0.10142014920711517,0.3827490210533142
1772094455924165400,6.285165283203125,-0.1222722977399826,0.0769389420747757,0.2046181708574295
1772094455934114600,6.295114501953125,-0.12567223608493805,0.25996723771095276,-0.007843169383704662
1772094455944064300,6.305064208984375,-0.1391659379005432,0.39896106719970703,-0.20627637207508087
1772094455954014200,6.31501416015625,-0.14043028652668,0.46346548199653625,-0.35286352038383484
1772094455963963400,6.32496337890625,-0.11345193535089493,0.44696107506752014,-0.3678746819496155
1772094455973913300,6.334913330078125,-0.07319457828998566,0.3431854844093323,-0.2817726135253906
