time,seconds_elapsed,z,y,x
1772045301529610800,0.07761083984375,0.18123451902866364,-1.0136778610944748,-0.08679733589999378
1772045301539596800,0.0875966796875,-0.3533955047637224,-0.6246537013277411,0.16788981122188268
1772045301549581800,0.097581787109375,-0.5055190801203251,-0.3446903663910925,0.29594240983501074
1772045301559568000,0.10756787109375,-0.42585926795005796,-0.22476927098110316,0.3334001799613237
1772045301569553000,0.117552978515625,-0.2222784770786762,-0.22309359285384414,0.33656858086436986
1772045301579539000,0.1275390625,-0.0032341596156358716,-0.2913634114816785,0.34081944324187935
1772045301589524700,0.137524658203125,0.146988550555706,-0.4801277414932847,0.41353411244936283
1772045301599510000,0.147510009765625,0.02085983267724514,-0.7401590261220932,0.5496741559281945
1772045301609495800,0.157495849609375,-0.29094635511338707,-0.7479694076120853,0.664695131271705
1772045301619481900,0.16748193359375,-0.5378530774921179,-0.47146015865206714,0.6928586380258203
1772045301629467000,0.177466796875,-0.6263572903752327,-0.033196167159080504,0.6952763666920363
1772045301639453000,0.187452880859375,-0.46130058368742466,0.45532676997482774,0.6098243809863925
1772045301649439000,0.19743896484375,-0.15402444054186343,0.7091635838776826,0.5398467355273664
1772045301659423700,0.207423828125,0.09501344864666461,0.7413561269521712,0.5125733825460076
1772045301669409800,0.217409912109375,0.3715010702967644,0.6616413697242737,0.4829490825243294
1772045301679395800,0.227395751953125,0.6048480538785457,0.6384317590504884,0.45686800806745886
1772045301689380900,0.237380859375,0.7004173828423023,0.7096130812108516,0.5930795824125409
1772045301699367000,0.247366943359375,0.7629951273083686,0.7783774053573608,0.8284732693910598
1772045301709353000,0.25735302734375,0.7550356927365064,0.9271107537537813,1.0823511459566653
1772045301719338000,0.267337890625,0.7779775923848151,0.643029900495708,1.0615130867198108
1772045301729323800,0.27732373046875,0.8837398140609264,0.13795038083642722,0.9602125206276774
1772045301739308800,0.287308837890625,1.21098556304574,0.01648351728916168,0.9469932658314705
1772045301749294800,0.297294921875,1.6642203291773796,0.5371893528863787,1.0687009523972868
1772045301759281000,0.307281005859375,1.6394675807148218,0.3998153106331825,0.8018480050548911
1772045301769266000,0.317265869140625,1.5488941603422164,0.446633468170464,0.903198255507648
1772045301779251700,0.327251708984375,1.5586615211188792,0.6843667040124535,1.5227207314267754
1772045301789238000,0.337238037109375,1.4716922627180813,0.6425123063623904,2.27517722132504
1772045301799223000,0.34722314453125,1.464963831245899,0.7075532260715961,2.6321660744056103
1772045301809208800,0.357208740234375,1.4305693942129611,0.8038359640017151,2.6805922516614196
1772045301819195000,0.36719482421875,1.4080138635337351,0.7829892830669879,2.4778964269310233
1772045301829179600,0.3771796875,1.4413707742124795,1.0570154830396175,1.8531831043705342
1772045301839166500,0.38716650390625,1.5035083736956119,1.4546514038071034,1.0642834282159805
1772045301849152300,0.39715234375,1.523633462357521,1.5583148996382952,0.6201411923393607
1772045301859137500,0.407137451171875,1.43025433691442,1.5871438114985823,0.5928674009665846
1772045301869123600,0.41712353515625,1.2363140655696392,1.7032459331423042,0.8620096282899379
1772045301879109400,0.427109375,1.0126678072690962,1.6684429153084754,1.22279115165174
1772045301889094400,0.437094482421875,0.9276339008450507,1.6752917582899332,1.5245669438153504
1772045301899080400,0.44708056640625,1.0600298624247313,1.7331041880503295,1.716094308799505
1772045301909065500,0.4570654296875,1.3331091369360684,1.7703142670258878,1.8930992274343967
1772045301919051500,0.467051513671875,1.6863561731398105,1.8643366588085888,1.9143045125484466
1772045301929037300,0.477037353515625,1.935660019788146,2.0268167930066583,1.8000369128555058
1772045301939022600,0.487022705078125,2.1263649624735117,1.9544851317673921,2.0425556294083593
1772045301949008400,0.49700830078125,2.2917127610623833,1.938548726966977,2.3311147971242665
1772045301958994400,0.506994384765625,2.3610388107448816,2.0972356063619255,2.4930741223186255
1772045301968979500,0.5169794921875,2.4397107809215783,2.0449720429003237,2.7364555931806565
1772045301978965500,0.526965576171875,2.354241405689716,1.732017854118347,2.680912569656968
1772045301988951600,0.53695166015625,2.0335230126470325,1.2993977137312291,2.4844074162602423
1772045301998936300,0.546936279296875,2.0519301914751527,0.9699491940051317,2.1614146485447883
1772045302008922400,0.55692236328125,2.162003846609592,1.0330226130336522,1.3838929832339286
1772045302018908400,0.566908447265625,2.0068144539415833,1.3136597555786371,0.7319172674775123
1772045302028893400,0.5768935546875,1.5080337421655654,1.3806181993469595,0.3304723098158836
1772045302038879500,0.58687939453125,0.7448761177718639,1.3681938943207264,0.042642625418305394
1772045302048865500,0.596865478515625,0.08801759840995073,1.4607475287251173,-0.15449030448794365
1772045302058850600,0.6068505859375,-0.43535833317935463,1.4523149236835537,-0.2126806276500225
1772045302068836400,0.61683642578125,-0.8714718686401843,1.2298469153821467,-0.251540811920166
1772045302078821400,0.6268212890625,-1.011683764667809,1.0806275370344518,-0.3149842333048582
1772045302088807400,0.636807373046875,-0.6804653126597404,1.172618715250492,-0.2646072142422199
1772045302098793500,0.64679345703125,-0.03461012561023235,1.2786110924206673,-0.11188742655813694
1772045302108778500,0.656778564453125,0.6835314222320914,1.4043437967188654,0.1250818391740322
1772045302118764300,0.666764404296875,1.0798504151821136,1.6402230752572415,0.44471126793622967
1772045302128750300,0.676750244140625,1.2072168581619858,1.9301203597091137,0.8368652501612901
1772045302138735600,0.686735595703125,1.2072083825945854,2.172364497104287,1.3202473172754048
1772045302148721400,0.696721435546875,1.0193217122003435,2.2834020288348196,1.6648627187341452
1772045302158707500,0.70670751953125,0.8213732281275093,2.2886459208376704,1.8215145851701497
1772045302168692200,0.716692138671875,0.9315263782389461,2.44710235247761,1.747073968952894
1772045302178678500,0.726678466796875,1.0588970590025186,2.6352336452826854,1.3402145850270986
1772045302188664300,0.736664306640625,1.1485166857816278,2.809239382101595,0.7601742246687412
1772045302198649300,0.7466494140625,1.1919034075655042,3.0586832217425104,0.19965806446969508
1772045302208635400,0.756635498046875,1.132519344574213,3.3329899922221897,-0.17974048107862473
1772045302218620400,0.766620361328125,1.0406594645876437,3.5908065234109756,-0.47754269343614575
1772045302228606500,0.7766064453125,0.9141827369891107,3.9249867478340863,-0.7158557749927044
1772045302238592500,0.786592529296875,0.7402514536458998,4.179629909683764,-0.9823059867531061
1772045302248577300,0.796577392578125,0.518456924159266,4.348296915823221,-1.360641286984086
1772045302258563600,0.8065634765625,0.3020902832065709,4.459703573127091,-1.7263561750948428
1772045302268549400,0.81654931640625,0.11272329286038875,4.547867886531352,-2.0613269653737545
1772045302278534400,0.826534423828125,-0.20354455051422118,4.563754606971145,-2.50280056656301
1772045302288520400,0.8365205078125,-0.5752104559838771,4.304342915545404,-3.050592269745469
1772045302298506500,0.846506591796875,-0.8070762610971928,3.8386771223858,-3.7260979141712185
1772045302308491500,0.856491455078125,-0.9149988756775855,3.370915818251669,-4.596842053058743
1772045302318477300,0.866477294921875,-0.9366705361943691,2.9292162993520496,-5.51721034681499
1772045302328463600,0.876463623046875,-0.9009832098066807,2.5242797001823782,-6.284054550766944
1772045302338448600,0.88644873046875,-0.9567232902724295,2.1459157583788038,-6.750919782844186
1772045302348434400,0.896434326171875,-1.1090823548853397,1.7793655884876847,-6.9485261754810805
1772045302358420500,0.90642041015625,-1.3298796534955502,1.330573480978608,-6.881557502579689
1772045302368405200,0.9164052734375,-1.5943956823229788,0.8211097548857331,-6.729721511992811
1772045302378391600,0.9263916015625,-1.8204805659472942,0.5046913971245288,-6.76265990499854
1772045302388377300,0.93637744140625,-1.985046858769655,0.271520646892488,-6.993900271689891
1772045302398362400,0.9463623046875,-2.033053641569614,-0.12282266207039355,-7.099660739800334
1772045302408348700,0.9563486328125,-1.9828011256694793,-0.5592454096108674,-7.089937218165397
1772045302418334500,0.96633447265625,-1.8810149680174886,-1.0024719919472933,-6.865103211385011
1772045302428319500,0.976319580078125,-1.7509914346575737,-1.367355105409026,-6.320214828428625
1772045302438305300,0.98630517578125,-1.5448060142457485,-1.5087912825345993,-5.382338350510597
1772045302448291600,0.99629150390625,-1.2816414000272751,-1.4183680842876434,-4.170260900574922
1772045302458276600,1.006276611328125,-0.9504362458921969,-1.2468401357591152,-2.899197008663416
1772045302468262400,1.016262451171875,-0.6018109512049704,-1.1325579230189322,-1.684805436566472
1772045302478248400,1.02624853515625,-0.2533575059533119,-1.0432868174165486,-0.6466062976777553
1772045302488233200,1.036233154296875,0.045234979999065394,-0.9777046304374932,0.10494506007432937
1772045302498219500,1.046219482421875,0.24770053963754324,-0.9900678529262542,0.626630846619606
1772045302508204500,1.05620458984375,0.3833352639427408,-1.0486509747982025,0.8858522761702537
1772045302518190300,1.0661904296875,0.39485969751980154,-1.0719687220215797,0.9214923293501138
1772045302528176600,1.0761767578125,0.30251930400729177,-1.0566571711212396,0.7997457720786333
1772045302538161400,1.086161376953125,0.20671382820010184,-1.0646937625825406,0.6955389631509781
1772045302548147500,1.0961474609375,0.11050269420146941,-1.0383657276272773,0.6273761120289564
1772045302558133200,1.10613330078125,-0.04234393473267555,-0.919837547880411,0.44288639059662815
1772045302568118300,1.1161181640625,-0.27219664645791053,-0.6689806265711784,0.10832301207482814
1772045302578104600,1.1261044921875,-0.5464063863039016,-0.416899716424942,-0.16298223850131033
1772045302588090400,1.13609033203125,-0.6191723473072052,-0.43731940411925313,-0.11151567063629626
1772045302598075400,1.146075439453125,-0.4744026418447494,-0.5679419262856245,-0.05138648836612701
1772045302608061400,1.1560615234375,-0.22254967696918174,-0.6959189023792743,-0.20645137787163256
1772045302618047500,1.166047607421875,0.21912965765893458,-0.7799901012510061,-0.3877846810996532
1772045302628032500,1.176032470703125,0.554861495438218,-0.9084557376444339,-0.73042965926826
1772045302638018300,1.186018310546875,0.6819196031212806,-1.2309744581073523,-0.9186375244408845
1772045302648004600,1.196004638671875,0.6535469105958939,-1.5374918918401002,-0.8350690143942833
1772045302657989400,1.2059892578125,0.5395061419287697,-1.7061118439674376,-0.7187567571312189
1772045302667975400,1.215975341796875,0.3801952488839626,-1.8420745581179856,-0.5860410620778799
1772045302677961500,1.22596142578125,0.21461656414866445,-2.0032716667681933,-0.404241894903779
1772045302687946500,1.235946533203125,0.12012677404992282,-2.173504314789176,-0.24538112024664877
1772045302697932500,1.2459326171875,0.09384908104240894,-2.15523800573647,-0.14346680617034435
1772045302707918300,1.25591845703125,0.12116313136033713,-1.9645014988690614,-0.008357493978738785
1772045302717903400,1.2659033203125,0.17465923229157923,-1.7369237463384866,0.16793196986317632
1772045302727889700,1.2758896484375,0.23293489564955233,-1.5092647452652455,0.39352994675338265
1772045302737875500,1.28587548828125,0.2668260593354702,-1.3405939397335052,0.5371621726185083
1772045302747860500,1.295860595703125,0.2081676072049886,-1.1291764638870954,0.45613691731393335
1772045302757846300,1.30584619140625,0.043543446715548634,-0.7529664852470159,0.32051147229373456
1772045302767832600,1.31583251953125,-0.12818674638681113,-0.3499520863115787,0.20409926178753374
1772045302777817600,1.325817626953125,-0.168612864799425,0.22400106308758258,-0.048155251359939574
1772045302787803400,1.335803466796875,-0.004248889616131782,1.0776192951291799,-0.34078912116885185
1772045302797789400,1.34578955078125,0.26021394771933554,1.9087573998153209,-0.5239145685106515
1772045302807774500,1.3557744140625,0.5167436539679765,2.5578970153629776,-0.5837807159304619
1772045302817760500,1.365760498046875,0.7927366970341653,2.994177724084258,-0.6173007082164287
1772045302827746300,1.375746337890625,0.996959366005659,3.1258143917292354,-0.7861538845777511
1772045302837731800,1.38573193359375,1.001319899302721,2.8007699521809815,-1.2025918287098407
1772045302847718000,1.3957177734375,0.8393114742696285,2.0479595342785117,-1.6661118420124053
1772045302857703700,1.40570361328125,0.6676848146069795,1.1954308510392904,-1.9750866057693957
1772045302867688700,1.415688720703125,0.3941267436027527,0.6969774715214967,-2.4765835907667872
1772045302877674800,1.4256748046875,0.27635267015881837,-0.026716742011904715,-2.440356093087792
1772045302887660800,1.435660888671875,0.2062631618231535,-0.650381724563241,-1.9574889897584915
1772045302897645800,1.445645751953125,0.2775789240181446,-0.9571072480887174,-1.3259195176929235
1772045302907631600,1.455631591796875,0.4553162485808134,-1.0374579651325941,-0.6396651002377272
1772045302917618000,1.465617919921875,0.6124240420907735,-0.9753332251310348,-0.19163024083673952
1772045302927603700,1.475603759765625,0.700070030709356,-0.9717413381189107,0.03223813578188419
1772045302937588700,1.485588623046875,0.740289959025383,-0.9582453122079372,0.039921676021814345
1772045302947574800,1.49557470703125,0.6876951177828013,-0.8923784630686045,-0.028436989933252332
1772045302957560800,1.505560791015625,0.7624281410753726,-0.7656056020677089,-0.029603695625066755
1772045302967545900,1.5155458984375,0.9681354225814341,-0.5608505067199469,0.027873510831594464
1772045302977531600,1.52553173828125,1.1558930597685277,-0.4195142828375101,0.13294950380921364
1772045302987518000,1.53551806640625,1.2653455142647028,-0.4242606005817651,0.30510347528159615
1772045302997502700,1.545502685546875,1.3956798671394586,-0.44822073736190793,0.44972646574974057
1772045303007488800,1.55548876953125,1.4553477155081926,-0.31109073299765583,0.42062370538413524
1772045303017474600,1.565474609375,1.2413450454741715,-0.19683307017683982,0.20124387235641478
1772045303027459600,1.57545947265625,0.8405038989245891,-0.22119243540763853,-0.1860024640828371
1772045303037446000,1.58544580078125,0.44346492113694547,-0.33103637343943115,-0.703157621461153
1772045303047431700,1.595431640625,0.12878361630141735,-0.510495114967227,-1.181958790525794
1772045303057416700,1.605416748046875,-0.06619527737610041,-0.739704268091917,-1.53381817176342
1772045303067402800,1.61540283203125,-0.1500298179477453,-0.9090233083993196,-1.7777905942559242
1772045303077388800,1.625388916015625,-0.15659414489939807,-1.0941647717386485,-1.896819124740362
1772045303087373800,1.635373779296875,-0.010677461358904837,-1.3074831127703188,-1.8011241235703228
1772045303097359600,1.645359619140625,0.2170552625376731,-1.3629174152225254,-1.6148720686405895
1772045303107346000,1.655345947265625,0.29904432137310505,-1.3460598039239644,-1.5043050770312547
1772045303117331700,1.665331787109375,0.32206571599841116,-1.372442783936858,-1.385067287710309
1772045303127316700,1.675316650390625,0.36842122446000575,-1.399155434295535,-1.191302372932434
1772045303137302500,1.685302490234375,0.5200836120456457,-1.4911942510455847,-0.9318255073159932
1772045303147288800,1.695288818359375,0.7468179725546389,-1.5229752907097338,-0.6829863555699587
1772045303157273900,1.70527392578125,1.0670085423309354,-1.52404555028975,-0.5010182615697384
1772045303167259600,1.715259765625,1.3813859688490628,-1.5025614482343197,-0.41727497947812076
1772045303177245700,1.72524560546875,1.5633102237075567,-1.4180454282045363,-0.3223474555492401
1772045303187230700,1.735230712890625,1.5125433285444974,-1.104722990632057,-0.25212299572229385
1772045303197216800,1.745216796875,1.348531746995449,-0.6731266403347254,-0.1804290478646755
1772045303207202600,1.75520263671875,1.3053367483913898,-0.27749650643169876,-0.000989011037349701
1772045303217187600,1.7651875,1.3093559209048746,-0.11656301715373993,0.24461715013682842
1772045303227174000,1.775173828125,1.3322756087213754,-0.0003635726153850555,0.44853053396344184
1772045303237159700,1.78515966796875,1.2841589358061551,-0.0452086765140295,0.6137631817400455
1772045303247145700,1.795145751953125,1.1087655440211295,-0.20105740987360476,0.5192255339115858
1772045303257130500,1.805130615234375,0.8257336152940988,-0.309721490471065,0.26814415619671345
1772045303267116800,1.81511669921875,0.48660515734646465,-0.30415684208124877,-0.06897709011435509
1772045303277102600,1.8251025390625,0.08353873596284538,-0.3077364541336894,-0.19639584780335426
1772045303287087600,1.835087646484375,-0.2599210839862935,-0.29580928497463466,-0.15403379289209843
1772045303297074000,1.845073974609375,-0.4483002323389053,-0.15362345852553844,0.043864276167750356
1772045303307059700,1.855059814453125,-0.5478285280615091,0.027926702323555944,0.29799685814678667
1772045303317044700,1.865044677734375,-0.569755697709322,0.32994068715721364,0.4164057954281568
1772045303327030800,1.87503076171875,-0.5527250679314136,0.7175652092590927,0.49699733549058434
1772045303337016800,1.885016845703125,-0.5207669181346893,0.9742068514496087,0.5516670833110809
1772045303347001900,1.895001953125,-0.4687818793535232,1.114212703511119,0.5169944138586521
1772045303356987600,1.904987548828125,-0.48234746336936946,1.2129127317160366,0.41638884429335593
1772045303366973700,1.9149736328125,-0.5606418324053287,1.2341601024061442,0.39372283897697924
1772045303376959700,1.924959716796875,-0.6669628570079803,1.1810489822044967,0.4581833284497261
1772045303386944800,1.93494482421875,-0.7959493024051189,1.2115651164993644,0.46062020020782946
1772045303396930800,1.944930908203125,-0.8213339190304279,1.4444070731684564,0.3158598470956087
1772045303406916600,1.95491650390625,-0.7590367450714111,1.6951847917616367,0.2119873846888542
1772045303416902000,1.96490185546875,-0.5910253898290917,1.8748627289980648,0.23815292255878448
1772045303426887700,1.9748876953125,-0.34349900118205695,2.1323370226204394,0.21712124044597148
1772045303436873700,1.984873779296875,-0.11238025157637893,2.3976129299044606,0.12798223679065704
1772045303446858800,1.994858642578125,-0.0535561605554074,2.5586715068668124,0.05570201347768306
1772045303456844800,2.0048447265625,-0.16061156384721398,2.608515441966057,-0.019909400084614753
1772045303466830800,2.014830810546875,-0.383558514771983,2.5587913338541983,-0.09895604879260063
1772045303476816600,2.024816650390625,-0.6127834499876946,2.3893197333335876,-0.15799860486984252
1772045303486801700,2.0348017578125,-0.7466448810100555,2.006597888581455,-0.17107669762969016
1772045303496787700,2.04478759765625,-0.8484287736397236,1.4694266558736562,-0.18909926105439662
1772045303506773800,2.054773681640625,-0.9966717812359333,0.940543066778779,-0.18793138631880282
1772045303516758800,2.0647587890625,-1.147467980446294,0.38220775775015353,-0.09427987367510796
1772045303526744800,2.074744873046875,-1.253541094702482,-0.20881196952313183,-0.005455927318334579
1772045303536731000,2.08473095703125,-1.319493868559599,-0.627837592060864,0.10647475385963916
1772045303546716700,2.094716552734375,-1.344042618882656,-0.8315420093119144,0.23430209234952926
1772045303556701700,2.10470166015625,-1.2492156327188013,-0.9382529100149869,0.4029740669250488
1772045303566687700,2.114687744140625,-1.1177367859840392,-0.9334890566140412,0.5059656548440457
1772045303576673800,2.124673828125,-0.9709738608777523,-0.7711193970531225,0.4952390936464071
1772045303586658800,2.134658935546875,-0.7600667457062751,-0.5077767959192395,0.34817280167937276
1772045303596644600,2.14464453125,-0.4629238740403205,-0.21262509807050226,0.16727379821538924
1772045303606631000,2.154630859375,-0.07212642099075019,0.09353665409237145,0.048344636452198025
1772045303616615700,2.16461572265625,0.4331073028495535,0.41479397631734605,0.041740708142519
1772045303626601700,2.174601806640625,0.9783645556509494,0.6424585303485393,0.19409458512365818
1772045303636587500,2.18458740234375,1.49716616506204,0.7754279079020023,0.5739572410523891
1772045303646573800,2.19457373046875,1.892878278160095,0.9531105796679854,1.0694880111217497
1772045303656558800,2.204558837890625,2.099513780426979,1.139689966855943,1.6298334909290075
1772045303666544600,2.214544677734375,2.1577929509162903,1.2376412225201725,2.1556623686283825
1772045303676531000,2.224531005859375,2.1507857025027275,1.257165130418539,2.5694769785195586
1772045303686515700,2.234515625,2.110807912379503,1.1998656186163426,2.8108891951352355
1772045303696501800,2.244501708984375,2.0487503923952577,1.027776529073715,2.9025615166604517
1772045303706487600,2.254487548828125,1.9251403793394564,0.813989401486516,2.8327380388498304
1772045303716473900,2.264473876953125,1.8070681266665458,0.6046165832102298,2.6484897249579427
1772045303726459000,2.274458984375,1.7470388976395128,0.4109773406386375,2.4636475368261337
1772045303736444700,2.284444580078125,1.6665408810794353,0.25186317574232814,2.3500404468685385
1772045303746430700,2.2944306640625,1.5626421151876448,0.0747276164650917,2.289662258273363
1772045303756415700,2.304415771484375,1.473966637390852,-0.06535626926869154,2.272507709854841
1772045303766401800,2.31440185546875,1.4030208775520323,-0.2018313168555498,2.2230624186843633
1772045303776387600,2.3243876953125,1.3650117571532725,-0.3194906048133969,2.073724674654007
1772045303786374000,2.334373779296875,1.3394225578665733,-0.4407458714365959,1.8996067096322773
1772045303796359000,2.34435888671875,1.3105799097418784,-0.5383914221525192,1.6822499068647623
1772045303806344700,2.3543447265625,1.2461807950675488,-0.5705336963444948,1.2661053927212953
1772045303816330800,2.364330810546875,1.2110159581840036,-0.5485252781540155,0.8034533944249153
1772045303826315500,2.3743154296875,1.2370458869755268,-0.4807259996473789,0.4067424795478582
1772045303836300800,2.38430078125,1.2759762138724327,-0.39789340265989304,0.021209376767277716
1772045303846286800,2.394286865234375,1.289974344086647,-0.32258973987251516,-0.24320026907622813
1772045303856273000,2.40427294921875,1.2943138345956802,-0.30595863080620767,-0.40691082185208793
1772045303866258000,2.4142578125,1.321224053353071,-0.3638923488587141,-0.5778109938710928
1772045303876243700,2.42424365234375,1.3996002554535865,-0.48488487289249893,-0.7179314122229814
1772045303886229800,2.434229736328125,1.4532242936134339,-0.6037737026453018,-0.7476555193573236
1772045303896215000,2.444215087890625,1.4663959098756312,-0.7898369570046663,-0.6748246764242649
1772045303906200800,2.454200927734375,1.4010814339220523,-1.0449597190648316,-0.5815092638671397
1772045303916187000,2.464186767578125,1.305062023103237,-1.2947247534841297,-0.612564911866188
1772045303926173000,2.4741728515625,1.1902139931738376,-1.4566899238973856,-0.7643231610417366
1772045303936158000,2.484157958984375,1.0482920783579348,-1.5512340014666317,-0.8662702083438635
1772045303946143700,2.494143798828125,0.9172328452747315,-1.626373121342063,-0.9677432083934545
1772045303956129800,2.5041298828125,0.7589151645183563,-1.7075205417215824,-1.1660662248671054
1772045303966114800,2.51411474609375,0.6053975409874692,-1.7964257366210221,-1.3901876994639635
1772045303976100900,2.524100830078125,0.49773441759347914,-1.9280477912187575,-1.6977175251096486
1772045303986087000,2.5340869140625,0.4243675680875778,-2.095481748431921,-2.124520211389661
1772045303996072700,2.54407275390625,0.36649643040988594,-2.3144389721333978,-2.5460955184102056
1772045304006058000,2.55405810546875,0.4067091618001461,-2.515001291966438,-2.9551217249810695
1772045304016043800,2.564043701171875,0.5344751620242372,-2.632935597473383,-3.4862767661392686
1772045304026029800,2.57402978515625,0.669790773910284,-2.5789012249469754,-4.041162226974964
1772045304036014800,2.584014892578125,0.7680196774721145,-2.597092130675912,-4.363008162742853
1772045304046001000,2.5940009765625,0.7600714949466287,-2.717559754052758,-4.598513201141357
1772045304055987000,2.603987060546875,0.7092986084342002,-2.812328288027644,-4.826920974755287
1772045304065972700,2.61397265625,0.7477262465059756,-2.8680665418624876,-5.1044385239750145
1772045304075957800,2.623957763671875,0.8132301075518131,-2.8987971956908702,-5.4079912626832725
1772045304085944000,2.633944091796875,0.8682477189619093,-3.058077072542906,-5.650653771620989
1772045304095929900,2.643929931640625,0.9288730872511863,-3.236018395245075,-5.851171083268523
1772045304105915000,2.653914794921875,0.9827204127728939,-3.4179747988075015,-6.0257362075358625
1772045304115900700,2.663900634765625,1.0275836368501186,-3.624221594017744,-6.019113574525713
1772045304125887000,2.673886962890625,1.0507307036817073,-3.7484652288019653,-5.8418789387881755
1772045304135872800,2.683872802734375,1.032252797704935,-3.8242023145705457,-5.521609458556771
1772045304145857800,2.69385791015625,0.9805857388317585,-3.811501238429546,-5.039883341956139
1772045304155844000,2.703843994140625,0.9138578889489173,-3.6873698318481445,-4.463671599975228
1772045304165830000,2.713829833984375,0.8436357672095298,-3.423145479443669,-3.881941971355676
1772045304175815000,2.72381494140625,0.7347989603936672,-3.1360458628863093,-3.3325136068820953
1772045304185800700,2.73380078125,0.6100140218069776,-2.8788427874207496,-2.8247371032238004
1772045304195787000,2.743787109375,0.5061901112496853,-2.665229847356677,-2.391004909941554
1772045304205772800,2.753772705078125,0.482280754808709,-2.4726029966980216,-2.0914397795647384
1772045304215757800,2.7637578125,0.5066588978052139,-2.208053065600991,-1.922513537967205
1772045304225744000,2.773743896484375,0.5288520249128341,-1.8763596895575523,-1.785601560267806
1772045304235730000,2.78372998046875,0.5521054747283458,-1.4546639710277318,-1.6368512607365846
1772045304245716000,2.793716064453125,0.5537620462963357,-0.9876806655287742,-1.5297773719400167
1772045304255700700,2.80370068359375,0.5242635280787944,-0.5533285867825151,-1.4144266531854868
1772045304265686800,2.813686767578125,0.5234697473526001,-0.21260347076058386,-1.3188999943196773
1772045304275672800,2.8236728515625,0.5670166281342506,0.07914572516828774,-1.334443600410223
1772045304285657900,2.833657958984375,0.6827332575917243,0.32528789291530846,-1.44528648635149
1772045304295644000,2.843643798828125,0.8420131344437599,0.5096881824985147,-1.5889976226717233
1772045304305630000,2.8536298828125,0.9777483965139836,0.6663301120623946,-1.7157278135746716
1772045304315616000,2.863615966796875,1.0479717603623866,0.8152996073022484,-1.7846920442074536
1772045304325600800,2.873600830078125,1.109728763030097,0.9956903689831494,-1.741643176075816
1772045304335586800,2.8835869140625,1.1216447532080114,1.1843313648760319,-1.598341789600253
1772045304345572900,2.89357275390625,1.1168132413983345,1.4193655708923936,-1.341974580436945
1772045304355558000,2.903557861328125,1.1340600712101905,1.7006196762919426,-0.9920902986645698
1772045304365544000,2.9135439453125,1.1580161163371057,1.9481918768420814,-0.618989976477623
1772045304375529700,2.92352978515625,1.168085163474083,2.1953704018995164,-0.2775654800146818
1772045304385516000,2.93351611328125,1.185537818056345,2.473205054244399,0.01177928512096405
1772045304395500800,2.943500732421875,1.1417559594750404,2.780319284826517,0.29498598589301106
1772045304405486800,2.95348681640625,1.0121032321888952,2.9936949090033766,0.6224053378790617
1772045304415472600,2.96347265625,0.876461347490549,3.1338337397947904,0.9655763857483863
1772045304425458000,2.9734580078125,0.7452069571614265,3.246212457001209,1.2542027734816075
1772045304435444000,2.98344384765625,0.6466998942453414,3.3491642974317073,1.5406366196066141
1772045304445429800,2.9934296875,0.5886169769804924,3.4799358726799485,1.814361790806055
1772045304455416000,3.003416015625,0.5209001160603016,3.615422786012292,2.077964796441793
1772045304465400800,3.01340087890625,0.4070353250145912,3.731649410818517,2.410542554104328
1772045304475387000,3.023386962890625,0.27551212768144906,3.7684681523889303,2.81412627736032
1772045304485372700,3.03337255859375,0.1760767709393054,3.8067239410251377,3.1809844902873037
1772045304495357700,3.043357666015625,0.09731357881519943,3.835489432260394,3.4484839188396927
1772045304505344000,3.053343994140625,0.04233107525110245,3.8491853646576404,3.6312592375695703
1772045304515329800,3.063329833984375,0.009207425338961184,3.8494679809913035,3.7749551763206717
1772045304525315800,3.07331591796875,0.004097425381466746,3.844051508900523,3.86330449090302
1772045304535300900,3.08330078125,-0.027737865220569074,3.8271369067177172,3.9442087501764296
1772045304545287000,3.093286865234375,-0.10063132506106048,3.9171278510272503,3.9630549049437045
1772045304555272700,3.103272705078125,-0.13241291271448136,4.071263058467209,3.9321027173191307
1772045304565257700,3.1132578125,-0.08019413824267685,4.186414747518301,3.881516439419985
1772045304575244000,3.123244140625,0.0550595873882994,4.347703918366134,3.795954709729552
1772045304585229800,3.133229736328125,0.23389289049413053,4.528130043621361,3.687381522285938
1772045304595216000,3.1432158203125,0.27909630631115284,4.660669797585904,3.55606341907084
1772045304605200600,3.15320068359375,0.25082765868213025,4.726724570512771,3.3887621483266352
1772045304615187000,3.16318701171875,0.1254687926650047,4.671778343838453,3.2063708604782817
1772045304625172700,3.1731728515625,0.06680266868472098,4.51706299842298,2.9880683012932536
1772045304635157800,3.18315771484375,0.11123802273869514,4.2727436621889465,2.750303501269221
1772045304645143800,3.193143798828125,0.2586649647116661,4.031821859438717,2.4668647453069688
1772045304655129900,3.2031298828125,0.46617498479075725,3.932183673600852,2.209306865054369
1772045304665116000,3.213115966796875,0.6956582786817104,3.96159856865555,2.0286235501676795
1772045304675101000,3.223100830078125,0.8722095352649688,4.072656558652222,1.8675059364944695
1772045304685087000,3.2330869140625,0.9222796803355217,4.236493368156254,1.730490498420596
1772045304695072800,3.24307275390625,0.8497755851387977,4.352378632178902,1.580204659885168
1772045304705057800,3.253057861328125,0.6395324137687682,4.43951623288393,1.4095003026992081
1772045304715043800,3.2630439453125,0.35520226192474363,4.45778400324136,1.1785159565955399
1772045304725030000,3.27302978515625,0.10477321063876151,4.309150315827131,0.8814572560817002
1772045304735016000,3.283015869140625,-0.029165231142565605,3.971881185477972,0.548207298246026
1772045304745001000,3.2930009765625,-0.06534830515794456,3.516571366637945,0.15194588070213794
1772045304754986800,3.30298681640625,-0.04603343690037727,2.9415760147094723,-0.1964595606893301
1772045304764972800,3.312972900390625,-0.07451843069382011,2.254691482657194,-0.48085459446310996
1772045304774957800,3.322957763671875,-0.15686817606780676,1.5963417018242179,-0.6922831762254238
1772045304784943900,3.33294384765625,-0.25725045827124265,1.1026929461091757,-0.8373240998446941
1772045304794929700,3.3429296875,-0.3198294083137065,0.7768959346279501,-0.9485200370073318
1772045304804916000,3.352916015625,-0.3640531654436141,0.623290596280992,-1.020191773033142
1772045304814901000,3.36290087890625,-0.4578993238765746,0.6094423959314823,-1.0565905356258154
1772045304824886800,3.37288671875,-0.6512906561017036,0.643018502318859,-1.034878470033407
1772045304834873000,3.382873046875,-0.8891910652041435,0.7130500699222088,-1.0438754309594631
1772045304844859400,3.392859375,-1.0757189414005726,0.8045455735757947,-1.1305635343313216
1772045304854844400,3.402844482421875,-1.1255506746053694,0.8573743697047234,-1.2872563172996043
1772045304864830200,3.412830322265625,-1.050134491354227,0.8336366435036062,-1.4710539648145435
1772045304874816500,3.42281640625,-0.9633832596182823,0.7419689981535077,-1.614474009233713
1772045304884801300,3.43280126953125,-0.8679016089379787,0.6385942561358213,-1.6482845088988543
1772045304894787300,3.442787353515625,-0.743294401538372,0.5405088526979088,-1.5076590636342764
1772045304904773000,3.452773193359375,-0.5969510900836438,0.4055599917650223,-1.228002164298296
1772045304914759400,3.462759521484375,-0.41653146763443943,0.2481923782750964,-0.8621095815330744
1772045304924744400,3.472744384765625,-0.2580453715085983,0.04768792610913515,-0.5423112259447574
1772045304934730200,3.482730224609375,-0.09013557694461197,-0.12178572023808955,-0.29187282230854034
1772045304944716300,3.49271630859375,0.031531412284635005,-0.29652970820367336,-0.11022796891331672
1772045304954701300,3.502701416015625,0.137255092048645,-0.4278855130806565,0.036192426365613935
1772045304964687400,3.512687255859375,0.21211597950458524,-0.535036558766663,0.12889175285100937
1772045304974673200,3.522673095703125,0.26726331824157384,-0.6347761591523885,0.17194237454831598
1772045304984658200,3.532658203125,0.31674305967092514,-0.7962067842975258,0.2089075388520956
1772045304994644500,3.54264453125,0.40000001955032344,-0.8768272581934928,0.2244575746834278
1772045305004630300,3.55263037109375,0.5184405210137367,-0.8996089988440275,0.3273287510931492
1772045305014616300,3.5626162109375,0.6161667357504368,-0.8949629266038537,0.4868249010443687
1772045305024601300,3.572601318359375,0.6769687027156353,-0.860808435806632,0.6137813019186258
1772045305034587400,3.58258740234375,0.6879553761541843,-0.851033768506348,0.6758809074789285
1772045305044573200,3.5925732421875,0.66552727124691,-0.829726192061603,0.6227876151949167
1772045305054558200,3.60255810546875,0.5714309374451637,-0.7904799310833215,0.47103345767259597
1772045305064544300,3.612544189453125,0.4125765194635838,-0.8057707314565777,0.3090753015220165
1772045305074530300,3.6225302734375,0.24861586438417432,-0.8405044834464788,0.09103227005600929
1772045305084516400,3.632516357421875,0.0390039401223883,-0.8654998084932565,-0.13698679650127887
1772045305094501400,3.64250146484375,-0.1753286194531247,-0.9738479550093412,-0.3246913883268833
1772045305104487400,3.6524873046875,-0.34350707489065824,-1.153784250921011,-0.5113859263271093
1772045305114473200,3.66247314453125,-0.42071313723325726,-1.3717793515920638,-0.7141308508962393
1772045305124458200,3.672458251953125,-0.4389432789940387,-1.601607513397932,-0.8913228165358305
1772045305134444300,3.6824443359375,-0.4321885805694386,-1.9212930562615393,-1.0401397515624762
1772045305144430300,3.692430419921875,-0.40530857428722084,-2.240585215893388,-1.166993861106038
1772045305154416400,3.70241650390625,-0.36310032169818873,-2.5104963817626236,-1.2880541896790265
1772045305164401400,3.7124013671875,-0.34935127087421713,-2.7002462156802416,-1.4183826973348854
1772045305174387200,3.72238720703125,-0.41835744095258415,-2.8075527441889045,-1.5570628537505864
1772045305184373500,3.73237353515625,-0.5527648154199123,-2.817192679193616,-1.7305647327005862
1772045305194358300,3.742358154296875,-0.6823615016698837,-2.804612599083781,-1.9399393045425415
1772045305204344300,3.75234423828125,-0.7750713495492935,-2.7604338501393793,-2.208043713250756
1772045305214330400,3.762330322265625,-0.7821195144951343,-2.723416078865528,-2.4874159504264592
1772045305224316400,3.77231640625,-0.7054828495383262,-2.7552836277693507,-2.742990547907352
1772045305234301400,3.782301513671875,-0.5635341197807342,-2.8102777852386236,-2.9617887816548345
1772045305244287200,3.792287353515625,-0.36349436251707373,-2.831262121078372,-3.1038124032795427
1772045305254273500,3.8022734375,-0.16417597833052278,-2.7232535817801953,-3.203235485062003
1772045305264258300,3.81225830078125,0.07943893596120179,-2.2281500972121955,-3.3510628245294094
1772045305274244400,3.822244384765625,0.14764906029105185,-1.5855425137817858,-3.4040859741866587
1772045305284230100,3.832230224609375,-0.0159597856760025,-1.1147282518178223,-3.3994086300253867
1772045305294215200,3.842215087890625,-0.260080676728487,-0.8817267206728457,-3.4708874738276
1772045305304201500,3.852201416015625,-0.4605342754900455,-0.9744628720372914,-3.6004788993805645
1772045305314187300,3.862187255859375,-0.53547356194444,-1.3828957888901232,-3.6610014648824927
1772045305324173300,3.87217333984375,-0.4274689681690186,-1.9606687888383865,-3.723545891600847
1772045305334158300,3.882158447265625,-0.20378530046753585,-2.528884855890274,-3.7555519721925257
1772045305344144400,3.892144287109375,0.017940072773024437,-2.9701000984042882,-3.6786797449141737
1772045305354130200,3.902130126953125,0.14651501475982368,-3.2973774115711447,-3.4322102449089287
1772045305364115200,3.912115234375,0.13052249585799872,-3.5377100162565704,-2.9428701461732385
1772045305374101500,3.9221015625,0.025128522972390054,-3.6009798346400257,-2.3844909980028866
1772045305384087300,3.93208740234375,-0.15164609403796492,-3.4964731659829615,-1.8310002063959836
1772045305394073300,3.9420732421875,-0.3226034030716866,-3.2981746994286776,-1.3289800743073223
1772045305404058000,3.95205810546875,-0.4893547117829323,-2.9505045865744353,-0.9927852951914071
1772045305414044400,3.96204443359375,-0.5498948129415512,-2.532131290465593,-0.8139069839000701
1772045305424030200,3.9720302734375,-0.5053530759036541,-2.054636527824402,-0.8004805160939693
1772045305434015200,3.98201513671875,-0.35515908037014304,-1.569329630127549,-0.9031681526303291
1772045305444001500,3.99200146484375,-0.10696166059374809,-1.0951637196481228,-1.145667579960823
1772045305453987300,4.0019873046875,0.17849778754115103,-0.5608025759249925,-1.5234791485786436
1772045305463972400,4.011972412109375,0.47256373597979545,-0.009947393518686294,-1.8360978217959403
1772045305473958100,4.021958251953125,0.7544072586398571,0.5106456293538213,-2.100968655410409
1772045305483944400,4.0319443359375,0.9427635923724621,0.9883590031817555,-2.363757422053814
1772045305493930200,4.04193017578125,1.018058268135786,1.388588155312836,-2.6098154186487195
1772045305503915300,4.051915283203125,1.131601645207405,1.7306781299471854,-2.842899367380142
1772045305513901300,4.0619013671875,1.271538523685932,2.0398677054986356,-3.0815614085048435
1772045305523887400,4.071887451171875,1.362979959064722,2.2557757707625625,-3.266431069165468
1772045305533872400,4.081872314453125,1.4322645076930522,2.365627015317976,-3.328824689236283
1772045305543858200,4.091858154296875,1.4967489625632762,2.348848022213578,-3.2122534887760876
1772045305553844200,4.10184423828125,1.5395944170773028,2.278157698440552,-2.9332062457710504
1772045305563830300,4.111830322265625,1.5317688380181789,2.2513114848300813,-2.512669049626589
1772045305573815300,4.121815185546875,1.4972563275635242,2.285756775267422,-1.9684557894527912
1772045305583801300,4.13180126953125,1.4646926130890845,2.416699323168397,-1.3553683150172233
1772045305593787400,4.141787353515625,1.371758308804035,2.5491592898949977,-0.6882751096278429
1772045305603772400,4.1517724609375,1.2572586539208888,2.7154496300309896,-0.08260814058184623
1772045305613758200,4.16175830078125,1.1615292390245944,3.0134307060867545,0.3655477148503065
1772045305623744300,4.171744140625,1.1071885039627551,3.3720348854094744,0.7080798802942038
1772045305633729300,4.181729248046875,1.0610814173042773,3.785158298166096,1.0041425555080175
1772045305643715300,4.19171533203125,1.0295721803188322,4.1415228818684815,1.2855997822642327
1772045305653701400,4.201701416015625,1.0704092176198958,4.388414406678081,1.657197883194685
1772045305663687200,4.211687255859375,1.1806173127889632,4.517725261723995,2.1296084744393826
1772045305673672200,4.221672119140625,1.312505324846506,4.533359468707442,2.688900061279535
1772045305683658200,4.231658203125,1.4057494257330894,4.514639570668339,3.2157822474241256
1772045305693644300,4.241644287109375,1.457388427555561,4.441402485021949,3.673862115499377
1772045305703629300,4.25162939453125,1.4653729965686797,4.324065853147208,4.100864123743772
1772045305713615400,4.261615478515625,1.482801101231575,4.261018445342779,4.422023246291279
1772045305723601400,4.271601318359375,1.5000900896847247,4.285781715199351,4.595346846064925
1772045305733586400,4.28158642578125,1.4979799656629562,4.255175564533472,4.692449960467219
1772045305743572200,4.291572265625,1.49151982973814,4.171946661704778,4.729933595687151
1772045305753558300,4.301558349609375,1.4813047251939773,4.046160765914618,4.676493681922555
1772045305763544300,4.31154443359375,1.402949712011963,3.945565425482392,4.561960124769807
1772045305773529300,4.321529296875,1.3008803535044193,3.851233821620047,4.424268394869566
1772045305783515100,4.33151513671875,1.2096749919038265,3.7924180600360033,4.263873834773898
1772045305793501400,4.34150146484375,1.1090507907032965,3.8105233333081006,4.058622480341792
1772045305803486500,4.351486572265625,0.9842272371392696,3.8659424381911753,3.838055483356118
1772045305813472300,4.36147216796875,0.8752267641942948,3.9773979030728337,3.606962416180968
1772045305823458600,4.37145849609375,0.7480360431075096,4.156078645965457,3.282400791713595
1772045305833443300,4.381443359375,0.6219255915381015,4.425583276860416,2.8955998609542846
1772045305843429000,4.39142919921875,0.457561543289572,4.558029215061664,2.5691677664399144
1772045305853415000,4.401414794921875,0.3360558090366423,4.607108595529199,2.197001510232687
1772045305863401200,4.411401123046875,0.30514979864135383,4.710707793952524,1.739843433177471
1772045305873386200,4.42138623046875,0.2698492065489292,4.764256136527657,1.257441024750471
1772045305883372000,4.4313720703125,0.23949629999175667,4.748009350603819,0.7985673759490252
1772045305893358000,4.441358154296875,0.22097630843892693,4.83534568875134,0.37377135331630706
1772045305903343000,4.451343017578125,0.22361717833653091,5.164437942385673,-0.09049450991749763
1772045305913329200,4.4613291015625,0.22082535566091535,5.744004255491495,-0.5236170468688011
1772045305923315000,4.47131494140625,0.043064211831241844,6.221002174526452,-0.6561129616916179
1772045305933300000,4.481300048828125,-0.31747911886051294,6.263964533418417,-0.5023492179125547
1772045305943286300,4.491286376953125,-0.7640940284609794,5.917932835420966,-0.33543899231255053
1772045305953272000,4.50127197265625,-1.0886078682638705,5.374900893986225,-0.3071358578920364
1772045305963258000,4.511258056640625,-1.2323825713396073,4.866753511188924,-0.4032704195231199
1772045305973243000,4.521242919921875,-1.3206896542154252,4.373808958220482,-0.4545189607232809
1772045305983229200,4.531229248046875,-1.4571930511139333,3.878737037834525,-0.30041210259497164
1772045305993215000,4.541215087890625,-1.6190636751115322,3.516533957237005,-0.0036982699960470197
1772045306003200000,4.551199951171875,-1.7728455390691755,3.3849498965620994,0.3288637055754661
1772045306013186300,4.561186279296875,-1.9067163955070077,3.336879985398054,0.7615273928433656
1772045306023172000,4.571172119140625,-2.049366332336515,3.3205040201365947,1.2786819656997919
1772045306033157000,4.5811572265625,-2.2028793162249025,3.306461758519709,1.7652110986679792
1772045306043143000,4.591142822265625,-2.3434125531613827,3.236961813575029,2.1199866596132515
1772045306053129200,4.601129150390625,-2.3955893151223657,3.147926854816079,2.252391973543167
1772045306063114200,4.6111142578125,-2.3320693213701245,3.084669311392307,2.1853847221970555
1772045306073100000,4.62110009765625,-2.1880559872329233,3.020681115606427,1.9919331111520528
1772045306083086000,4.631086181640625,-2.0357050328612325,2.962112899042666,1.7540911542385815
1772045306093072100,4.641072021484375,-1.8870108474314211,2.942436430931091,1.4972282705128193
1772045306103057200,4.65105712890625,-1.7576257581055164,2.9229952328801154,1.3633756803840398
1772045306113043000,4.66104296875,-1.6410031197190285,2.854863945940137,1.2578081044971943
1772045306123029000,4.671029052734375,-1.5744295836150646,2.7063202748969197,1.0651935287982224
1772045306133014300,4.68101416015625,-1.4968962620794772,2.5105136251583695,0.7928092508137226
1772045306143000000,4.691,-1.403254686307907,2.2813456808269024,0.435808999556303
1772045306152986000,4.700986083984375,-1.296730101957172,1.9835265173345804,0.033228315863013266
1772045306162971100,4.71097119140625,-1.2347989848315715,1.699167723917961,-0.3806839091837406
1772045306172957200,4.720957275390625,-1.20146034046188,1.3963736946225165,-0.7654442740261554
1772045306182943200,4.730943115234375,-1.2047617200948297,1.0622750110030175,-1.1096446649432181
1772045306192928000,4.740927978515625,-1.2135516141414642,0.7402639478012919,-1.3506395329296588
1772045306202914000,4.7509140625,-1.1935270632445811,0.3760609255582094,-1.5041098467200993
1772045306212900000,4.760900146484375,-1.201068418534845,0.0414788423359394,-1.7017746915459633
1772045306222886100,4.77088623046875,-1.2244285435952245,-0.2379939326047897,-1.9029706331074236
1772045306232871200,4.78087109375,-1.2901041079461575,-0.4506359818100929,-2.05726979893744
1772045306242857200,4.790857177734375,-1.3813362844884394,-0.5863412140682339,-2.114548852473497
1772045306252843300,4.80084326171875,-1.5028211220838128,-0.6491872540816664,-2.1116946320861576
1772045306262828000,4.810828125,-1.643833813100308,-0.6513640135988593,-2.021692874121666
1772045306272814000,4.82081396484375,-1.7715956851385533,-0.5902472815960645,-1.8585235886156557
1772045306282800000,4.830800048828125,-1.915281979278475,-0.4975459092840552,-1.6377321352243424
1772045306292785200,4.84078515625,-2.0688496159635483,-0.463159363296628,-1.411382463183999
1772045306302771200,4.850771240234375,-2.18265865823403,-0.3738952719569206,-1.2248399008750914
1772045306312757000,4.860757080078125,-2.2375113614059985,-0.3199842335492372,-1.0380296275407075
1772045306322742300,4.8707421875,-2.294088404152542,-0.247148714441061,-0.9126362381994724
1772045306332728000,4.88072802734375,-2.369163226620108,-0.23254501954913137,-0.7618202383100986
1772045306342714000,4.890714111328125,-2.407188421370834,-0.26518063021600247,-0.6315776553720236
1772045306352700000,4.900699951171875,-2.4188217221498487,-0.34491584571003914,-0.4906336456775665
1772045306362685200,4.910685302734375,-2.4446609506748613,-0.4973065475702286,-0.3805558988898992
1772045306372671200,4.920671142578125,-2.513390349638462,-0.6316437063455581,-0.3134317431658506
1772045306382657000,4.930656982421875,-2.5283447576642035,-0.7578355525881052,-0.2640110019147396
1772045306392642000,4.94064208984375,-2.4908137761712075,-0.8856365875929594,-0.2355418632775545
1772045306402628000,4.950628173828125,-2.466043199791014,-1.0190829350084065,-0.26046120047867294
1772045306412614100,4.9606142578125,-2.403987871763855,-1.224445348599553,-0.33327626132071014
1772045306422599200,4.97059912109375,-2.2420963511087,-1.4357564414620398,-0.5386626403093338
1772045306432585000,4.9805849609375,-2.1273687326885757,-1.5403770918875932,-0.9359159915000199
1772045306442571300,4.9905712890625,-2.1032548666514455,-1.659931692072749,-1.261551382678747
1772045306452556000,5.00055615234375,-2.0782573496475814,-1.8112106332987545,-1.495606222268939
1772045306462542000,5.0105419921875,-2.0367662323519586,-1.913486766424775,-1.7409505176365374
1772045306472528100,5.020528076171875,-1.9727825666107237,-2.0395418345451355,-2.0247037463754416
1772045306482514200,5.03051416015625,-1.883961688993871,-2.211607543212175,-2.343389172285795
1772045306492499200,5.040499267578125,-1.8099673552393911,-2.4579461103141305,-2.626870598345995
1772045306502485000,5.050485107421875,-1.7118110785223544,-2.7401602929174897,-2.8789024086534973
1772045306512471300,5.06047119140625,-1.596466204986721,-2.996052285784483,-3.11200506208539
1772045306522456000,5.0704560546875,-1.4743407314002512,-3.196312407800555,-3.278394478681683
1772045306532442000,5.080442138671875,-1.3342147600904106,-3.344753495252132,-3.3533728550374504
1772045306542428000,5.090427978515625,-1.1976675240501762,-3.4922429810672995,-3.304163710710406
1772045306552413200,5.1004130859375,-1.068241810452938,-3.585815583255887,-3.148240743070841
1772045306562399200,5.110399169921875,-0.9877025850996375,-3.585297112339735,-2.9213813679426908
1772045306572385000,5.120385009765625,-0.9807819920562207,-3.5918010874062776,-2.646786428171396
1772045306582370000,5.1303701171875,-1.0322107121288775,-3.6156805601656434,-2.4472113658100367
1772045306592356000,5.140356201171875,-1.0373593270637094,-3.5160873825132843,-2.469810735630989
1772045306602342100,5.150342041015625,-1.0107295326828956,-3.229735369452834,-2.6554695008426905
1772045306612327200,5.1603271484375,-0.9895857684977352,-3.0193337926506993,-2.7549077801942823
1772045306622313000,5.17031298828125,-1.0171263941131532,-3.03641644487679,-2.75767198421061
1772045306632299300,5.18029931640625,-1.0177171996131538,-3.154922412791848,-2.8066923279672857
1772045306642284000,5.190283935546875,-0.9608977264128625,-3.2722038073480126,-2.9482471630364655
1772045306652270000,5.20027001953125,-0.8446855685234069,-3.447625840705633,-3.06455942029953
1772045306662256000,5.210256103515625,-0.6540870088219642,-3.715221130847931,-3.095658322918415
1772045306672242200,5.2202421875,-0.3861993116043508,-3.871661400359869,-3.1091935117959975
1772045306682227200,5.230227294921875,-0.1417113408051431,-3.8722546900779005,-3.084080113327503
1772045306692213000,5.240212890625,0.013652093255519866,-3.775883981603384,-2.9996722298473117
1772045306702199300,5.25019921875,0.07874108989015222,-3.5710283484905956,-2.8655601119995118
1772045306712184000,5.26018408203125,0.10038564320430159,-3.333852162009477,-2.707026669600606
1772045306722170000,5.270170166015625,0.08399009645953774,-3.067625237610936,-2.60177707362175
1772045306732156200,5.28015625,0.016012392646074295,-2.84008664804697,-2.637664379560947
1772045306742141000,5.290140869140625,-0.010572831940650939,-2.610816120123863,-2.801845472458005
1772045306752127200,5.300127197265625,0.010922229900211095,-2.340342059674859,-3.07119900444448
1772045306762113000,5.310113037109375,0.04174874531850219,-2.0429022508889436,-3.3644998137295246
1772045306772098000,5.32009814453125,0.1091382739804685,-1.719898961779475,-3.647340603798628
1772045306782084400,5.33008447265625,0.17730170962437986,-1.3643518319398165,-3.943232598620653
1772045306792070100,5.340070068359375,0.2046189017474651,-1.0593319432884454,-4.2105438111245626
1772045306802055200,5.35005517578125,0.13269932844042778,-0.890849938327074,-4.386581930553913
1772045306812041000,5.360041015625,0.05814020041003823,-0.8254834399253129,-4.503910671383142
1772045306822027300,5.37002734375,-0.09145210290327668,-0.854555220630765,-4.5318110702216625
1772045306832012300,5.38001220703125,-0.24333295554518697,-1.0220020373255014,-4.454347891312837
1772045306841998000,5.389998046875,-0.39640871706008907,-1.1322890429496764,-4.280507574188709
1772045306851984100,5.399984130859375,-0.5619837485335767,-1.1856342641681432,-3.8359471129000187
1772045306861969000,5.409968994140625,-0.7784335194587707,-1.2333522931545973,-3.221073924091458
1772045306871955200,5.419955078125,-0.9842704186938702,-1.1737380746692418,-2.5508956121683117
1772045306881941000,5.42994091796875,-1.1544998518444598,-1.0686141508966684,-1.8882658159285783
1772045306891927000,5.439927001953125,-1.230063188481331,-0.9899532866358757,-1.1878028403788805
1772045306901912300,5.449912353515625,-1.2210686387080698,-0.8950988279432058,-0.5435036505997181
1772045306911898000,5.459898193359375,-1.1623230928160249,-0.7897136228859424,-0.02718669761121273
1772045306921884200,5.46988427734375,-1.0988682732544839,-0.6805161660641431,0.37974049085378647
1772045306931869000,5.479868896484375,-1.0677461358904838,-0.5789104795455933,0.6753811412632464
1772045306941855200,5.489855224609375,-1.039130209193751,-0.4494356661096215,0.8505366326391697
1772045306951841000,5.499841064453125,-0.9683681353587656,-0.32174978191703557,1.0651128647774457
1772045306961826000,5.509825927734375,-0.8486567371767014,-0.17180588868707417,1.3024281674683094
1772045306971812000,5.51981201171875,-0.7343710173051804,-0.03375467782467603,1.4819003529995678
1772045306981798100,5.529798095703125,-0.6677752693694085,0.05016776022613048,1.5557564473271368
1772045306991783200,5.539783203125,-0.5773744290847331,0.0855856950879097,1.5457231290906668
1772045307001769000,5.54976904296875,-0.5197931777317076,0.150479899802804,1.5087018506854772
1772045307011755300,5.55975537109375,-0.44890583354923874,0.25943770264983174,1.4391834933012724
1772045307021740300,5.569740234375,-0.3299380933413282,0.33766163679808375,1.3003151208370922
1772045307031726000,5.57972607421875,-0.20490531747341154,0.38967239454239605,1.0691606788635253
1772045307041712000,5.589712158203125,-0.07650814320631324,0.44564182678461073,0.7647755809843539
1772045307051697000,5.59969677734375,-0.017916691897436974,0.5224839511856436,0.5300368507832288
1772045307061683200,5.60968310546875,-0.09518705164790153,0.5643742969319224,0.39584932961165903
1772045307071669000,5.6196689453125,-0.2152630453586578,0.5486515348821878,0.3117196785509586
1772045307081654000,5.629654052734375,-0.2890625141281634,0.5491773123219609,0.1966208887308836
1772045307091640000,5.63964013671875,-0.34151159022450445,0.5808081298604607,0.032925533524155615
1772045307101626000,5.649626220703125,-0.39319041260071097,0.6149170279502868,-0.1391343299239874
1772045307111611100,5.659611083984375,-0.423077016820386,0.6659861209303141,-0.27610359076857566
1772045307121597000,5.669596923828125,-0.45712885096073147,0.7830766690894961,-0.3249982623189688
1772045307131583200,5.679583251953125,-0.4885469025313854,0.9091542413026094,-0.2853986578583717
1772045307141569000,5.689569091796875,-0.501872759507224,1.0409282715916632,-0.20266309150457382
1772045307151554000,5.699553955078125,-0.5301964252591133,1.1756211119368671,-0.07605506567656993
1772045307161540000,5.7095400390625,-0.5648715058643371,1.3118597204193472,0.08800035501420497
1772045307171526100,5.719526123046875,-0.6620096915800124,1.3966460818231106,0.2344301026433706
1772045307181511200,5.72951123046875,-0.7393453716516495,1.4299591533601284,0.3808189337402582
1772045307191497000,5.7394970703125,-0.7845571169055998,1.4465616208538412,0.5670937850236892
1772045307201483000,5.74948291015625,-0.8094155176997184,1.4436960022896528,0.728622317585349
1772045307211468300,5.75946826171875,-0.8188064463794231,1.4603908242419361,0.8078507526010275
1772045307221454000,5.7694541015625,-0.8022679840326309,1.5421686514794826,0.8383125263601541
1772045307231440100,5.779440185546875,-0.7516659240424632,1.6455623904585837,0.9154366825729608
1772045307241425200,5.789425048828125,-0.643044148216769,1.794305675727129,1.0131810174882412
1772045307251411200,5.7994111328125,-0.4808768793601542,1.9584476056575775,1.1573282071381807
1772045307261397200,5.809397216796875,-0.3360533248186111,2.0885145397678015,1.292827979952097
1772045307271383000,5.819383056640625,-0.18765490746498106,2.1693238142341373,1.3543278660535811
1772045307281368000,5.8293681640625,-0.05376899958848953,2.239471701693535,1.3980208773076535
1772045307291354000,5.83935400390625,0.09227730168104172,2.280390864320099,1.4283207385033367
1772045307301340200,5.849340087890625,0.22720365852117538,2.343555761024356,1.3277099082410335
1772045307311325200,5.8593251953125,0.38883674743585284,2.5643314323246478,1.0671130986839532
1772045307321311000,5.86931103515625,0.5358767359178513,2.7797251183256506,0.8493564829438924
1772045307331297300,5.87929736328125,0.6245849469404667,2.8349367179378864,0.7230465632796287
1772045307341282000,5.889281982421875,0.6230885709028691,2.823128791244328,0.6919488297045231
1772045307351268000,5.89926806640625,0.5666041018106043,2.7587714698851107,0.7140723987072706
1772045307361254100,5.909254150390625,0.48653841225318606,2.7110049255818125,0.7383616213113069
1772045307371239200,5.9192392578125,0.37628472437672317,2.627524970601499,0.7938169665515422
1772045307381225200,5.92922509765625,0.2735221959732473,2.4877678326040504,0.8683259718298911
1772045307391211000,5.9392109375,0.14862864591293037,2.241881100922823,0.9476496839135885
1772045307401196000,5.949196044921875,0.009008505233377219,1.8941057741284368,0.9571277063548564
1772045307411182000,5.95918212890625,-0.11202961150780319,1.5260682882890104,0.8332569965362548
1772045307421168000,5.969168212890625,-0.20574249894991517,1.1075997151121497,0.6725824504554271
1772045307431153200,5.979153076171875,-0.3231752116102725,0.6458692155748605,0.5973533142089843
1772045307441139200,5.98913916015625,-0.44709619031138714,0.20124562592208384,0.5786679029613733
1772045307451125200,5.999125244140625,-0.5473300039548427,-0.19633593430966137,0.5111959567129611
1772045307461110000,6.009110107421875,-0.6229169406630098,-0.5235673625081777,0.4040548478990793
1772045307471096000,6.019095947265625,-0.6578759527761489,-0.796249454395473,0.27690497027933597
1772045307481082000,6.02908203125,-0.6526794801115989,-0.9896294615089892,0.09662848262786865
1772045307491067100,6.039067138671875,-0.6444318031828851,-1.0720850418776273,-0.11083353359103203
1772045307501053200,6.04905322265625,-0.6585481529492885,-1.1298860734611749,-0.31951486247181893
1772045307511039000,6.0590390625,-0.6640156976401805,-1.1384098639175295,-0.45547056235969063
1772045307521024300,6.069024169921875,-0.6371311247806996,-1.0820543549671768,-0.5318991375237703
1772045307531010000,6.079010009765625,-0.59608614381738,-0.9786854581683874,-0.5506073451250791
1772045307540996000,6.08899609375,-0.5227590417999773,-0.8502733055278658,-0.5422334845334291
1772045307550981000,6.098981201171875,-0.4230489597696811,-0.7156579143330455,-0.4477987125575542
1772045307560967200,6.10896728515625,-0.3253354583840817,-0.5912430146351456,-0.30554420478641986
1772045307570953200,6.118953125,-0.2818202148497104,-0.45835196301490067,-0.1595423271805048
1772045307580938000,6.12893798828125,-0.25714060468859967,-0.35340193450450896,-0.0185480486035347
1772045307590924000,6.138924072265625,-0.23839038457646963,-0.2567863113582134,0.07279109544456004
1772045307600910000,6.14891015625,-0.27681794958300887,-0.16319383542537688,0.1811620383143425
1772045307610895000,6.15889501953125,-0.34035306783914565,-0.06950725146830082,0.34090894815623757
1772045307620881200,6.168881103515625,-0.41501631383113563,-0.05448971507847309,0.4841501288771629
1772045307630867000,6.178866943359375,-0.45846389895677564,-0.08691694369167088,0.5417290421426296
1772045307640852200,6.188852294921875,-0.4488309051495045,-0.2022317143499851,0.5102659823864698
1772045307650838000,6.198838134765625,-0.40890813314914704,-0.3846925603032112,0.43450083956718444
1772045307660824000,6.208823974609375,-0.3467372889835387,-0.5688146174669265,0.35344518912434575
1772045307670809000,6.21880908203125,-0.2778665818531066,-0.699735245797038,0.2428051322788
1772045307680795100,6.228795166015625,-0.23837496781162917,-0.8182958665087818,0.13962357474565504
1772045307690781200,6.23878125,-0.22957915548086166,-0.9402636653155088,0.0975409212976694
1772045307700766200,6.24876611328125,-0.25610600094385444,-1.0115955018624663,0.1508148308455944
1772045307710752000,6.258751953125,-0.299337166839838,-1.061542897336185,0.19277882634997368
1772045307720738000,6.268738037109375,-0.33389877713322635,-1.1525769209578633,0.20518413441479205
1772045307730724000,6.27872412109375,-0.3522727843441069,-1.2211074363484977,0.17139058588445186
1772045307740709000,6.288709228515625,-0.3216051127493381,-1.2344795436188578,0.10794833354353904
1772045307750695200,6.298695068359375,-0.2545686353087425,-1.2000035657823085,0.026671733826398848
1772045307760681200,6.30868115234375,-0.16005261479020116,-1.1795485145136713,-0.0595651186466217
1772045307770666200,6.318666259765625,-0.0968704746901989,-1.1589409030318258,-0.1270341422855854
1772045307780652000,6.328652099609375,-0.048041854113340374,-1.1710589185878635,-0.20351707798540591
1772045307790638300,6.338638427734375,-0.019680925090983507,-1.2476841853678227,-0.25993922243118284
1772045307800623000,6.348623046875,-0.002916837294772267,-1.3522916840508579,-0.31550796491801736
1772045307810609200,6.358609130859375,-0.0029203444261103866,-1.4639052621036768,-0.33908640890419484
1772045307820595000,6.368594970703125,0.039726372645422815,-1.5750000769793986,-0.356231020450592
1772045307830580000,6.378580078125,0.09881576353907584,-1.6336340522557495,-0.4035194258481264
1772045307840565800,6.388565673828125,0.12471242133975029,-1.686660709044337,-0.47367023591697216
1772045307850551600,6.398551513671875,0.10823949850983917,-1.7768050903499126,-0.5280792869746684
1772045307860536600,6.40853662109375,0.08783376627564429,-1.8485668427467346,-0.5789397056400776
1772045307870522600,6.418522705078125,0.08289112224169075,-1.830721389454603,-0.6553554213225841
1772045307880508700,6.4285087890625,0.06239537363648414,-1.7188924150854348,-0.7772142067968845
1772045307890493700,6.43849365234375,0.03134564392156899,-1.566364350581169,-0.919451763433218
1772045307900479700,6.448479736328125,-0.026353680853173134,-1.399319684946537,-1.0485317323327064
1772045307910465800,6.4584658203125,-0.11247370201349258,-1.2609645227015018,-1.1615478706598281
1772045307920450600,6.468450439453125,-0.20697459802813828,-1.2248206116527318,-1.305185357221961
1772045307930436600,6.4784365234375,-0.2507926239013672,-1.2470260137200355,-1.4838468108922243
1772045307940422700,6.488422607421875,-0.2408358049672097,-1.3570961617231367,-1.6958002933114766
1772045307950407700,6.49840771484375,-0.18431144225597382,-1.5548673895329237,-1.938143653297424
1772045307960393700,6.508393798828125,-0.09199797328300774,-1.7630922068178652,-2.1882103010118006
1772045307970379500,6.518379638671875,0.06380166023783386,-1.7747008115470408,-2.5551392410874367
1772045307980364800,6.52836474609375,0.15440956740193068,-1.5158534760057925,-3.018948592725396
1772045307990350800,6.538350830078125,0.17146942327432332,-1.2896633784413336,-3.4135756870657206
1772045308000336600,6.548336669921875,0.12455803449563681,-1.1208733304440974,-3.7742011430829763
1772045308010321700,6.55832177734375,0.016213395110890268,-0.9693319388896227,-4.1173558243393895
1772045308020307700,6.5683076171875,-0.14341259176507593,-0.9377373617082834,-4.391388454052805
1772045308030293800,6.578293701171875,-0.3126561556834727,-1.033319550153613,-4.554446095877886
1772045308040278800,6.58827880859375,-0.45520942720547314,-1.2053817516893148,-4.620295993882418
1772045308050264600,6.5982646484375,-0.5633890852868557,-1.4263409628629684,-4.591621103540063
1772045308060251000,6.6082509765625,-0.6373297891579568,-1.7584505184918642,-4.433537742996216
1772045308070235600,6.618235595703125,-0.6341745399974286,-2.0590829858392476,-4.157506632941961
1772045308080221700,6.6282216796875,-0.6075064594328403,-2.353008649024367,-3.7301375449508427
1772045308090207500,6.63820751953125,-0.5619312876939774,-2.5249112760841843,-3.1870401370644568
1772045308100192800,6.64819287109375,-0.52306423529163,-2.537426474264264,-2.6314661094427105
1772045308110178800,6.6581787109375,-0.5383435644228011,-2.3902760111451147,-2.1009084496557713
1772045308120164600,6.66816455078125,-0.6198821030117571,-2.162629285031557,-1.6370096661686897
1772045308130149600,6.678149658203125,-0.7606945222157985,-1.8522300414294004,-1.266204761442542
1772045308140135700,6.6881357421875,-0.8925439558286219,-1.4542173963040113,-0.9715379245012998
1772045308150121700,6.698121826171875,-1.0490554639458656,-1.0518979938954114,-0.7851333093583583
1772045308160106800,6.708106689453125,-1.262752867422998,-0.7038643084257841,-0.7550304320394993
1772045308170092500,6.718092529296875,-1.5009795858703552,-0.3729574065849185,-0.8544242877274751
1772045308180078800,6.728078857421875,-1.752370906317234,-0.08413082010447978,-1.0276567020863294
1772045308190063600,6.738063720703125,-2.0293900044955313,0.08078969298303126,-1.2127747845500707
1772045308200049700,6.748049560546875,-2.301269986219704,0.18633067312389612,-1.4801204838454722
1772045308210035700,6.75803564453125,-2.6784944025993345,0.242810685236752,-1.764804855954647
1772045308220020700,6.768020751953125,-3.1162077744722363,0.31969401843100786,-2.0078116482853887
1772045308230006800,6.7780068359375,-3.6945559439599513,0.3226633896306157,-2.118687851974368
1772045308239992600,6.78799267578125,-4.206808716249466,0.3608794307783246,-2.2910861535966394
1772045308249977600,6.7979775390625,-4.328375240778922,0.37983898279219863,-2.684707870286703
1772045308259963600,6.807963623046875,-4.089814321941137,0.28470950655043126,-3.1817215723901984
1772045308269949700,6.81794970703125,-3.764412154996395,0.16059680466949938,-3.567441137653589
1772045308279934700,6.827934814453125,-3.4334102683484553,0.09710252988040446,-3.676018416750431
1772045308289920800,6.837920654296875,-3.2094530444025993,0.20521657537966964,-3.6786861746549606
1772045308299906800,6.84790673828125,-3.1718226941883563,0.42491526509821415,-3.645736675733328
1772045308309891600,6.8578916015625,-3.3628736738324165,0.7044461999669671,-3.5084535266339776
1772045308319877600,6.867877685546875,-3.642150049418211,0.97108053612262,-3.3345939202874897
1772045308329862700,6.877862548828125,-3.8424353058755396,1.1428683046311139,-3.189675161743164
1772045308339848700,6.8878486328125,-3.863476924860477,1.2820654706582426,-3.2133383614033457
1772045308349834800,6.897834716796875,-3.8097956035554406,1.4157809904038905,-3.4021459460347887
1772045308359820500,6.907820556640625,-3.913013985967636,1.600020536467433,-3.594095920345187
1772045308369805600,6.9178056640625,-4.166687718263268,1.7196292049273847,-3.750513978025317
1772045308379791600,6.92779150390625,-4.437106249132752,1.737497454573214,-3.931165728729963
1772045308389776600,6.937776611328125,-4.538614905017614,1.7697544411860406,-4.018330217441917
1772045308399762700,6.9477626953125,-4.394570591220259,1.8714922296516596,-4.099137446081638
1772045308409748700,6.957748779296875,-4.169927723097801,2.1200524183258413,-4.133886687901616
1772045308419733800,6.967733642578125,-4.119449581748247,2.3746587552964686,-3.8612943201243874
1772045308429719800,6.9777197265625,-4.2150083893179895,2.6813725883841513,-3.539566457778215
1772045308439705600,6.98770556640625,-4.309848234963416,3.0455741493225097,-3.2328099545925855
1772045308449690600,6.997690673828125,-4.6474113798230885,3.5165386334121225,-3.1885669082403183
1772045308459676700,7.0076767578125,-4.660947153222561,3.686335228103399,-3.0163106454372404
1772045308469662700,7.017662841796875,-4.526754955875873,3.8055253788903354,-2.671199569416046
1772045308479647700,7.027647705078125,-4.2447734129846095,4.010489148552716,-2.488661566573381
1772045308489633800,7.0376337890625,-3.6206226927429435,4.233310646466911,-2.2504759107887744
1772045308499619800,7.047619873046875,-2.7184400440186263,4.482987418080866,-1.6989117033302783
1772045308509604600,7.0576044921875,-1.7499568309128284,4.5685602536872025,-1.0757120002031326
1772045308519590700,7.067590576171875,-0.7733540242373943,4.6290410258740184,-0.4829126960366964
1772045308529576700,7.07757666015625,-0.05537351217567921,4.68907376203239,-0.03647475043833256
1772045308539561700,7.087561767578125,0.40338147868216034,4.790404431001842,0.37160160806179043
1772045308549547800,7.0975478515625,0.5085854819536209,4.9094531274914734,0.6133429105013608
1772045308559533600,7.107533447265625,0.3127227181136608,4.839646308554709,0.4263455901622772
1772045308569518800,7.117518798828125,0.11193594187498092,4.795437456732988,0.023049451676011082
1772045308579504600,7.127504638671875,0.1315174251794815,4.7670343690693375,-0.3390560137659311
1772045308589490700,7.13749072265625,0.3867056536912918,4.61759521049112,-0.5637643483400344
1772045308599475700,7.147475830078125,0.7986036163061857,4.197995295196772,-0.3763011640548706
1772045308609461800,7.157461669921875,1.2579764468014238,3.7563673802286384,-0.08957564150691032
1772045308619447800,7.16744775390625,1.79247612221241,3.7787867173075673,-0.16725450899302957
1772045308629432600,7.1774326171875,2.3670646469056607,3.7304435421600934,-0.012030337272584438
1772045308639418600,7.187418701171875,2.4993244148850438,3.930738735489547,0.4433294581890106
1772045308649404700,7.19740478515625,2.6642151173561808,3.803806300012767,0.3949953431308269
1772045308659389700,7.2073896484375,2.533593764233589,3.405497010028362,0.1199362929791212
1772045308669375700,7.217375732421875,2.553234284248948,2.9706770215094087,0.007236673255264759
1772045308679361500,7.227361572265625,2.6220775188505647,2.4816110635399817,-0.0945084217339754
1772045308689346800,7.237346923828125,2.699557064372301,1.9881407331317662,-0.30377953320145606
1772045308699332600,7.24733251953125,2.713835765093565,1.7050918532699346,-0.803010034571588
1772045308709318700,7.257318603515625,2.5389807179689408,1.6754215221494435,-1.3219773559384047
1772045308719303700,7.2673037109375,2.334827095645666,1.8547081219807267,-1.5413113039977848
1772045308729289700,7.277289794921875,2.1564532267451284,2.1884286199375986,-1.5561252806395292
1772045308739275800,7.28727587890625,2.0733166783750057,2.523551093646884,-1.479049493613094
1772045308749260500,7.297260498046875,2.1527058569103477,2.79442175219804,-1.336548025343567
1772045308759246600,7.30724658203125,2.3259435319662094,2.9680834978848694,-1.099478294911608
1772045308769232600,7.317232666015625,2.562565007174015,3.0595974139779805,-0.9075700408510863
1772045308779217700,7.3272177734375,2.7621494218856095,3.042538434888422,-0.681676442015171
1772045308789203700,7.33720361328125,2.8367776696294547,2.931405626089871,-0.4733094763131812
1772045308799189800,7.347189697265625,2.8131249913632868,2.7592300273075696,-0.3644945890681818
1772045308809174800,7.3571748046875,2.703627674812078,2.581313839046657,-0.41505299257971345
1772045308819160600,7.36716064453125,2.5612130080431696,2.4165701438307763,-0.5951120746208355
1772045308829146600,7.377146728515625,2.3826211124777794,2.2074875406727195,-0.7587241719909011
1772045308839132000,7.3871318359375,2.220455451056361,1.9587524338230489,-1.0377128897417336
1772045308849117700,7.39711767578125,2.2139263415485617,1.8307491542443632,-1.440112590844929
1772045308859104000,7.40710400390625,2.3864012155383825,1.906125297746062,-1.6228950699679552
1772045308869088800,7.4170888671875,2.5970459534466266,1.9524013112306593,-1.4545296771235763
1772045308879074800,7.42707470703125,2.7341818030297755,1.8617162471771238,-1.0968215698577464
1772045308889060600,7.437060546875,2.7729771053701637,1.7057807123169302,-0.7659825456213205
1772045308899045600,7.447045654296875,2.743546428224444,1.5098635879412292,-0.5523234283279628
1772045308909032000,7.457031982421875,2.725094825732708,1.3484376389712094,-0.5204914987267926
1772045308919017000,7.467016845703125,2.8365187264323235,1.2211208803519606,-0.5865474772300571
1772045308929002800,7.477002685546875,3.041968233785033,1.090816045832634,-0.5862984343724325
1772045308938988800,7.48698876953125,3.0994413485884666,0.8988894523978233,-0.4180314238686114
1772045308948973800,7.496973876953125,2.9394758275598285,0.726332160821557,-0.24082902816655113
1772045308958959900,7.5069599609375,2.719339623206854,0.7539242243632673,-0.20847934003528207
1772045308968945700,7.516945556640625,2.3421090693473814,0.7118675821393727,-0.14296419041045008
1772045308978930700,7.5269306640625,1.9324235220849513,0.5532587364166974,0.006775668147392571
1772045308988917000,7.5369169921875,1.694650538754463,0.46806788586527104,-0.017216544271446765
1772045308998902800,7.54690283203125,1.5440759464055298,0.38066345091760156,-0.04958060798794031
1772045309008887800,7.5568876953125,1.4808487981200218,0.3713873807892203,-0.04739767445828765
1772045309018873900,7.566873779296875,1.335814304241538,0.3739306355312466,0.17687073432859032
1772045309028860000,7.57685986328125,1.0721002394467591,0.43380759660601614,0.3289743263430893
1772045309038845000,7.586844970703125,0.6548544860631227,0.4273702570348978,0.30897969566043465
1772045309048830700,7.596830810546875,0.26981296619176864,0.35425621324628587,0.18057806441392749
1772045309058817000,7.606817138671875,0.10986673438549041,0.3168967889279127,-0.03765800540614873
1772045309068801800,7.6168017578125,0.04439443752169609,0.22485475730746984,-0.1512285992782563
1772045309078787800,7.626787841796875,0.04833177697062492,0.014022095611691474,-0.1541679406657815
1772045309088773600,7.636773681640625,0.2739677477836609,-0.19117898993790147,-0.3141104826776311
1772045309098759000,7.646759033203125,0.5804454340279102,-0.3205281311675906,-0.5743909197619185
1772045309108745000,7.656744873046875,0.7706886044204234,-0.3892477393895387,-0.6950881506435572
1772045309118730800,7.666730712890625,0.8577923028558492,-0.29874738425314423,-0.6115180331617593
1772045309128715800,7.6767158203125,0.8035551012337208,-0.10004793568253517,-0.4633898841168731
1772045309138701800,7.686701904296875,0.7171060673147439,0.004795125322043896,-0.38968203915357585
1772045309148688000,7.69668798828125,0.6738876878350972,-0.002451484805345535,-0.3830496884670108
1772045309158673000,7.7066728515625,0.5934241580665112,0.015829729555547237,-0.518246898137778
