time,seconds_elapsed,z,y,x
1772045301529610800,0.07761083984375,-0.3009262979030609,-0.32991188764572144,0.6058505177497864
1772045301539596800,0.0875966796875,-0.255691796541214,-0.3661876320838928,0.7331022024154663
1772045301549581800,0.097581787109375,-0.20817968249320984,-0.41204941272735596,0.8298617601394653
1772045301559568000,0.10756787109375,-0.1615610420703888,-0.4715309143066406,0.8573476076126099
1772045301569553000,0.117552978515625,-0.12338462471961975,-0.5172557830810547,0.8281037211418152
1772045301579539000,0.1275390625,-0.09560421109199524,-0.6009716391563416,0.7698454856872559
1772045301589524700,0.137524658203125,-0.06924663484096527,-0.7283689975738525,0.7207834124565125
1772045301599510000,0.147510009765625,-0.02836790308356285,-0.8581822514533997,0.7311592698097229
1772045301609495800,0.157495849609375,0.031072787940502167,-0.9359194040298462,0.814998209476471
1772045301619481900,0.16748193359375,0.09560103714466095,-1.009920358657837,0.9352161884307861
1772045301629467000,0.177466796875,0.1428564339876175,-1.1141161918640137,1.0611072778701782
1772045301639453000,0.187452880859375,0.16871263086795807,-1.2309361696243286,1.1629151105880737
1772045301649439000,0.19743896484375,0.1817900836467743,-1.306462049484253,1.194210410118103
1772045301659423700,0.207423828125,0.18256913125514984,-1.3794859647750854,1.1666791439056396
1772045301669409800,0.217409912109375,0.1705729216337204,-1.4520461559295654,1.1058893203735352
1772045301679395800,0.227395751953125,0.16870704293251038,-1.512447476387024,1.0564137697219849
1772045301689380900,0.237380859375,0.1822630614042282,-1.5301036834716797,1.0302180051803589
1772045301699367000,0.247366943359375,0.23133134841918945,-1.5098978281021118,1.0309462547302246
1772045301709353000,0.25735302734375,0.24801844358444214,-1.4579195976257324,1.044148325920105
1772045301719338000,0.267337890625,0.21490123867988586,-1.4137132167816162,1.0689359903335571
1772045301729323800,0.27732373046875,0.17593947052955627,-1.4801766872406006,1.0185465812683105
1772045301739308800,0.287308837890625,0.1903914511203766,-1.6846959590911865,0.8952199816703796
1772045301749294800,0.297294921875,0.14407268166542053,-1.7009979486465454,0.7191972732543945
1772045301759281000,0.307281005859375,0.055827412754297256,-1.6002321243286133,0.6137462854385376
1772045301769266000,0.317265869140625,0.0004152907058596611,-1.6064690351486206,0.5628737807273865
1772045301779251700,0.327251708984375,0.046130966395139694,-1.836057186126709,0.5607554316520691
1772045301789238000,0.337238037109375,0.1861594319343567,-2.187250852584839,0.6078651547431946
1772045301799223000,0.34722314453125,0.375642865896225,-2.503201723098755,0.6715368032455444
1772045301809208800,0.357208740234375,0.5613352060317993,-2.654223680496216,0.660297691822052
1772045301819195000,0.36719482421875,0.6812984943389893,-2.5988731384277344,0.5211824178695679
1772045301829179600,0.3771796875,0.717988133430481,-2.3449742794036865,0.3644162118434906
1772045301839166500,0.38716650390625,0.6968759894371033,-2.056711435317993,0.23843832314014435
1772045301849152300,0.39715234375,0.6572257876396179,-1.9300217628479004,0.18549920618534088
1772045301859137500,0.407137451171875,0.6380781531333923,-1.9579063653945923,0.23354008793830872
1772045301869123600,0.41712353515625,0.6224938631057739,-2.0404558181762695,0.3633955717086792
1772045301879109400,0.427109375,0.6152327060699463,-2.140275716781616,0.5016008019447327
1772045301889094400,0.437094482421875,0.6763250827789307,-2.2008919715881348,0.5866435766220093
1772045301899080400,0.44708056640625,0.8013487458229065,-2.125239610671997,0.5779474377632141
1772045301909065500,0.4570654296875,0.9324178099632263,-1.9712883234024048,0.4888612627983093
1772045301919051500,0.467051513671875,1.0367857217788696,-1.7912788391113281,0.36323094367980957
1772045301929037300,0.477037353515625,1.1506619453430176,-1.5888464450836182,0.23162393271923065
1772045301939022600,0.487022705078125,1.282792091369629,-1.5052748918533325,0.11988639086484909
1772045301949008400,0.49700830078125,1.4412314891815186,-1.5867700576782227,0.03990846872329712
1772045301958994400,0.506994384765625,1.6266677379608154,-1.817867636680603,-0.02108408696949482
1772045301968979500,0.5169794921875,1.8295468091964722,-2.2392523288726807,-0.06615036725997925
1772045301978965500,0.526965576171875,1.996116042137146,-2.596357583999634,-0.13180536031723022
1772045301988951600,0.53695166015625,2.1213176250457764,-2.814646005630493,-0.25847622752189636
1772045301998936300,0.546936279296875,2.1681151390075684,-2.846529245376587,-0.46572113037109375
1772045302008922400,0.55692236328125,2.133676528930664,-2.7421417236328125,-0.699866771697998
1772045302018908400,0.566908447265625,2.0825681686401367,-2.576681613922119,-0.8751159906387329
1772045302028893400,0.5768935546875,2.0237843990325928,-2.4081273078918457,-0.9338735342025757
1772045302038879500,0.58687939453125,1.933588981628418,-2.3194022178649902,-0.8644464015960693
1772045302048865500,0.596865478515625,1.8280998468399048,-2.3585448265075684,-0.6915467977523804
1772045302058850600,0.6068505859375,1.7149091958999634,-2.4149622917175293,-0.4415867328643799
1772045302068836400,0.61683642578125,1.578660249710083,-2.369002103805542,-0.1824829876422882
1772045302078821400,0.6268212890625,1.4304195642471313,-2.236804246902466,0.01634889468550682
1772045302088807400,0.636807373046875,1.3006412982940674,-2.062910795211792,0.12172165513038635
1772045302098793500,0.64679345703125,1.2018964290618896,-1.9699712991714478,0.12700706720352173
1772045302108778500,0.656778564453125,1.1393553018569946,-1.9619793891906738,0.10308336466550827
1772045302118764300,0.666764404296875,1.144692063331604,-2.0317394733428955,0.097689688205719
1772045302128750300,0.676750244140625,1.2161916494369507,-2.220193386077881,0.12982524931430817
1772045302138735600,0.686735595703125,1.3520313501358032,-2.494579315185547,0.20695549249649048
1772045302148721400,0.696721435546875,1.5386953353881836,-2.648226261138916,0.266917884349823
1772045302158707500,0.70670751953125,1.7411479949951172,-2.597623109817505,0.265356183052063
1772045302168692200,0.716692138671875,1.9051952362060547,-2.4264023303985596,0.20082859694957733
1772045302178678500,0.726678466796875,2.0344021320343018,-2.239392042160034,0.11396817117929459
1772045302188664300,0.736664306640625,2.1444694995880127,-2.1052186489105225,0.025097157806158066
1772045302198649300,0.7466494140625,2.2500922679901123,-2.032042980194092,-0.047723639756441116
1772045302208635400,0.756635498046875,2.347687005996704,-2.0315017700195312,-0.09319764375686646
1772045302218620400,0.766620361328125,2.448732376098633,-2.113767147064209,-0.10756277292966843
1772045302228606500,0.7766064453125,2.5768234729766846,-2.2439188957214355,-0.10238292813301086
1772045302238592500,0.786592529296875,2.736271381378174,-2.3373448848724365,-0.10475733876228333
1772045302248577300,0.796577392578125,2.90555739402771,-2.328683376312256,-0.13399112224578857
1772045302258563600,0.8065634765625,3.094484567642212,-2.222336769104004,-0.19420433044433594
1772045302268549400,0.81654931640625,3.292623519897461,-2.0335938930511475,-0.26639169454574585
1772045302278534400,0.826534423828125,3.4552199840545654,-1.748337984085083,-0.34078317880630493
1772045302288520400,0.8365205078125,3.5536949634552,-1.4019688367843628,-0.419525682926178
1772045302298506500,0.846506591796875,3.5543298721313477,-1.0388507843017578,-0.5096874237060547
1772045302308491500,0.856491455078125,3.4420602321624756,-0.6910514831542969,-0.6145262718200684
1772045302318477300,0.866477294921875,3.246177911758423,-0.38304585218429565,-0.7163063287734985
1772045302328463600,0.876463623046875,3.010075807571411,-0.15127310156822205,-0.8037062287330627
1772045302338448600,0.88644873046875,2.764899253845215,-0.020792845636606216,-0.8364661931991577
1772045302348434400,0.896434326171875,2.5583128929138184,-0.0017917242366820574,-0.8060348033905029
1772045302358420500,0.90642041015625,2.3966848850250244,-0.062247809022665024,-0.7102706432342529
1772045302368405200,0.9164052734375,2.228621482849121,-0.16384980082511902,-0.5623219609260559
1772045302378391600,0.9263916015625,2.021021604537964,-0.2271563708782196,-0.38961082696914673
1772045302388377300,0.93637744140625,1.7692755460739136,-0.24796605110168457,-0.23899658024311066
1772045302398362400,0.9463623046875,1.463942289352417,-0.19018566608428955,-0.12813732028007507
1772045302408348700,0.9563486328125,1.117709994316101,-0.055519189685583115,-0.061054155230522156
1772045302418334500,0.96633447265625,0.7502865195274353,0.1490572839975357,-0.03250901773571968
1772045302428319500,0.976319580078125,0.4082292914390564,0.3814902603626251,-0.028800565749406815
1772045302438305300,0.98630517578125,0.159253790974617,0.5878118276596069,-0.03999980166554451
1772045302448291600,0.99629150390625,0.0053049735724925995,0.7595788240432739,-0.06515336036682129
1772045302458276600,1.006276611328125,-0.06519095599651337,0.8785627484321594,-0.09080725163221359
1772045302468262400,1.016262451171875,-0.05908246338367462,0.9475266337394714,-0.1246858537197113
1772045302478248400,1.02624853515625,-0.013330107554793358,0.9485925436019897,-0.16950850188732147
1772045302488233200,1.036233154296875,0.05860426649451256,0.9229856729507446,-0.21745525300502777
1772045302498219500,1.046219482421875,0.13005337119102478,0.8672027587890625,-0.2597496807575226
1772045302508204500,1.05620458984375,0.186990424990654,0.798200786113739,-0.28617703914642334
1772045302518190300,1.0661904296875,0.21213005483150482,0.741183340549469,-0.29049745202064514
1772045302528176600,1.0761767578125,0.21956028044223785,0.6934504508972168,-0.28291890025138855
1772045302538161400,1.086161376953125,0.21471048891544342,0.6462831497192383,-0.2582903206348419
1772045302548147500,1.0961474609375,0.19837865233421326,0.5988011360168457,-0.21715141832828522
1772045302558133200,1.10613330078125,0.17267157137393951,0.5833856463432312,-0.1584174633026123
1772045302568118300,1.1161181640625,0.14953748881816864,0.6195846199989319,-0.07405944913625717
1772045302578104600,1.1261044921875,0.15416398644447327,0.6688593029975891,0.014598921872675419
1772045302588090400,1.13609033203125,0.177572101354599,0.6758114695549011,0.07772223651409149
1772045302598075400,1.146075439453125,0.19897595047950745,0.6672933101654053,0.11968054622411728
1772045302608061400,1.1560615234375,0.19713197648525238,0.6520869135856628,0.11030461639165878
1772045302618047500,1.166047607421875,0.16011448204517365,0.6060991883277893,0.03792015463113785
1772045302628032500,1.176032470703125,0.09934566915035248,0.6033771634101868,-0.06206769868731499
1772045302638018300,1.186018310546875,0.048314519226551056,0.6401565074920654,-0.17455528676509857
1772045302648004600,1.196004638671875,0.011564493179321289,0.7167311906814575,-0.2981014549732208
1772045302657989400,1.2059892578125,-0.005161974113434553,0.8436165452003479,-0.4186423122882843
1772045302667975400,1.215975341796875,-0.02284057065844536,0.9872426986694336,-0.5224747061729431
1772045302677961500,1.22596142578125,-0.0565934032201767,1.1210193634033203,-0.5990810990333557
1772045302687946500,1.235946533203125,-0.10021864622831345,1.2228466272354126,-0.6494486331939697
1772045302697932500,1.2459326171875,-0.13505806028842926,1.259353518486023,-0.6664819121360779
1772045302707918300,1.25591845703125,-0.1537071019411087,1.2364749908447266,-0.6544678807258606
1772045302717903400,1.2659033203125,-0.15409083664417267,1.150341510772705,-0.6262698769569397
1772045302727889700,1.2758896484375,-0.14097529649734497,1.0024012327194214,-0.5893161296844482
1772045302737875500,1.28587548828125,-0.14713211357593536,0.8376333713531494,-0.5428561568260193
1772045302747860500,1.295860595703125,-0.15734054148197174,0.6832493543624878,-0.4850913882255554
1772045302757846300,1.30584619140625,-0.16487357020378113,0.5514393448829651,-0.4082472622394562
1772045302767832600,1.31583251953125,-0.17139965295791626,0.44302254915237427,-0.3239063024520874
1772045302777817600,1.325817626953125,-0.16864913702011108,0.3655692934989929,-0.25636106729507446
1772045302787803400,1.335803466796875,-0.13459183275699615,0.30111759901046753,-0.21896867454051971
1772045302797789400,1.34578955078125,-0.03679867088794708,0.2419751137495041,-0.21185900270938873
1772045302807774500,1.3557744140625,0.13643676042556763,0.157608300447464,-0.2347525954246521
1772045302817760500,1.365760498046875,0.3446110486984253,0.06948554515838623,-0.2869771122932434
1772045302827746300,1.375746337890625,0.5133273005485535,0.020959822461009026,-0.35829734802246094
1772045302837731800,1.38573193359375,0.600748598575592,0.03264375403523445,-0.4380659759044647
1772045302847718000,1.3957177734375,0.5938480496406555,0.07408493757247925,-0.5408684611320496
1772045302857703700,1.40570361328125,0.47561347484588623,0.24271412193775177,-0.6591466665267944
1772045302867688700,1.415688720703125,0.3251371383666992,0.518761396408081,-0.8209342360496521
1772045302877674800,1.4256748046875,0.1681918054819107,0.821501612663269,-0.9974125623703003
1772045302887660800,1.435660888671875,0.04875382408499718,1.0984008312225342,-1.1739031076431274
1772045302897645800,1.445645751953125,-0.013594720512628555,1.3450336456298828,-1.338096022605896
1772045302907631600,1.455631591796875,-0.034402795135974884,1.5228488445281982,-1.4777112007141113
1772045302917618000,1.465617919921875,-0.04478544741868973,1.6440398693084717,-1.566429615020752
1772045302927603700,1.475603759765625,-0.06139718368649483,1.7051805257797241,-1.5963491201400757
1772045302937588700,1.485588623046875,-0.076683409512043,1.704553484916687,-1.564326286315918
1772045302947574800,1.49557470703125,-0.07942114025354385,1.69957435131073,-1.5153672695159912
1772045302957560800,1.505560791015625,-0.07401497662067413,1.6920580863952637,-1.4847755432128906
1772045302967545900,1.5155458984375,-0.06718076765537262,1.6393994092941284,-1.4662542343139648
1772045302977531600,1.52553173828125,-0.05335337296128273,1.530430793762207,-1.4487754106521606
1772045302987518000,1.53551806640625,-0.029056821018457413,1.3557426929473877,-1.4249672889709473
1772045302997502700,1.545502685546875,0.015514669008553028,1.1089215278625488,-1.3968937397003174
1772045303007488800,1.55548876953125,0.07884703576564789,0.8212956786155701,-1.3253105878829956
1772045303017474600,1.565474609375,0.13941068947315216,0.5394803881645203,-1.21120285987854
1772045303027459600,1.57545947265625,0.16606681048870087,0.2843932509422302,-1.064004898071289
1772045303037446000,1.58544580078125,0.15150007605552673,0.057553328573703766,-0.9112021327018738
1772045303047431700,1.595431640625,0.09689433872699738,-0.09272565692663193,-0.7673048973083496
1772045303057416700,1.605416748046875,0.007192675955593586,-0.18910813331604004,-0.6502560973167419
1772045303067402800,1.61540283203125,-0.10987669229507446,-0.24491333961486816,-0.555668294429779
1772045303077388800,1.625388916015625,-0.2359735071659088,-0.2696476876735687,-0.49614566564559937
1772045303087373800,1.635373779296875,-0.35204392671585083,-0.2845959961414337,-0.46848368644714355
1772045303097359600,1.645359619140625,-0.46308985352516174,-0.28724977374076843,-0.4435685873031616
1772045303107346000,1.655345947265625,-0.5644697546958923,-0.25074502825737,-0.3971065580844879
1772045303117331700,1.665331787109375,-0.6530262231826782,-0.21257953345775604,-0.3434789180755615
1772045303127316700,1.675316650390625,-0.7249670028686523,-0.17668944597244263,-0.31759992241859436
1772045303137302500,1.685302490234375,-0.770799994468689,-0.11387914419174194,-0.3403743505477905
1772045303147288800,1.695288818359375,-0.8019446134567261,-0.03962035849690437,-0.4141835868358612
1772045303157273900,1.70527392578125,-0.8395071625709534,0.02870090678334236,-0.5318223237991333
1772045303167259600,1.715259765625,-0.8678903579711914,0.10086671262979507,-0.6656607985496521
1772045303177245700,1.72524560546875,-0.8824572563171387,0.1905421018600464,-0.7805741429328918
1772045303187230700,1.735230712890625,-0.8815528750419617,0.299467533826828,-0.8728849291801453
1772045303197216800,1.745216796875,-0.8724283576011658,0.3623674809932709,-0.932768702507019
1772045303207202600,1.75520263671875,-0.8299461603164673,0.37271466851234436,-0.9735574126243591
1772045303217187600,1.7651875,-0.7659875750541687,0.3216007947921753,-0.999905526638031
1772045303227174000,1.775173828125,-0.7000900506973267,0.2349063903093338,-1.012901782989502
1772045303237159700,1.78515966796875,-0.6509335041046143,0.10267838835716248,-1.0187371969223022
1772045303247145700,1.795145751953125,-0.6235532760620117,0.012462736107409,-1.029570460319519
1772045303257130500,1.805130615234375,-0.6359862089157104,-0.03776704519987106,-1.0364022254943848
1772045303267116800,1.81511669921875,-0.6735575795173645,-0.06330595910549164,-1.033480167388916
1772045303277102600,1.8251025390625,-0.7191342115402222,-0.06306454539299011,-1.0133391618728638
1772045303287087600,1.835087646484375,-0.7450363636016846,-0.04107402265071869,-1.0014331340789795
1772045303297074000,1.845073974609375,-0.7388479709625244,-0.02476418949663639,-0.9886792302131653
1772045303307059700,1.855059814453125,-0.7043523192405701,0.0011704715434461832,-0.9780257940292358
1772045303317044700,1.865044677734375,-0.6501824855804443,0.004595062229782343,-0.9684804081916809
1772045303327030800,1.87503076171875,-0.5845925211906433,-0.015930719673633575,-0.9546570181846619
1772045303337016800,1.885016845703125,-0.5398487448692322,-0.07356034964323044,-0.938787043094635
1772045303347001900,1.895001953125,-0.5033562183380127,-0.15906433761119843,-0.9185848236083984
1772045303356987600,1.904987548828125,-0.47142133116722107,-0.2361508160829544,-0.8842974901199341
1772045303366973700,1.9149736328125,-0.43435677886009216,-0.3085824251174927,-0.8406285643577576
1772045303376959700,1.924959716796875,-0.3871549367904663,-0.3638659119606018,-0.7864726781845093
1772045303386944800,1.93494482421875,-0.3281469941139221,-0.36130714416503906,-0.743164598941803
1772045303396930800,1.944930908203125,-0.2641506791114807,-0.3154233396053314,-0.7207188606262207
1772045303406916600,1.95491650390625,-0.19124238193035126,-0.26323258876800537,-0.7253223657608032
1772045303416902000,1.96490185546875,-0.10547485947608948,-0.2405385673046112,-0.7504362463951111
1772045303426887700,1.9748876953125,-0.01186155155301094,-0.24733443558216095,-0.8072600960731506
1772045303436873700,1.984873779296875,0.09848570078611374,-0.2620100677013397,-0.8673000335693359
1772045303446858800,1.994858642578125,0.21728558838367462,-0.25524961948394775,-0.9312723278999329
1772045303456844800,2.0048447265625,0.3495442271232605,-0.20468083024024963,-0.9792900085449219
1772045303466830800,2.014830810546875,0.4830476939678192,-0.08223906904459,-1.0281782150268555
1772045303476816600,2.024816650390625,0.595683217048645,0.06443765014410019,-1.076155662536621
1772045303486801700,2.0348017578125,0.6654316782951355,0.2129642814397812,-1.1237239837646484
1772045303496787700,2.04478759765625,0.706209659576416,0.365278422832489,-1.1561001539230347
1772045303506773800,2.054773681640625,0.7102991938591003,0.5279088616371155,-1.173691749572754
1772045303516758800,2.0647587890625,0.6705114841461182,0.6711139678955078,-1.1585532426834106
1772045303526744800,2.074744873046875,0.6124407649040222,0.7862709164619446,-1.1104775667190552
1772045303536731000,2.08473095703125,0.5418519377708435,0.8630404472351074,-1.0202982425689697
1772045303546716700,2.094716552734375,0.4601975381374359,0.8710795044898987,-0.8846160173416138
1772045303556701700,2.10470166015625,0.3787187933921814,0.8115225434303284,-0.7191915512084961
1772045303566687700,2.114687744140625,0.2944238781929016,0.7025886178016663,-0.5225666165351868
1772045303576673800,2.124673828125,0.20314280688762665,0.6013201475143433,-0.31749045848846436
1772045303586658800,2.134658935546875,0.09610982984304428,0.5012702345848083,-0.1265505850315094
1772045303596644600,2.14464453125,-0.019014820456504822,0.42016443610191345,0.03038536198437214
1772045303606631000,2.154630859375,-0.13674864172935486,0.3799762725830078,0.12440373748540878
1772045303616615700,2.16461572265625,-0.2507246136665344,0.37426984310150146,0.13873758912086487
1772045303626601700,2.174601806640625,-0.3525433838367462,0.3906829059123993,0.08016455173492432
1772045303636587500,2.18458740234375,-0.41542690992355347,0.4453822374343872,-0.03928159549832344
1772045303646573800,2.19457373046875,-0.4154868423938751,0.5216242671012878,-0.19443602859973907
1772045303656558800,2.204558837890625,-0.362550288438797,0.609147310256958,-0.3564789891242981
1772045303666544600,2.214544677734375,-0.26391932368278503,0.7046400308609009,-0.5168828368186951
1772045303676531000,2.224531005859375,-0.15189731121063232,0.8070894479751587,-0.6687929034233093
1772045303686515700,2.234515625,-0.05091981962323189,0.9055896401405334,-0.8020164966583252
1772045303696501800,2.244501708984375,0.02551964670419693,0.9555956721305847,-0.904356837272644
1772045303706487600,2.254487548828125,0.07564806193113327,0.9724846482276917,-0.9627357125282288
1772045303716473900,2.264473876953125,0.10364626348018646,0.9489800930023193,-0.9948114156723022
1772045303726459000,2.274458984375,0.1169157326221466,0.8787930011749268,-1.0016998052597046
1772045303736444700,2.284444580078125,0.14142440259456635,0.7922525405883789,-0.9791882038116455
1772045303746430700,2.2944306640625,0.17135992646217346,0.6787585020065308,-0.9440280795097351
1772045303756415700,2.304415771484375,0.209817573428154,0.5581293702125549,-0.9083608388900757
1772045303766401800,2.31440185546875,0.24910610914230347,0.451306015253067,-0.8732020854949951
1772045303776387600,2.3243876953125,0.29066553711891174,0.36439305543899536,-0.8569002747535706
1772045303786374000,2.334373779296875,0.33445480465888977,0.3040101230144501,-0.8457506895065308
1772045303796359000,2.34435888671875,0.37149104475975037,0.26400771737098694,-0.8436752557754517
1772045303806344700,2.3543447265625,0.39930295944213867,0.25876450538635254,-0.8414603471755981
1772045303816330800,2.364330810546875,0.4254344701766968,0.282836377620697,-0.8482813835144043
1772045303826315500,2.3743154296875,0.44906869530677795,0.3023402988910675,-0.8677563071250916
1772045303836300800,2.38430078125,0.47286543250083923,0.331813246011734,-0.8892751932144165
1772045303846286800,2.394286865234375,0.5091696381568909,0.3614545166492462,-0.9147642850875854
1772045303856273000,2.40427294921875,0.5457236170768738,0.38306355476379395,-0.9552152156829834
1772045303866258000,2.4142578125,0.5775880813598633,0.41485795378685,-1.008164405822754
1772045303876243700,2.42424365234375,0.6143588423728943,0.46236270666122437,-1.0773097276687622
1772045303886229800,2.434229736328125,0.663016140460968,0.5283092260360718,-1.1629666090011597
1772045303896215000,2.444215087890625,0.7205365300178528,0.6246451735496521,-1.2554829120635986
1772045303906200800,2.454200927734375,0.781641960144043,0.7459446787834167,-1.3526302576065063
1772045303916187000,2.464186767578125,0.8217211365699768,0.8770352005958557,-1.4407293796539307
1772045303926173000,2.4741728515625,0.8596743941307068,1.0005595684051514,-1.507071852684021
1772045303936158000,2.484157958984375,0.8974367380142212,1.0691697597503662,-1.540932059288025
1772045303946143700,2.494143798828125,0.9249032735824585,1.0661145448684692,-1.5213823318481445
1772045303956129800,2.5041298828125,0.9572458863258362,1.0072007179260254,-1.4476150274276733
1772045303966114800,2.51411474609375,0.9812029004096985,0.8982478976249695,-1.341820240020752
1772045303976100900,2.524100830078125,0.9821779727935791,0.7424694299697876,-1.1999160051345825
1772045303986087000,2.5340869140625,0.9687913060188293,0.58807772397995,-1.043061375617981
1772045303996072700,2.54407275390625,0.9415133595466614,0.45509374141693115,-0.896878182888031
1772045304006058000,2.55405810546875,0.8874104022979736,0.3420276343822479,-0.7912420034408569
1772045304016043800,2.564043701171875,0.8118772506713867,0.2596719563007355,-0.7225451469421387
1772045304026029800,2.57402978515625,0.7211481332778931,0.21431246399879456,-0.68321293592453
1772045304036014800,2.584014892578125,0.6454049348831177,0.1822923868894577,-0.6521483659744263
1772045304046001000,2.5940009765625,0.5701650381088257,0.16809161007404327,-0.622577428817749
1772045304055987000,2.603987060546875,0.49726763367652893,0.16716241836547852,-0.5913282036781311
1772045304065972700,2.61397265625,0.4150255024433136,0.16546012461185455,-0.5783141851425171
1772045304075957800,2.623957763671875,0.3188434839248657,0.1828540861606598,-0.5850839018821716
1772045304085944000,2.633944091796875,0.20149874687194824,0.2211088091135025,-0.6063761711120605
1772045304095929900,2.643929931640625,0.04633002355694771,0.2693174481391907,-0.6526354551315308
1772045304105915000,2.653914794921875,-0.1408689022064209,0.33520832657814026,-0.7125341892242432
1772045304115900700,2.663900634765625,-0.3356255888938904,0.4212334156036377,-0.7862293124198914
1772045304125887000,2.673886962890625,-0.538293719291687,0.5313402414321899,-0.865825355052948
1772045304135872800,2.683872802734375,-0.7291306853294373,0.654830813407898,-0.9350599050521851
1772045304145857800,2.69385791015625,-0.894652247428894,0.7549701929092407,-0.9845296740531921
1772045304155844000,2.703843994140625,-1.0278865098953247,0.8326343297958374,-1.0052058696746826
1772045304165830000,2.713829833984375,-1.1283254623413086,0.8843220472335815,-0.9926542043685913
1772045304175815000,2.72381494140625,-1.2086403369903564,0.8926931619644165,-0.9325259327888489
1772045304185800700,2.73380078125,-1.2790857553482056,0.8524264097213745,-0.8412162661552429
1772045304195787000,2.743787109375,-1.3550575971603394,0.7525718212127686,-0.7263649702072144
1772045304205772800,2.753772705078125,-1.4376208782196045,0.620061993598938,-0.5987952947616577
1772045304215757800,2.7637578125,-1.5193159580230713,0.48290371894836426,-0.4804122745990753
1772045304225744000,2.773743896484375,-1.579683780670166,0.3589114546775818,-0.36954301595687866
1772045304235730000,2.78372998046875,-1.6235456466674805,0.2522338628768921,-0.2587905824184418
1772045304245716000,2.793716064453125,-1.637247085571289,0.1562599241733551,-0.1475391387939453
1772045304255700700,2.80370068359375,-1.634547233581543,0.05432732403278351,-0.03389189392328262
1772045304265686800,2.813686767578125,-1.6227846145629883,-0.05891081690788269,0.07716591656208038
1772045304275672800,2.8236728515625,-1.6239911317825317,-0.1722436249256134,0.17003557085990906
1772045304285657900,2.833657958984375,-1.6461446285247803,-0.28730201721191406,0.23332931101322174
1772045304295644000,2.843643798828125,-1.690356969833374,-0.39059820771217346,0.26937729120254517
1772045304305630000,2.8536298828125,-1.750633955001831,-0.45958632230758667,0.2757640779018402
1772045304315616000,2.863615966796875,-1.8160468339920044,-0.48371392488479614,0.24464978277683258
1772045304325600800,2.873600830078125,-1.8843177556991577,-0.45649027824401855,0.18415474891662598
1772045304335586800,2.8835869140625,-1.9299609661102295,-0.3737058639526367,0.10054085403680801
1772045304345572900,2.89357275390625,-1.9501887559890747,-0.24019865691661835,-0.015607853420078754
1772045304355558000,2.903557861328125,-1.9502488374710083,-0.08841913193464279,-0.14585454761981964
1772045304365544000,2.9135439453125,-1.9385509490966797,0.0662282332777977,-0.27292436361312866
1772045304375529700,2.92352978515625,-1.9190999269485474,0.18532562255859375,-0.3898569345474243
1772045304385516000,2.93351611328125,-1.890899658203125,0.2565782070159912,-0.47940757870674133
1772045304395500800,2.943500732421875,-1.861931324005127,0.28695428371429443,-0.5339022278785706
1772045304405486800,2.95348681640625,-1.8121075630187988,0.2851411998271942,-0.5546857714653015
1772045304415472600,2.96347265625,-1.7632755041122437,0.260166198015213,-0.5620608329772949
1772045304425458000,2.9734580078125,-1.709694504737854,0.2317396104335785,-0.5605218410491943
1772045304435444000,2.98344384765625,-1.6548879146575928,0.22472941875457764,-0.5753879547119141
1772045304445429800,2.9934296875,-1.5971055030822754,0.23555304110050201,-0.5988282561302185
1772045304455416000,3.003416015625,-1.5320425033569336,0.25584420561790466,-0.614066481590271
1772045304465400800,3.01340087890625,-1.443765640258789,0.27918627858161926,-0.6166114211082458
1772045304475387000,3.023386962890625,-1.334720492362976,0.2859085202217102,-0.6060036420822144
1772045304485372700,3.03337255859375,-1.2172231674194336,0.2820970118045807,-0.5825089812278748
1772045304495357700,3.043357666015625,-1.0986742973327637,0.27019768953323364,-0.5471159815788269
1772045304505344000,3.053343994140625,-0.9802068471908569,0.2490481734275818,-0.5037381649017334
1772045304515329800,3.063329833984375,-0.8580813407897949,0.22169029712677002,-0.45569947361946106
1772045304525315800,3.07331591796875,-0.7393970489501953,0.18767186999320984,-0.4012972116470337
1772045304535300900,3.08330078125,-0.6206262111663818,0.17350971698760986,-0.34213390946388245
1772045304545287000,3.093286865234375,-0.4924170970916748,0.1621132493019104,-0.2721444368362427
1772045304555272700,3.103272705078125,-0.36067143082618713,0.12553521990776062,-0.2072717696428299
1772045304565257700,3.1132578125,-0.22771655023097992,0.0709790289402008,-0.15325674414634705
1772045304575244000,3.123244140625,-0.0926545113325119,-0.0026622270233929157,-0.11708031594753265
1772045304585229800,3.133229736328125,0.051795877516269684,-0.08820828795433044,-0.0891655907034874
1772045304595216000,3.1432158203125,0.2049352526664734,-0.16987131536006927,-0.056705113500356674
1772045304605200600,3.15320068359375,0.35794559121131897,-0.23132243752479553,-0.02118200622498989
1772045304615187000,3.16318701171875,0.5022755861282349,-0.2627716362476349,0.012309265322983265
1772045304625172700,3.1731728515625,0.6230483055114746,-0.2688697278499603,0.020986909046769142
1772045304635157800,3.18315771484375,0.7113516330718994,-0.2645600736141205,0.0017669794615358114
1772045304645143800,3.193143798828125,0.7858344316482544,-0.2551388740539551,-0.06002768129110336
1772045304655129900,3.2031298828125,0.8572936058044434,-0.24817349016666412,-0.1640508621931076
1772045304665116000,3.213115966796875,0.9373103976249695,-0.2396543025970459,-0.3028414845466614
1772045304675101000,3.223100830078125,1.0441173315048218,-0.22212162613868713,-0.46486520767211914
1772045304685087000,3.2330869140625,1.1664115190505981,-0.19161777198314667,-0.639112651348114
1772045304695072800,3.24307275390625,1.305963397026062,-0.13542716205120087,-0.8013993501663208
1772045304705057800,3.253057861328125,1.463778018951416,-0.031095702201128006,-0.9492143988609314
1772045304715043800,3.2630439453125,1.6129355430603027,0.0962797999382019,-1.068845272064209
1772045304725030000,3.27302978515625,1.7419947385787964,0.2120543271303177,-1.1603227853775024
1772045304735016000,3.283015869140625,1.8246890306472778,0.29800945520401,-1.246337652206421
1772045304745001000,3.2930009765625,1.8592119216918945,0.35322052240371704,-1.3274377584457397
1772045304754986800,3.30298681640625,1.8396607637405396,0.3868270814418793,-1.4060447216033936
1772045304764972800,3.312972900390625,1.7775012254714966,0.4054338037967682,-1.4802569150924683
1772045304774957800,3.322957763671875,1.689056158065796,0.43030697107315063,-1.5426362752914429
1772045304784943900,3.33294384765625,1.5887396335601807,0.4620600938796997,-1.5964454412460327
1772045304794929700,3.3429296875,1.4841039180755615,0.4918999969959259,-1.642741322517395
1772045304804916000,3.352916015625,1.3937485218048096,0.5248640179634094,-1.676641821861267
1772045304814901000,3.36290087890625,1.3209807872772217,0.5572100877761841,-1.6699650287628174
1772045304824886800,3.37288671875,1.2699576616287231,0.5816009044647217,-1.6293672323226929
1772045304834873000,3.382873046875,1.2348928451538086,0.5967409610748291,-1.540945291519165
1772045304844859400,3.392859375,1.19255793094635,0.597353994846344,-1.4327716827392578
1772045304854844400,3.402844482421875,1.1362155675888062,0.5691871047019958,-1.3227977752685547
1772045304864830200,3.412830322265625,1.0569164752960205,0.5387657880783081,-1.2118017673492432
1772045304874816500,3.42281640625,0.9663960337638855,0.522127628326416,-1.1159639358520508
1772045304884801300,3.43280126953125,0.8816025853157043,0.5118350386619568,-1.0306717157363892
1772045304894787300,3.442787353515625,0.8227788209915161,0.49975231289863586,-0.9598636031150818
1772045304904773000,3.452773193359375,0.7831549644470215,0.48154720664024353,-0.9058645367622375
1772045304914759400,3.462759521484375,0.7625002861022949,0.4656110405921936,-0.8710293173789978
1772045304924744400,3.472744384765625,0.7526311278343201,0.45013487339019775,-0.8538071513175964
1772045304934730200,3.482730224609375,0.7451488375663757,0.43287956714630127,-0.8521642088890076
1772045304944716300,3.49271630859375,0.7341369390487671,0.42223092913627625,-0.8605478405952454
1772045304954701300,3.502701416015625,0.7292397618293762,0.4182751178741455,-0.8800049424171448
1772045304964687400,3.512687255859375,0.7185199856758118,0.41978514194488525,-0.9110400676727295
1772045304974673200,3.522673095703125,0.7022430896759033,0.4423193037509918,-0.949577808380127
1772045304984658200,3.532658203125,0.6790328621864319,0.4800879955291748,-0.9967703819274902
1772045304994644500,3.54264453125,0.6687747240066528,0.521085798740387,-1.0668869018554688
1772045305004630300,3.55263037109375,0.6815669536590576,0.5692128539085388,-1.1396889686584473
1772045305014616300,3.5626162109375,0.708787739276886,0.6102679967880249,-1.218974232673645
1772045305024601300,3.572601318359375,0.7521341443061829,0.6283252835273743,-1.3010443449020386
1772045305034587400,3.58258740234375,0.8043355941772461,0.6470140218734741,-1.3761197328567505
1772045305044573200,3.5925732421875,0.8501675724983215,0.6513733267784119,-1.441177248954773
1772045305054558200,3.60255810546875,0.8931769132614136,0.641984224319458,-1.4884735345840454
1772045305064544300,3.612544189453125,0.9318510293960571,0.6304489970207214,-1.516440749168396
1772045305074530300,3.6225302734375,0.9635432958602905,0.6179826855659485,-1.5236084461212158
1772045305084516400,3.632516357421875,0.9938324689865112,0.6045342683792114,-1.508195161819458
1772045305094501400,3.64250146484375,1.0155006647109985,0.599644660949707,-1.4786165952682495
1772045305104487400,3.6524873046875,1.0262877941131592,0.6132861971855164,-1.4515554904937744
1772045305114473200,3.66247314453125,1.023263931274414,0.6323558688163757,-1.433979868888855
1772045305124458200,3.672458251953125,1.0135008096694946,0.6559783816337585,-1.415727972984314
1772045305134444300,3.6824443359375,0.9864028692245483,0.6867403984069824,-1.4098167419433594
1772045305144430300,3.692430419921875,0.9434841871261597,0.7001904249191284,-1.4118558168411255
1772045305154416400,3.70241650390625,0.8920910358428955,0.7016164660453796,-1.4131665229797363
1772045305164401400,3.7124013671875,0.834980845451355,0.6919510364532471,-1.3972610235214233
1772045305174387200,3.72238720703125,0.783208429813385,0.6725381016731262,-1.3590996265411377
1772045305184373500,3.73237353515625,0.7336217164993286,0.6455888152122498,-1.2905365228652954
1772045305194358300,3.742358154296875,0.6791415810585022,0.6053805351257324,-1.2029507160186768
1772045305204344300,3.75234423828125,0.6268658638000488,0.5656730532646179,-1.1099426746368408
1772045305214330400,3.762330322265625,0.560604989528656,0.5396589636802673,-1.0322704315185547
1772045305224316400,3.77231640625,0.47327837347984314,0.5245881676673889,-0.9746440649032593
1772045305234301400,3.782301513671875,0.3754892945289612,0.5370556116104126,-0.956459641456604
1772045305244287200,3.792287353515625,0.2659851610660553,0.558756947517395,-0.9769952893257141
1772045305254273500,3.8022734375,0.17818127572536469,0.590773344039917,-1.0355796813964844
1772045305264258300,3.81225830078125,0.13488386571407318,0.613251268863678,-1.0959924459457397
1772045305274244400,3.822244384765625,0.14570875465869904,0.6240044236183167,-1.1142889261245728
1772045305284230100,3.832230224609375,0.1780398041009903,0.615098774433136,-1.0759252309799194
1772045305294215200,3.842215087890625,0.21072134375572205,0.5870298147201538,-0.9807745814323425
1772045305304201500,3.852201416015625,0.21073412895202637,0.549055278301239,-0.8606764078140259
1772045305314187300,3.862187255859375,0.16268107295036316,0.5018916130065918,-0.7622569799423218
1772045305324173300,3.87217333984375,0.05289652198553085,0.4605058431625366,-0.7123858332633972
1772045305334158300,3.882158447265625,-0.09814313054084778,0.46978989243507385,-0.7199315428733826
1772045305344144400,3.892144287109375,-0.2796143889427185,0.5214642286300659,-0.7798393368721008
1772045305354130200,3.902130126953125,-0.462846964597702,0.6046498417854309,-0.856401264667511
1772045305364115200,3.912115234375,-0.6216743588447571,0.7067676782608032,-0.9259635210037231
1772045305374101500,3.9221015625,-0.7561948299407959,0.8102123141288757,-0.9704808592796326
1772045305384087300,3.93208740234375,-0.8637231588363647,0.8838178515434265,-0.96147221326828
1772045305394073300,3.9420732421875,-0.9427919387817383,0.8933010697364807,-0.8922020792961121
1772045305404058000,3.95205810546875,-1.004180669784546,0.8471983075141907,-0.7631114721298218
1772045305414044400,3.96204443359375,-1.0482856035232544,0.7634434103965759,-0.6031262874603271
1772045305424030200,3.9720302734375,-1.090369462966919,0.6416674256324768,-0.4271685481071472
1772045305434015200,3.98201513671875,-1.1345946788787842,0.46079519391059875,-0.2400425672531128
1772045305444001500,3.99200146484375,-1.189428448677063,0.22449636459350586,-0.06163394823670387
1772045305453987300,4.0019873046875,-1.2388966083526611,-0.013881663791835308,0.08845233172178268
1772045305463972400,4.011972412109375,-1.2785323858261108,-0.2390894740819931,0.19134356081485748
1772045305473958100,4.021958251953125,-1.3074276447296143,-0.4252874553203583,0.24616308510303497
1772045305483944400,4.0319443359375,-1.3291491270065308,-0.5387527942657471,0.26769953966140747
1772045305493930200,4.04193017578125,-1.3413182497024536,-0.559029757976532,0.2297920286655426
1772045305503915300,4.051915283203125,-1.3581904172897339,-0.5010803937911987,0.13267026841640472
1772045305513901300,4.0619013671875,-1.385873794555664,-0.3600001931190491,-0.009698624722659588
1772045305523887400,4.071887451171875,-1.4269903898239136,-0.15822234749794006,-0.17730119824409485
1772045305533872400,4.081872314453125,-1.4977103471755981,0.056181393563747406,-0.36127030849456787
1772045305543858200,4.091858154296875,-1.5849733352661133,0.2584703266620636,-0.5406768321990967
1772045305553844200,4.10184423828125,-1.6806118488311768,0.43348342180252075,-0.7020210027694702
1772045305563830300,4.111830322265625,-1.7676132917404175,0.5827943682670593,-0.8342152833938599
1772045305573815300,4.121815185546875,-1.8412591218948364,0.6971474289894104,-0.932304322719574
1772045305583801300,4.13180126953125,-1.8886964321136475,0.7682575583457947,-1.0026389360427856
1772045305593787400,4.141787353515625,-1.9131238460540771,0.8113287687301636,-1.033896803855896
1772045305603772400,4.1517724609375,-1.92807137966156,0.8084338903427124,-1.0284329652786255
1772045305613758200,4.16175830078125,-1.9331367015838623,0.7806447744369507,-1.000697135925293
1772045305623744300,4.171744140625,-1.9268354177474976,0.7313451766967773,-0.9519653916358948
1772045305633729300,4.181729248046875,-1.911504864692688,0.6714584231376648,-0.8840835094451904
1772045305643715300,4.19171533203125,-1.8794656991958618,0.6101601719856262,-0.818293571472168
1772045305653701400,4.201701416015625,-1.8276729583740234,0.5436317920684814,-0.7617915272712708
1772045305663687200,4.211687255859375,-1.7489092350006104,0.46966856718063354,-0.7249423861503601
1772045305673672200,4.221672119140625,-1.6435149908065796,0.3868311941623688,-0.7067812085151672
1772045305683658200,4.231658203125,-1.518790602684021,0.31979861855506897,-0.7083777785301208
1772045305693644300,4.241644287109375,-1.3757072687149048,0.25536617636680603,-0.7206434607505798
1772045305703629300,4.25162939453125,-1.2221238613128662,0.183920219540596,-0.7399047613143921
1772045305713615400,4.261615478515625,-1.0480849742889404,0.11105478554964066,-0.7649195790290833
1772045305723601400,4.271601318359375,-0.8694814443588257,0.04061737284064293,-0.7880321145057678
1772045305733586400,4.28158642578125,-0.7002403140068054,-0.0408906452357769,-0.819703996181488
1772045305743572200,4.291572265625,-0.5432669520378113,-0.1409541219472885,-0.8489766120910645
1772045305753558300,4.301558349609375,-0.3982010781764984,-0.2492951601743698,-0.8770537376403809
1772045305763544300,4.31154443359375,-0.2650725841522217,-0.3602445721626282,-0.8987566828727722
1772045305773529300,4.321529296875,-0.13965827226638794,-0.4738143980503082,-0.9193887710571289
1772045305783515100,4.33151513671875,-0.024775633588433266,-0.5737303495407104,-0.9482414722442627
1772045305793501400,4.34150146484375,0.08277479559183121,-0.6629599332809448,-0.9829357266426086
1772045305803486500,4.351486572265625,0.1927228718996048,-0.7407923936843872,-1.0255881547927856
1772045305813472300,4.36147216796875,0.3064040541648865,-0.8119199275970459,-1.0769844055175781
1772045305823458600,4.37145849609375,0.4242284297943115,-0.8692626357078552,-1.1255351305007935
1772045305833443300,4.381443359375,0.5468999147415161,-0.919636607170105,-1.1731570959091187
1772045305843429000,4.39142919921875,0.6689643263816833,-0.960198163986206,-1.2237271070480347
1772045305853415000,4.401414794921875,0.7738760709762573,-0.9702447652816772,-1.2954716682434082
1772045305863401200,4.411401123046875,0.8629345297813416,-0.9466539621353149,-1.3945870399475098
1772045305873386200,4.42138623046875,0.9231306314468384,-0.8864274621009827,-1.529029369354248
1772045305883372000,4.4313720703125,0.9612308740615845,-0.7947239279747009,-1.7045310735702515
1772045305893358000,4.441358154296875,0.9961748123168945,-0.6762283444404602,-1.9119486808776855
1772045305903343000,4.451343017578125,1.0487421751022339,-0.5298990607261658,-2.1668620109558105
1772045305913329200,4.4613291015625,1.1371135711669922,-0.32016754150390625,-2.4429221153259277
1772045305923315000,4.47131494140625,1.2749475240707397,-0.06080947071313858,-2.712273120880127
1772045305933300000,4.481300048828125,1.4222790002822876,0.2215758115053177,-2.9590306282043457
1772045305943286300,4.491286376953125,1.5309972763061523,0.5079657435417175,-3.181943416595459
1772045305953272000,4.50127197265625,1.5819627046585083,0.7922385334968567,-3.3977036476135254
1772045305963258000,4.511258056640625,1.5599839687347412,1.0701318979263306,-3.609330892562866
1772045305973243000,4.521242919921875,1.4960039854049683,1.3299444913864136,-3.7925784587860107
1772045305983229200,4.531229248046875,1.4060472249984741,1.5501322746276855,-3.9381611347198486
1772045305993215000,4.541215087890625,1.3173612356185913,1.7462271451950073,-4.030559062957764
1772045306003200000,4.551199951171875,1.2431600093841553,1.8957719802856445,-4.064265251159668
1772045306013186300,4.561186279296875,1.2054152488708496,1.9782023429870605,-4.029343128204346
1772045306023172000,4.571172119140625,1.206283688545227,1.9793983697891235,-3.916156768798828
1772045306033157000,4.5811572265625,1.2370926141738892,1.9019932746887207,-3.73453950881958
1772045306043143000,4.591142822265625,1.2771186828613281,1.7565109729766846,-3.4924991130828857
1772045306053129200,4.601129150390625,1.3042175769805908,1.559162974357605,-3.218661308288574
1772045306063114200,4.6111142578125,1.322816014289856,1.3072367906570435,-2.932044744491577
1772045306073100000,4.62110009765625,1.3351166248321533,1.0143649578094482,-2.6369211673736572
1772045306083086000,4.631086181640625,1.3557790517807007,0.7207888960838318,-2.3576982021331787
1772045306093072100,4.641072021484375,1.3992877006530762,0.47664061188697815,-2.1115946769714355
1772045306103057200,4.65105712890625,1.4639309644699097,0.25502273440361023,-1.909845232963562
1772045306113043000,4.66104296875,1.547989845275879,0.06710512191057205,-1.738410234451294
1772045306123029000,4.671029052734375,1.6270854473114014,-0.08513394743204117,-1.6032031774520874
1772045306133014300,4.68101416015625,1.6952507495880127,-0.2031739205121994,-1.5068732500076294
1772045306143000000,4.691,1.7489938735961914,-0.27315059304237366,-1.453726887702942
1772045306152986000,4.700986083984375,1.7803069353103638,-0.2900470793247223,-1.4413765668869019
1772045306162971100,4.71097119140625,1.791419267654419,-0.26962968707084656,-1.4608256816864014
1772045306172957200,4.720957275390625,1.7914636135101318,-0.19388967752456665,-1.5067058801651
1772045306182943200,4.730943115234375,1.788020133972168,-0.07984646409749985,-1.5816357135772705
1772045306192928000,4.740927978515625,1.773667573928833,0.060151033103466034,-1.682882308959961
1772045306202914000,4.7509140625,1.7449816465377808,0.2228350192308426,-1.8163434267044067
1772045306212900000,4.760900146484375,1.688864827156067,0.4035318195819855,-1.9626734256744385
1772045306222886100,4.77088623046875,1.619079351425171,0.5994318127632141,-2.1181559562683105
1772045306232871200,4.78087109375,1.5339868068695068,0.7723579406738281,-2.2615842819213867
1772045306242857200,4.790857177734375,1.4438023567199707,0.9420761466026306,-2.3801372051239014
1772045306252843300,4.80084326171875,1.363525629043579,1.08770751953125,-2.4743478298187256
1772045306262828000,4.810828125,1.2880152463912964,1.2080538272857666,-2.536179542541504
1772045306272814000,4.82081396484375,1.224656343460083,1.2935048341751099,-2.5620222091674805
1772045306282800000,4.830800048828125,1.1695411205291748,1.333844780921936,-2.5512921810150146
1772045306292785200,4.84078515625,1.133290410041809,1.3557040691375732,-2.5128026008605957
1772045306302771200,4.850771240234375,1.106539011001587,1.3450407981872559,-2.459373712539673
1772045306312757000,4.860757080078125,1.0890793800354004,1.3056219816207886,-2.391732931137085
1772045306322742300,4.8707421875,1.0828832387924194,1.25285804271698,-2.3059771060943604
1772045306332728000,4.88072802734375,1.0943570137023926,1.1994882822036743,-2.2116899490356445
1772045306342714000,4.890714111328125,1.1079987287521362,1.1436008214950562,-2.12453556060791
1772045306352700000,4.900699951171875,1.125077724456787,1.0860986709594727,-2.046579122543335
1772045306362685200,4.910685302734375,1.1525887250900269,1.0472173690795898,-1.9669562578201294
1772045306372671200,4.920671142578125,1.1867146492004395,1.0488238334655762,-1.901591420173645
1772045306382657000,4.930656982421875,1.225839614868164,1.0708529949188232,-1.8426815271377563
1772045306392642000,4.94064208984375,1.2660517692565918,1.0850695371627808,-1.780639410018921
1772045306402628000,4.950628173828125,1.3109291791915894,1.0893807411193848,-1.710028886795044
1772045306412614100,4.9606142578125,1.3399577140808105,1.0687615871429443,-1.653746485710144
1772045306422599200,4.97059912109375,1.339706540107727,1.0318876504898071,-1.5965228080749512
1772045306432585000,4.9805849609375,1.3315684795379639,0.9950106739997864,-1.5173521041870117
1772045306442571300,4.9905712890625,1.3253556489944458,0.9460170269012451,-1.4206212759017944
1772045306452556000,5.00055615234375,1.3252276182174683,0.883139431476593,-1.3107163906097412
1772045306462542000,5.0105419921875,1.3152679204940796,0.8162736296653748,-1.2032362222671509
1772045306472528100,5.020528076171875,1.294665813446045,0.7588164806365967,-1.0941705703735352
1772045306482514200,5.03051416015625,1.2555636167526245,0.7139201164245605,-1.0012054443359375
1772045306492499200,5.040499267578125,1.1954118013381958,0.6892281174659729,-0.9271576404571533
1772045306502485000,5.050485107421875,1.1155307292938232,0.7064757943153381,-0.8807408809661865
1772045306512471300,5.06047119140625,1.017646312713623,0.765247642993927,-0.8695448637008667
1772045306522456000,5.0704560546875,0.9067374467849731,0.8588084578514099,-0.8869349956512451
1772045306532442000,5.080442138671875,0.8012727499008179,0.9709303975105286,-0.9216749668121338
1772045306542428000,5.090427978515625,0.7028705477714539,1.0910542011260986,-0.9659100770950317
1772045306552413200,5.1004130859375,0.623352587223053,1.2116625308990479,-1.0121217966079712
1772045306562399200,5.110399169921875,0.5633108019828796,1.303411841392517,-1.034635066986084
1772045306572385000,5.120385009765625,0.5194669365882874,1.3448301553726196,-1.0207322835922241
1772045306582370000,5.1303701171875,0.4713068902492523,1.338144302368164,-0.9700263738632202
1772045306592356000,5.140356201171875,0.4260203242301941,1.2834227085113525,-0.8889365196228027
1772045306602342100,5.150342041015625,0.38553386926651,1.2100098133087158,-0.7850383520126343
1772045306612327200,5.1603271484375,0.3619629442691803,1.1315690279006958,-0.6638110876083374
1772045306622313000,5.17031298828125,0.331464946269989,1.043473243713379,-0.5306689739227295
1772045306632299300,5.18029931640625,0.2800712585449219,0.9550038576126099,-0.3902621269226074
1772045306642284000,5.190283935546875,0.21182189881801605,0.8669323325157166,-0.2490789294242859
1772045306652270000,5.20027001953125,0.11569487303495407,0.7666515111923218,-0.12169201672077179
1772045306662256000,5.210256103515625,0.0008095661178231239,0.6569923758506775,-0.027873380109667778
1772045306672242200,5.2202421875,-0.12435098737478256,0.5427483916282654,0.03130083158612251
1772045306682227200,5.230227294921875,-0.24827826023101807,0.43168875575065613,0.07490982860326767
1772045306692213000,5.240212890625,-0.3472331166267395,0.3289310038089752,0.1064925342798233
1772045306702199300,5.25019921875,-0.4247308373451233,0.2278648316860199,0.13119468092918396
1772045306712184000,5.26018408203125,-0.47490862011909485,0.13065961003303528,0.1633022278547287
1772045306722170000,5.270170166015625,-0.5107265710830688,0.032265402376651764,0.19660505652427673
1772045306732156200,5.28015625,-0.5405775308609009,-0.04107502102851868,0.2255060076713562
1772045306742141000,5.290140869140625,-0.5768409967422485,-0.10418981313705444,0.24256408214569092
1772045306752127200,5.300127197265625,-0.6137044429779053,-0.16373343765735626,0.2497042715549469
1772045306762113000,5.310113037109375,-0.6403091549873352,-0.2032851129770279,0.2413611263036728
1772045306772098000,5.32009814453125,-0.6661677956581116,-0.2231343388557434,0.20078183710575104
1772045306782084400,5.33008447265625,-0.6870890855789185,-0.2408459484577179,0.1406780332326889
1772045306792070100,5.340070068359375,-0.7186853885650635,-0.21624359488487244,0.06835563480854034
1772045306802055200,5.35005517578125,-0.7527850866317749,-0.18046589195728302,-0.019061557948589325
1772045306812041000,5.360041015625,-0.8084323406219482,-0.10203873366117477,-0.11738120764493942
1772045306822027300,5.37002734375,-0.8915365934371948,0.021833127364516258,-0.22909300029277802
1772045306832012300,5.38001220703125,-1.0063390731811523,0.17320001125335693,-0.3476036787033081
1772045306841998000,5.389998046875,-1.1235687732696533,0.34365376830101013,-0.4578087627887726
1772045306851984100,5.399984130859375,-1.2208651304244995,0.5156952738761902,-0.5449418425559998
1772045306861969000,5.409968994140625,-1.2978073358535767,0.6817182898521423,-0.5989976525306702
1772045306871955200,5.419955078125,-1.3569506406784058,0.8210247159004211,-0.6090776920318604
1772045306881941000,5.42994091796875,-1.3841718435287476,0.9181193113327026,-0.5773394703865051
1772045306891927000,5.439927001953125,-1.3909918069839478,0.9685741662979126,-0.5297648906707764
1772045306901912300,5.449912353515625,-1.379703402519226,0.9856966733932495,-0.4607847332954407
1772045306911898000,5.459898193359375,-1.3587363958358765,0.9522037506103516,-0.37024977803230286
1772045306921884200,5.46988427734375,-1.3295036554336548,0.9032859802246094,-0.2649798095226288
1772045306931869000,5.479868896484375,-1.29338800907135,0.840751051902771,-0.1422821581363678
1772045306941855200,5.489855224609375,-1.250745177268982,0.7736942768096924,-0.01589147001504898
1772045306951841000,5.499841064453125,-1.19442880153656,0.6780795454978943,0.10574592649936676
1772045306961826000,5.509825927734375,-1.128461480140686,0.5770522952079773,0.2189667522907257
1772045306971812000,5.51981201171875,-1.0605502128601074,0.4483402669429779,0.33935773372650146
1772045306981798100,5.529798095703125,-1.0042238235473633,0.2891431748867035,0.45679622888565063
1772045306991783200,5.539783203125,-0.9484925270080566,0.102776899933815,0.5747295618057251
1772045307001769000,5.54976904296875,-0.8905847668647766,-0.08307313174009323,0.6783545017242432
1772045307011755300,5.55975537109375,-0.829249382019043,-0.27451983094215393,0.7649041414260864
1772045307021740300,5.569740234375,-0.7803739905357361,-0.45011910796165466,0.8179356455802917
1772045307031726000,5.57972607421875,-0.7484691739082336,-0.5784016847610474,0.8280177116394043
1772045307041712000,5.589712158203125,-0.7250741124153137,-0.6661847829818726,0.7995532751083374
1772045307051697000,5.59969677734375,-0.6987602114677429,-0.7161836624145508,0.7621799111366272
1772045307061683200,5.60968310546875,-0.6700363755226135,-0.73051518201828,0.7125673294067383
1772045307071669000,5.6196689453125,-0.6422562599182129,-0.7164985537528992,0.6463027596473694
1772045307081654000,5.629654052734375,-0.624383270740509,-0.6580842733383179,0.5549821257591248
1772045307091640000,5.63964013671875,-0.620402991771698,-0.5617302060127258,0.46049341559410095
1772045307101626000,5.649626220703125,-0.6293133497238159,-0.4505203366279602,0.35631775856018066
1772045307111611100,5.659611083984375,-0.6405090093612671,-0.3306548297405243,0.25309503078460693
1772045307121597000,5.669596923828125,-0.6455389261245728,-0.21043282747268677,0.1563655585050583
1772045307131583200,5.679583251953125,-0.6442503929138184,-0.10060322284698486,0.06538393348455429
1772045307141569000,5.689569091796875,-0.6337884068489075,-0.0035813318099826574,-0.013236310333013535
1772045307151554000,5.699553955078125,-0.6118763089179993,0.07040435075759888,-0.07568128407001495
1772045307161540000,5.7095400390625,-0.5862202048301697,0.12846259772777557,-0.11001449078321457
1772045307171526100,5.719526123046875,-0.5576210618019104,0.1729632169008255,-0.11619249731302261
1772045307181511200,5.72951123046875,-0.5314618945121765,0.18913686275482178,-0.10209371894598007
1772045307191497000,5.7394970703125,-0.5060990452766418,0.1802545040845871,-0.06630760431289673
1772045307201483000,5.74948291015625,-0.484007865190506,0.15221381187438965,-0.018592016771435738
1772045307211468300,5.75946826171875,-0.4741503894329071,0.1140320748090744,0.048333898186683655
1772045307221454000,5.7694541015625,-0.4600391089916229,0.07552223652601242,0.11241861432790756
1772045307231440100,5.779440185546875,-0.4380320608615875,0.0376519076526165,0.17469026148319244
1772045307241425200,5.789425048828125,-0.396677702665329,0.0036779625806957483,0.22015921771526337
1772045307251411200,5.7994111328125,-0.3361722528934479,-0.04013919457793236,0.26030510663986206
1772045307261397200,5.809397216796875,-0.26470792293548584,-0.07800854742527008,0.28417715430259705
1772045307271383000,5.819383056640625,-0.18852995336055756,-0.11346618831157684,0.3012697696685791
1772045307281368000,5.8293681640625,-0.10697571933269501,-0.15769410133361816,0.3100789785385132
1772045307291354000,5.83935400390625,-0.02585439756512642,-0.21087056398391724,0.30702048540115356
1772045307301340200,5.849340087890625,0.053952816873788834,-0.2554478943347931,0.2886020541191101
1772045307311325200,5.8593251953125,0.1322949379682541,-0.2849571704864502,0.24240010976791382
1772045307321311000,5.86931103515625,0.20665624737739563,-0.28968480229377747,0.1671612709760666
1772045307331297300,5.87929736328125,0.2828698456287384,-0.26255589723587036,0.07662595808506012
1772045307341282000,5.889281982421875,0.3705355226993561,-0.20583827793598175,-0.027906309813261032
1772045307351268000,5.89926806640625,0.4670870304107666,-0.13496562838554382,-0.13451716303825378
1772045307361254100,5.909254150390625,0.5714384317398071,-0.044004566967487335,-0.23876740038394928
1772045307371239200,5.9192392578125,0.6858338117599487,0.04563869908452034,-0.32978177070617676
1772045307381225200,5.92922509765625,0.7984575629234314,0.12161415815353394,-0.4060235321521759
1772045307391211000,5.9392109375,0.8967695832252502,0.17081528902053833,-0.4562535881996155
1772045307401196000,5.949196044921875,0.9685710668563843,0.20564649999141693,-0.48847997188568115
1772045307411182000,5.95918212890625,1.006948709487915,0.2305096834897995,-0.5100762248039246
1772045307421168000,5.969168212890625,1.0172570943832397,0.24870999157428741,-0.5177408456802368
1772045307431153200,5.979153076171875,1.0166330337524414,0.26528650522232056,-0.501327633857727
1772045307441139200,5.98913916015625,0.9995543956756592,0.2734304666519165,-0.47722840309143066
1772045307451125200,5.999125244140625,0.9681304097175598,0.2649049758911133,-0.4294133484363556
1772045307461110000,6.009110107421875,0.9158623814582825,0.2353326976299286,-0.3646252751350403
1772045307471096000,6.019095947265625,0.8510765433311462,0.18294665217399597,-0.2945949137210846
1772045307481082000,6.02908203125,0.7747271656990051,0.12973031401634216,-0.2193230539560318
1772045307491067100,6.039067138671875,0.6818240880966187,0.07687471807003021,-0.14583905041217804
1772045307501053200,6.04905322265625,0.5904670357704163,0.02407914772629738,-0.06891632080078125
1772045307511039000,6.0590390625,0.49562931060791016,-0.01808886229991913,0.004703753162175417
1772045307521024300,6.069024169921875,0.41482099890708923,-0.04710932821035385,0.06193295493721962
1772045307531010000,6.079010009765625,0.34540340304374695,-0.07517058402299881,0.11150489747524261
1772045307540996000,6.08899609375,0.2870737910270691,-0.07346243411302567,0.13334709405899048
1772045307550981000,6.098981201171875,0.24222680926322937,-0.06870011985301971,0.13668237626552582
1772045307560967200,6.10896728515625,0.2164122760295868,-0.06599301844835281,0.12533463537693024
1772045307570953200,6.118953125,0.2068568617105484,-0.04700662940740585,0.10860264301300049
1772045307580938000,6.12893798828125,0.20512446761131287,-0.034195490181446075,0.08843878656625748
1772045307590924000,6.138924072265625,0.20996221899986267,-0.019265860319137573,0.0739244669675827
1772045307600910000,6.14891015625,0.23357407748699188,-0.0016628988087177277,0.06116712838411331
1772045307610895000,6.15889501953125,0.2774582505226135,-0.0010197237133979797,0.06318849325180054
1772045307620881200,6.168881103515625,0.3188056945800781,-0.008208128623664379,0.07916852086782455
1772045307630867000,6.178866943359375,0.358139306306839,-0.02470896765589714,0.09671124815940857
1772045307640852200,6.188852294921875,0.375850647687912,-0.043633922934532166,0.10940174758434296
1772045307650838000,6.198838134765625,0.37543773651123047,-0.0628167986869812,0.10879510641098022
1772045307660824000,6.208823974609375,0.3693002164363861,-0.078634113073349,0.09238789975643158
1772045307670809000,6.21880908203125,0.35656505823135376,-0.07593125104904175,0.0636175274848938
1772045307680795100,6.228795166015625,0.33932480216026306,-0.05384432151913643,0.03015224076807499
1772045307690781200,6.23878125,0.32540786266326904,-0.018130555748939514,-0.0037516835145652294
1772045307700766200,6.24876611328125,0.33036425709724426,0.019779808819293976,-0.028638124465942383
1772045307710752000,6.258751953125,0.3311120271682739,0.0577608160674572,-0.04133393615484238
1772045307720738000,6.268738037109375,0.33028697967529297,0.07424205541610718,-0.03713439777493477
1772045307730724000,6.27872412109375,0.3256951868534088,0.07231775671243668,-0.01925082691013813
1772045307740709000,6.288709228515625,0.32362937927246094,0.04886675626039505,0.0014129063347354531
1772045307750695200,6.298695068359375,0.3248901963233948,0.0170460045337677,0.03008882701396942
1772045307760681200,6.30868115234375,0.3197662830352783,-0.009743531234562397,0.0495874285697937
1772045307770666200,6.318666259765625,0.3284077048301697,-0.02242337353527546,0.06096977740526199
1772045307780652000,6.328652099609375,0.3278995752334595,-0.02062840200960636,0.06840265542268753
1772045307790638300,6.338638427734375,0.3359135687351227,-0.010816331021487713,0.07357462495565414
1772045307800623000,6.348623046875,0.33875250816345215,0.0024422165006399155,0.08277318626642227
1772045307810609200,6.358609130859375,0.3480325937271118,0.02571292780339718,0.08331688493490219
1772045307820595000,6.368594970703125,0.3516382575035095,0.045797158032655716,0.07486587762832642
1772045307830580000,6.378580078125,0.3462877869606018,0.05345217511057854,0.0711580216884613
1772045307840565800,6.388565673828125,0.34166398644447327,0.044846437871456146,0.08124261349439621
1772045307850551600,6.398551513671875,0.3278140723705292,0.030194638296961784,0.10210560262203217
1772045307860536600,6.40853662109375,0.3199590742588043,-0.0046674711629748344,0.1261046826839447
1772045307870522600,6.418522705078125,0.30592942237854004,-0.05385369434952736,0.1634548157453537
1772045307880508700,6.4285087890625,0.301717609167099,-0.12560005486011505,0.21237468719482422
1772045307890493700,6.43849365234375,0.30711230635643005,-0.19941474497318268,0.2738956809043884
1772045307900479700,6.448479736328125,0.31963688135147095,-0.27765628695487976,0.339305579662323
1772045307910465800,6.4584658203125,0.34963902831077576,-0.34290024638175964,0.4156964123249054
1772045307920450600,6.468450439453125,0.37919291853904724,-0.3751010596752167,0.4821617305278778
1772045307930436600,6.4784365234375,0.4020690619945526,-0.3828178942203522,0.5324439406394958
1772045307940422700,6.488422607421875,0.4083027243614197,-0.3734219968318939,0.5630122423171997
1772045307950407700,6.49840771484375,0.3910284638404846,-0.3618941009044647,0.57265305519104
1772045307960393700,6.508393798828125,0.3531609773635864,-0.37913939356803894,0.5729987025260925
1772045307970379500,6.518379638671875,0.305679589509964,-0.41848209500312805,0.5672131180763245
1772045307980364800,6.52836474609375,0.2614431381225586,-0.4694741666316986,0.5700166821479797
1772045307990350800,6.538350830078125,0.2166556566953659,-0.5344740152359009,0.5780181288719177
1772045308000336600,6.548336669921875,0.1672324538230896,-0.602162778377533,0.5944948792457581
1772045308010321700,6.55832177734375,0.11845793575048447,-0.6453966498374939,0.6181994080543518
1772045308020307700,6.5683076171875,0.05769019573926926,-0.6508878469467163,0.6426792144775391
1772045308030293800,6.578293701171875,-0.016880381852388382,-0.6267114281654358,0.6603333353996277
1772045308040278800,6.58827880859375,-0.1096222996711731,-0.5714934468269348,0.6752963066101074
1772045308050264600,6.5982646484375,-0.22253593802452087,-0.501455545425415,0.681093692779541
1772045308060251000,6.6082509765625,-0.36020779609680176,-0.4262380003929138,0.6841778755187988
1772045308070235600,6.618235595703125,-0.5135489106178284,-0.3684861958026886,0.6811609268188477
1772045308080221700,6.6282216796875,-0.6639423966407776,-0.33395645022392273,0.6789358854293823
1772045308090207500,6.63820751953125,-0.8010944128036499,-0.3279491662979126,0.6802890300750732
1772045308100192800,6.64819287109375,-0.9170268774032593,-0.3465697169303894,0.6907157897949219
1772045308110178800,6.6581787109375,-1.0026631355285645,-0.3954853117465973,0.7228345274925232
1772045308120164600,6.66816455078125,-1.0682517290115356,-0.4622536897659302,0.7779558300971985
1772045308130149600,6.678149658203125,-1.1036826372146606,-0.5567083358764648,0.8484745025634766
1772045308140135700,6.6881357421875,-1.111233115196228,-0.6718490123748779,0.9268338084220886
1772045308150121700,6.698121826171875,-1.106876015663147,-0.7910214066505432,1.0215009450912476
1772045308160106800,6.708106689453125,-1.103091835975647,-0.9103091955184937,1.1281110048294067
1772045308170092500,6.718092529296875,-1.100404143333435,-1.0385576486587524,1.2509026527404785
1772045308180078800,6.728078857421875,-1.105043888092041,-1.1766060590744019,1.3784207105636597
1772045308190063600,6.738063720703125,-1.1220555305480957,-1.303609848022461,1.5077813863754272
1772045308200049700,6.748049560546875,-1.1575980186462402,-1.3865305185317993,1.6314585208892822
1772045308210035700,6.75803564453125,-1.198552131652832,-1.4090139865875244,1.7603963613510132
1772045308220020700,6.768020751953125,-1.2381317615509033,-1.3869822025299072,1.9144067764282227
1772045308230006800,6.7780068359375,-1.2755554914474487,-1.3233842849731445,2.0867512226104736
1772045308239992600,6.78799267578125,-1.326060175895691,-1.2213712930679321,2.2287685871124268
1772045308249977600,6.7979775390625,-1.436150074005127,-1.0611572265625,2.305979013442993
1772045308259963600,6.807963623046875,-1.582154631614685,-0.8561525940895081,2.28861665725708
1772045308269949700,6.81794970703125,-1.7335883378982544,-0.5987208485603333,2.1722512245178223
1772045308279934700,6.827934814453125,-1.866890549659729,-0.2834598422050476,1.9764784574508667
1772045308289920800,6.837920654296875,-1.971121072769165,0.06072346866130829,1.753775954246521
1772045308299906800,6.84790673828125,-2.0426783561706543,0.40800607204437256,1.5560367107391357
1772045308309891600,6.8578916015625,-2.0619049072265625,0.727888286113739,1.4104385375976562
1772045308319877600,6.867877685546875,-2.045239210128784,1.021592378616333,1.3000283241271973
1772045308329862700,6.877862548828125,-2.018097400665283,1.305877685546875,1.184006929397583
1772045308339848700,6.8878486328125,-2.011040210723877,1.5774157047271729,1.05337393283844
1772045308349834800,6.897834716796875,-2.026414632797241,1.823794960975647,0.9410831332206726
1772045308359820500,6.907820556640625,-2.043551445007324,2.0412070751190186,0.868655264377594
1772045308369805600,6.9178056640625,-2.0818381309509277,2.2583436965942383,0.8247987627983093
1772045308379791600,6.92779150390625,-2.1217832565307617,2.522397041320801,0.7699174284934998
1772045308389776600,6.937776611328125,-2.1675312519073486,2.866173028945923,0.6522753834724426
1772045308399762700,6.9477626953125,-2.2226407527923584,3.2914681434631348,0.489959716796875
1772045308409748700,6.957748779296875,-2.255990743637085,3.754132032394409,0.32333502173423767
1772045308419733800,6.967733642578125,-2.249878168106079,4.127317905426025,0.22006936371326447
1772045308429719800,6.9777197265625,-2.206281900405884,4.345530033111572,0.19743356108665466
1772045308439705600,6.98770556640625,-2.1921112537384033,4.547969341278076,0.2735448181629181
1772045308449690600,6.997690673828125,-2.189485549926758,4.752978801727295,0.3855622112751007
1772045308459676700,7.0076767578125,-2.182827949523926,4.919837474822998,0.5290898680686951
1772045308469662700,7.017662841796875,-2.184582471847534,5.00663948059082,0.6999350786209106
1772045308479647700,7.027647705078125,-2.1870412826538086,5.0147905349731445,0.8803985714912415
1772045308489633800,7.0376337890625,-2.1636769771575928,4.916260242462158,1.0407484769821167
1772045308499619800,7.047619873046875,-2.109395980834961,4.743062973022461,1.1369160413742065
1772045308509604600,7.0576044921875,-2.022226095199585,4.536819934844971,1.155540108680725
1772045308519590700,7.067590576171875,-1.9044725894927979,4.328579902648926,1.112959861755371
1772045308529576700,7.07757666015625,-1.751300573348999,4.174574375152588,1.0327216386795044
1772045308539561700,7.087561767578125,-1.5572373867034912,4.06734561920166,0.9502949714660645
1772045308549547800,7.0975478515625,-1.365838646888733,4.055881023406982,0.8810475468635559
1772045308559533600,7.107533447265625,-1.2046494483947754,4.113125801086426,0.8509173393249512
1772045308569518800,7.117518798828125,-1.0877834558486938,4.133990287780762,0.8642223477363586
1772045308579504600,7.127504638671875,-1.0299558639526367,4.034416198730469,0.9104623198509216
1772045308589490700,7.13749072265625,-0.9719330072402954,4.070551872253418,1.0220189094543457
1772045308599475700,7.147475830078125,-0.8954070806503296,4.0994038581848145,1.1196949481964111
1772045308609461800,7.157461669921875,-0.8248187303543091,3.879999876022339,1.0960530042648315
1772045308619447800,7.16744775390625,-0.7713134288787842,3.609281539916992,0.9768922328948975
1772045308629432600,7.1774326171875,-0.7130790948867798,3.6370344161987305,0.7919551730155945
1772045308639418600,7.187418701171875,-0.6551319360733032,3.6846463680267334,0.6572127938270569
1772045308649404700,7.19740478515625,-0.6189778447151184,3.759694814682007,0.5679190754890442
1772045308659389700,7.2073896484375,-0.5533130764961243,3.703463077545166,0.4499383568763733
1772045308669375700,7.217375732421875,-0.4444347321987152,3.497382402420044,0.27885887026786804
1772045308679361500,7.227361572265625,-0.30096864700317383,3.2265572547912598,0.08481217175722122
1772045308689346800,7.237346923828125,-0.18595227599143982,2.933889389038086,-0.06401827931404114
1772045308699332600,7.24733251953125,-0.14343863725662231,2.70487642288208,-0.09664946049451828
1772045308709318700,7.257318603515625,-0.14362120628356934,2.498347043991089,-0.020749876275658607
1772045308719303700,7.2673037109375,-0.15394867956638336,2.2653472423553467,0.09042378515005112
1772045308729289700,7.277289794921875,-0.15662884712219238,2.010742664337158,0.18092116713523865
1772045308739275800,7.28727587890625,-0.11492481082677841,1.8498739004135132,0.23543447256088257
1772045308749260500,7.297260498046875,-0.024552376940846443,1.8062547445297241,0.27157828211784363
1772045308759246600,7.30724658203125,0.1166020929813385,1.8210365772247314,0.29133015871047974
1772045308769232600,7.317232666015625,0.2844536304473877,1.793904185295105,0.28835490345954895
1772045308779217700,7.3272177734375,0.4599868357181549,1.6945573091506958,0.28761348128318787
1772045308789203700,7.33720361328125,0.6217445135116577,1.5083143711090088,0.3157844841480255
1772045308799189800,7.347189697265625,0.7641685009002686,1.2717788219451904,0.38298749923706055
1772045308809174800,7.3571748046875,0.8937157988548279,1.0140626430511475,0.48313668370246887
1772045308819160600,7.36716064453125,0.9916516542434692,0.8269340991973877,0.5825836062431335
1772045308829146600,7.377146728515625,1.0404642820358276,0.8049337267875671,0.6496702432632446
1772045308839132000,7.3871318359375,1.0415031909942627,0.8813818693161011,0.6975432634353638
1772045308849117700,7.39711767578125,1.0075725317001343,0.9366907477378845,0.7223082184791565
1772045308859104000,7.40710400390625,0.9455243349075317,0.9162741899490356,0.7150846719741821
1772045308869088800,7.4170888671875,0.8857866525650024,0.8511496782302856,0.6644577383995056
1772045308879074800,7.42707470703125,0.8588389158248901,0.7544084787368774,0.5940549373626709
1772045308889060600,7.437060546875,0.8525983691215515,0.6809031367301941,0.5100187659263611
1772045308899045600,7.447045654296875,0.8452914953231812,0.6761012077331543,0.4113366901874542
1772045308909032000,7.457031982421875,0.8339553475379944,0.7316505908966064,0.2906728982925415
1772045308919017000,7.467016845703125,0.8083873987197876,0.7736337184906006,0.13627557456493378
1772045308929002800,7.477002685546875,0.7708145380020142,0.7445735335350037,-0.03425794467329979
1772045308938988800,7.48698876953125,0.7142695188522339,0.6655429005622864,-0.1985374391078949
1772045308948973800,7.496973876953125,0.6610314249992371,0.5754522681236267,-0.3186517059803009
1772045308958959900,7.5069599609375,0.620166003704071,0.48975732922554016,-0.40386006236076355
1772045308968945700,7.516945556640625,0.6056107878684998,0.4632541835308075,-0.4662529230117798
1772045308978930700,7.5269306640625,0.5920824408531189,0.550527036190033,-0.5249831080436707
1772045308988917000,7.5369169921875,0.5886790752410889,0.7143876552581787,-0.5581890940666199
1772045308998902800,7.54690283203125,0.6014471054077148,0.8114625811576843,-0.5903823971748352
1772045309008887800,7.5568876953125,0.6227091550827026,0.7657868266105652,-0.6281280517578125
1772045309018873900,7.566873779296875,0.64457768201828,0.622207522392273,-0.6348243355751038
1772045309028860000,7.57685986328125,0.6646657586097717,0.48705288767814636,-0.5731355547904968
1772045309038845000,7.586844970703125,0.6815919876098633,0.4209391176700592,-0.4510122835636139
1772045309048830700,7.596830810546875,0.70893794298172,0.43777623772621155,-0.2831741273403168
1772045309058817000,7.606817138671875,0.742470920085907,0.4465138018131256,-0.0916542112827301
1772045309068801800,7.6168017578125,0.788412868976593,0.4183003902435303,0.076376773416996
1772045309078787800,7.626787841796875,0.7862144112586975,0.38403749465942383,0.15650463104248047
1772045309088773600,7.636773681640625,0.7293912768363953,0.33556464314460754,0.1514595001935959
1772045309098759000,7.646759033203125,0.6536195278167725,0.35340675711631775,0.0827195793390274
1772045309108745000,7.656744873046875,0.6216192841529846,0.45117485523223877,-0.014204960316419601
1772045309118730800,7.666730712890625,0.632784366607666,0.5717865228652954,-0.09729957580566406
1772045309128715800,7.6767158203125,0.6490963697433472,0.6502499580383301,-0.1536320149898529
1772045309138701800,7.686701904296875,0.6801294088363647,0.6883952021598816,-0.1946668028831482
1772045309148688000,7.69668798828125,0.7094693183898926,0.699607253074646,-0.22414888441562653
1772045309158673000,7.7066728515625,0.6919116377830505,0.7127528786659241,-0.24081653356552124
