time,seconds_elapsed,z,y,x
1772093626040632000,0.148632080078125,0.07746493247449397,-0.0490684754810296,0.026141819067625326
1772093626050582000,0.15858203125,0.07102759290337562,-0.03765230631772429,0.027161818898282942
1772093626060531000,0.168531005859375,0.07207797873914241,-0.036872590649500485,0.03308467874177731
1772093626070481200,0.178481201171875,0.06624211219251155,-0.0372155954008922,0.030772282746713606
1772093626080431000,0.18843115234375,0.07178279518485069,-0.050472515326365826,0.03165094701107591
1772093626090380000,0.198380126953125,0.06250877088308333,-0.04550059039900079,0.03571091732583009
1772093626100330000,0.208330078125,0.0635562341094017,-0.0439813632087782,0.028977060759859157
1772093626110280000,0.218280029296875,0.07373159116506577,-0.047451432205829765,0.030134642430301752
1772093626120230000,0.22822998046875,0.06520107870697975,-0.04225472207926213,0.02410201120255515
1772093626130178800,0.2381787109375,0.07761866173148155,-0.04486455751778558,0.030444840890634803
1772093626140128800,0.248128662109375,0.06953706208467483,-0.03676472809454426,0.023168319682171565
1772093626150079000,0.258078857421875,0.07716682631075382,-0.04132472948646173,0.020642783259926363
1772093626160028000,0.26802783203125,0.07417465875744819,-0.04466740924417972,0.02872738771457225
1772093626169977900,0.277977783203125,0.0788145935177803,-0.03374189140833914,0.03462888510962948
1772093626179928000,0.287927978515625,0.07552198171317577,-0.03161138218566775,0.03311729323659092
1772093626189877000,0.297876953125,0.07118132216036319,-0.024647936381213365,0.031024440010031684
1772093626199827000,0.307826904296875,0.07521861485242844,-0.03971168653294444,0.02530563310496509
1772093626209777000,0.31777685546875,0.08314648524224758,-0.031143490679282692,0.03156490356228314
1772093626219727000,0.32772705078125,0.06174655433893203,-0.03529350476451218,0.03762361907935701
1772093626229676000,0.337676025390625,0.07835808192193508,-0.04084207880236208,0.031533458111248906
1772093626239626000,0.3476259765625,0.07207096447646617,-0.030455252686794845,0.035029017742583525
1772093626249576000,0.357575927734375,0.059951487615704534,-0.03939529579384252,0.020254094469593836
1772093626259525000,0.367525146484375,0.0672813921123743,-0.05080238660154864,0.02175796882705763
1772093626269475000,0.37747509765625,0.0636912586659193,-0.049769572955090546,0.02889130957201123
1772093626279425800,0.38742578125,0.06398936482965946,-0.06038324836278334,0.026958834538934752
1772093626289374700,0.397374755859375,0.07715630491673946,-0.04477866933261975,0.035665863474551585
1772093626299324700,0.40732470703125,0.06518646565973758,-0.04026446157749742,0.03267470056824386
1772093626309275000,0.41727490234375,0.07147475214898585,-0.032372539283894,0.022461961511103436
1772093626319224800,0.427224853515625,0.07296820557713508,-0.030677517135348168,0.02827948868344538
1772093626329173800,0.437173828125,0.06757832923233509,-0.03538721092995256,0.027439238467020913
1772093626339123700,0.447123779296875,0.07774959463477134,-0.03915407091649249,0.02722327589509077
1772093626349074000,0.457073974609375,0.06921791313290596,-0.0385047036296688,0.031327989533869546
1772093626359022800,0.46702294921875,0.06682429599463939,-0.03223656487930566,0.024741386818327007
1772093626368972800,0.476972900390625,0.0757996296107769,-0.02538017791220918,0.035838133035227655
1772093626378923000,0.486923095703125,0.06053542498350143,-0.020848544098250568,0.031480184420896694
1772093626388872000,0.496871826171875,0.07699556139707565,-0.04192627557618543,0.0278003268643748
1772093626398822000,0.50682177734375,0.07400280932188033,-0.0443044028843753,0.029126524833682922
1772093626408771800,0.516771728515625,0.053204935964941975,-0.05037015093043446,0.036076864561391996
1772093626418721800,0.5267216796875,0.06487608453631401,-0.025027473750710485,0.028870641243318094
1772093626428671000,0.5366708984375,0.06576864946186542,-0.0230704944640398,0.02572683592541143
1772093626438621000,0.546620849609375,0.07294657826721668,-0.038250893265381454,0.022455129911517723
1772093626448570600,0.556570556640625,0.0763876586318016,-0.03155028138188645,0.0343002376771532
1772093626458519800,0.566519775390625,0.07504325828552245,-0.043807760207541284,0.026797552163153885
1772093626468469800,0.5764697265625,0.07130465627908707,-0.04679532465096563,0.024122423802921546
1772093626478419700,0.586419677734375,0.07414952431619166,-0.04128014142606407,0.027023095414182168
1772093626488368600,0.59636865234375,0.06667056673765182,-0.04881044559935108,0.0324069530101493
1772093626498318800,0.60631884765625,0.07130991697609425,-0.04434871695013717,0.023889482696726916
1772093626508268800,0.616268798828125,0.07160919218361378,-0.03001249562166631,0.027156211141403763
1772093626518218800,0.62621875,0.07070961299538613,-0.03476816571615636,0.02627096187262796
1772093626528167700,0.636167724609375,0.07983750682473183,-0.04723369780192151,0.031243754449672995
1772093626538118000,0.646117919921875,0.06726911715269088,-0.03970209672069177,0.03226094126873649
1772093626548067800,0.65606787109375,0.0728057084918022,-0.028878925014473495,0.025780118748918175
1772093626558016800,0.666016845703125,0.07789104893207549,-0.02912184865856543,0.02031876633679494
1772093626567967000,0.675967041015625,0.07055763730406761,-0.036564931206125764,0.025401284632319582
1772093626577917000,0.6859169921875,0.07100538107156754,-0.04245081090694293,0.026089403893798588
1772093626587865900,0.695865966796875,0.07115384963154793,-0.037294304926600304,0.020961256358260287
1772093626597815800,0.70581591796875,0.0710071346372366,-0.04122145177507773,0.015581198154576122
1772093626607766000,0.71576611328125,0.08058803293108939,-0.02139983957177028,0.018104058562545104
1772093626617715700,0.7257158203125,0.06996434758603573,-0.035236824407521634,0.02630075422269292
1772093626627665000,0.735664794921875,0.06682254242897033,-0.040462011709902435,0.02551540339812636
1772093626637614800,0.74561474609375,0.0650286447495222,-0.03613960019983351,0.02934918200788088
1772093626647564800,0.755564697265625,0.059795420271158216,-0.03408073144126683,0.03014050591550767
1772093626657514000,0.765513916015625,0.06383446652889252,-0.03768503954354673,0.027070606084028257
1772093626667463700,0.775463623046875,0.07909633306860923,-0.037252876937668766,0.03151572152515873
1772093626677414000,0.785413818359375,0.06936988882422447,-0.03646059404881671,0.03549559407471679
1772093626687363800,0.79536376953125,0.08657762873470783,-0.042972880285978315,0.03636855011750013
1772093626697312800,0.805312744140625,0.07086100416481494,-0.03826978062894195,0.03608390622353181
1772093626707262700,0.8152626953125,0.05829086092710495,-0.04329831284806132,0.031872435141494494
1772093626717213000,0.825212890625,0.08013970464169978,-0.04029984341813251,0.03247503154398873
1772093626727161900,0.835161865234375,0.07460252878069877,-0.03606397768035531,0.024229354776116086
1772093626737111800,0.84511181640625,0.07953940066099166,-0.029647315571084618,0.014243684206809848
1772093626747061800,0.855061767578125,0.08058394127786159,-0.033361184995062645,0.022663228837400674
1772093626757011000,0.865010986328125,0.08073299435973166,-0.03993798783579841,0.01739949048976414
1772093626766961000,0.8749609375,0.08282558272480964,-0.0462790274255909,0.01992846097811125
1772093626776910800,0.884910888671875,0.06501461622416972,-0.04117783182905987,0.027430662434920667
1772093626786861000,0.894861083984375,0.07877718411684036,-0.036206893282383676,0.02564181538992561
1772093626796810000,0.90481005859375,0.07278817283511162,-0.03986026469077915,0.021983813472185282
1772093626806760000,0.914760009765625,0.061115270698070524,-0.03519053758038208,0.024222568842303005
1772093626816709600,0.924709716796875,0.06979132910668849,-0.038806389989983286,0.02677883832952939
1772093626826658800,0.934658935546875,0.0641010085105896,-0.040846937640570104,0.023350900574307887
1772093626836608800,0.94460888671875,0.06604337475001812,-0.04062911190511659,0.03462664748677052
1772093626846558700,0.954558837890625,0.06215104348659515,-0.04320911846095696,0.023365842415113
1772093626856508000,0.9645078125,0.07546528308987617,-0.04173709141332656,0.031735602220380674
1772093626866457900,0.974457763671875,0.0815986712783575,-0.03274626796711236,0.02609949602955021
1772093626876407800,0.98440771484375,0.08039923236072063,-0.024283779243938625,0.03675151241994463
1772093626886357800,0.994357666015625,0.08743453782498836,-0.03502292592851445,0.03103083321820013
1772093626896306700,1.004306640625,0.07127426114082336,-0.045135337283182884,0.03075095683089457
1772093626906257000,1.0142568359375,0.05780453871488571,-0.04441531591294333,0.03214187233317643
1772093626916206800,1.024206787109375,0.07052665764391422,-0.04000562797822058,0.02126593839325942
1772093626926155800,1.03415576171875,0.05751052420437336,-0.026565734434965998,0.03236097671026364
1772093626936105700,1.044105712890625,0.07576397377550602,-0.025801472064200786,0.03533038444248959
1772093626946056000,1.054055908203125,0.06917758112251758,-0.03464380868412554,0.032320936960820106
1772093626956006000,1.064005859375,0.07800678426623343,-0.025917043001577256,0.020595491785788907
1772093626965954800,1.073954833984375,0.06768003604114055,-0.03366148311588913,0.014096549087390303
1772093626975905000,1.083905029296875,0.07740414219796657,-0.035851083848346024,0.019449865414621306
1772093626985855000,1.09385498046875,0.07994564337432385,-0.034568953349627556,0.01543395343730226
1772093626995804000,1.103803955078125,0.08922434385120868,-0.03101823859810829,0.01841075902469456
1772093627005753900,1.11375390625,0.07007248413562774,-0.03233761410098523,0.021446729187108576
1772093627015703800,1.123703857421875,0.07890285632312298,-0.029223007478099316,0.016275564493751154
1772093627025653000,1.133653076171875,0.08294657875597476,-0.033870650620851664,0.011259215902769938
1772093627035602700,1.143602783203125,0.07920797674953937,-0.04779664718061685,0.013792835166770965
1772093627045552600,1.153552734375,0.08025368641018867,-0.046553003795072434,0.020140057902177794
1772093627055502800,1.1635029296875,0.060462359747290605,-0.04429194526160136,0.030614772363752124
1772093627065451800,1.17345166015625,0.21873393633961677,0.005772665117308497,0.018252280527353285
1772093627075401700,1.183401611328125,-0.08419920916557312,-0.0760551570081152,-0.0337137704255525
1772093627085352000,1.19335205078125,-0.03335164998173713,-0.05477318992866203,0.048208232789346946
1772093627095300900,1.20330078125,0.2048468652844429,0.0004652976904995739,0.09718573291813955
1772093627105250800,1.213250732421875,-0.11410334904193878,-0.05527697473233566,-0.08303507902333512
1772093627115200800,1.22320068359375,0.1778244183242321,-0.08529630195358767,0.044865132906520735
1772093627125151000,1.23315087890625,0.02428746903836727,-0.015197441267687826,0.11333584440131671
1772093627135100000,1.243099853515625,0.054714171484112735,-0.04441235677087679,-0.04454872390110977
1772093627145049900,1.2530498046875,0.14686989261209965,-0.037562582207657395,0.050208192701218644
1772093627154999800,1.262999755859375,-0.001124035593867302,-0.0129414607681334,0.10357811910267918
1772093627164949000,1.272948974609375,0.145237322974205,-0.042204215734731404,-0.0031146522886585444
1772093627174899000,1.28289892578125,0.0754904175311327,-0.021217176481243223,0.03851672286102548
1772093627184849000,1.292848876953125,0.06322364115417003,-0.03789055378669873,0.048851745724119246
1772093627194798800,1.302798828125,0.09060849168598652,-0.055258891086373475,0.004185048865992576
1772093627204748000,1.312748046875,0.06920972982645035,-0.02282656617294997,0.030953091806871814
1772093627214697700,1.32269775390625,0.08493044604957103,-0.038086459951288995,0.017116170903202145
1772093627224647700,1.332647705078125,0.04063070107400417,-0.034751853902172294,0.03373386336551048
1772093627234596600,1.3425966796875,0.07161036122739314,-0.029234515252802518,0.03594023256967775
1772093627244546800,1.352546875,0.0717605833530426,-0.05069688040046021,0.017081565380701793
1772093627254496800,1.362496826171875,0.06337152519226073,-0.05336060145068913,0.033384301009168844
1772093627264445700,1.37244580078125,0.07399521053731441,-0.04819850597977638,0.024491576775722203
1772093627274395000,1.382394775390625,0.06486673218607902,-0.052289757348783314,0.014213663527881726
1772093627284344800,1.3923447265625,0.06576397328674793,-0.03491091692140326,0.025304993784148244
1772093627294295000,1.402294921875,0.06815583685934543,-0.03918702333802357,0.01937793268957175
1772093627304244000,1.412243896484375,0.06456745697855949,-0.034785536976065484,0.008806288059009239
1772093627314194000,1.42219384765625,0.07250000354349613,-0.045126953047327695,0.01882277389168739
1772093627324143900,1.432143798828125,0.07070552134215831,-0.035553324744477866,0.01206869652159512
1772093627334093000,1.442093017578125,0.07594342199563979,-0.03120490201031789,0.014411898646876215
1772093627344043000,1.45204296875,0.06906067674458026,-0.017302030597813427,0.01976984548345208
1772093627353993000,1.461992919921875,0.07519581849873065,-0.025871340696327388,0.019982319190353155
1772093627363943200,1.471943115234375,0.07863865242898464,-0.03248325138306245,0.025021144474623724
1772093627373892000,1.48189208984375,0.07624503529071808,-0.02256612513847649,0.02296657743183896
1772093627383842000,1.491842041015625,0.08552139768004417,-0.024783216666057706,0.023781547076534477
1772093627393792000,1.5017919921875,0.07788812632262707,-0.03568789264326915,0.02834486380354501
1772093627403741000,1.511740966796875,0.07384791102111339,-0.03742021459490061,0.01930348834702745
1772093627413691100,1.521691162109375,0.06830839707255364,-0.045769908859673886,0.02911636876584962
1772093627423641000,1.53164111328125,0.06860591871440411,-0.0498310025524348,0.03655797174237668
1772093627433590800,1.5415908203125,0.07264438045024871,-0.04603763815145939,0.033979399091796945
1772093627443540200,1.551540283203125,0.06860065801739693,-0.04451013632323593,0.03861269404878839
1772093627453490000,1.561489990234375,0.06530746169090271,-0.052141197457257656,0.030638984356401486
1772093627463440000,1.57143994140625,0.06695113724470138,-0.0415611503245309,0.028852877257764337
1772093627473388800,1.581388916015625,0.0771241562128067,-0.04003914665533229,0.034056665579089894
1772093627483339000,1.591339111328125,0.0636567718744278,-0.047443979551736265,0.02593754693348892
1772093627493289000,1.6012890625,0.08460720544457435,-0.03835733104823157,0.02532360715307295
1772093627503239000,1.611239013671875,0.07383563606142997,-0.033615762544330206,0.022826803634967655
1772093627513187800,1.621187744140625,0.07713233951926231,-0.03386239424915984,0.025311761451652273
1772093627523138000,1.631137939453125,0.07234510524272918,-0.0339603564646095,0.02113085903781466
1772093627533088000,1.641087890625,0.06919920843243599,-0.03791305787945166,0.02048041403875686
1772093627543037000,1.651036865234375,0.06515899313092231,-0.031204682814609256,0.016961163004580886
1772093627552987100,1.660987060546875,0.0784790779531002,-0.03450483860485255,0.020660656843334436
1772093627562937000,1.67093701171875,0.06890577844381332,-0.0354370962199755,0.018981279788492247
1772093627572886000,1.680885986328125,0.0762356829404831,-0.04429651183886453,0.025416199073661116
1772093627582836000,1.6908359375,0.07219488311707974,-0.038012883258424696,0.025578349099121985
1772093627592786200,1.7007861328125,0.07279460257589816,-0.035026012934744354,0.016830568028008565
1772093627602735900,1.71073583984375,0.06755787096619606,-0.030717118493374437,0.023954401159100233
1772093627612685000,1.72068505859375,0.07833119391500949,-0.03423018638193607,0.02432713432847522
1772093627622635000,1.730635009765625,0.07025076331198216,-0.03441060271644965,0.03023444954296574
1772093627632585000,1.7405849609375,0.06920446912944317,-0.043909631413128224,0.02770060195010155
1772093627642534100,1.7505341796875,0.06771393831074238,-0.03858107506781816,0.02561036993889138
1772093627652483800,1.76048388671875,0.06442658720314502,-0.03890798720093444,0.02628498126482591
1772093627662434000,1.77043408203125,0.08058627936542034,-0.035753541758004576,0.02530547784133814
1772093627672384000,1.780384033203125,0.07235387307107448,-0.0345534087206237,0.02244870017073117
1772093627682333000,1.7903330078125,0.07924070997536183,-0.035737558737583455,0.03003531024167314
1772093627692283000,1.800282958984375,0.07325695939064025,-0.04694284336287528,0.014612864579074084
1772093627702233000,1.810233154296875,0.07460603591203689,-0.028219949649088083,0.03259355249027721
1772093627712182000,1.82018212890625,0.0807400086224079,-0.03461924049844965,0.022135496902558952
1772093627722132000,1.830132080078125,0.07655074023902415,-0.045032169169653205,0.01736252861339599
1772093627732082000,1.84008203125,0.06936813525855541,-0.03905777093516662,0.024258352541737256
1772093627742032100,1.8500322265625,0.07624971146583556,-0.03401460740249604,0.025914120392128825
1772093627751981000,1.85998095703125,0.06337970849871635,-0.037671431143302465,0.024675089249620214
1772093627761931000,1.869930908203125,0.07669745523333549,-0.048436369856260715,0.02436675395281054
1772093627771881200,1.879881103515625,0.07654840215146541,-0.041052324019558724,0.03225985442334786
1772093627781831000,1.889830810546875,0.07445464474260807,-0.03770047457469627,0.02795997440549545
1772093627791780000,1.899780029296875,0.06457973193824292,-0.04226111528743058,0.028272291757678612
1772093627801729800,1.909729736328125,0.06892214505672455,-0.05355020573865622,0.028948090393701567
1772093627811680000,1.919679931640625,0.0671288318991661,-0.035578751446679234,0.024035987628484145
1772093627821629000,1.92962890625,0.07730652704238891,-0.042124538094643504,0.022675850856956094
1772093627831579000,1.939578857421875,0.06309563086032867,-0.03838887696396559,0.018196458686888215
1772093627841528800,1.94952880859375,0.07372282333672046,-0.03588440159605816,0.01969544680668041
1772093627851479000,1.95947900390625,0.07208031682670116,-0.04642152290251106,0.010393164524808525
1772093627861428000,1.969427978515625,0.07298398766815661,-0.039741606747172774,0.02524079684098251
1772093627871378000,1.9793779296875,0.08061258285045624,-0.024989662490971384,0.020006914775492622
1772093627881328000,1.989328125,0.10021160181164741,-0.029245968228578566,0.025690166309988126
1772093627891277000,1.999277099609375,0.06175532216727733,-0.031851602416019885,0.02402880896902643
1772093627901227000,2.00922705078125,0.057868251600861544,-0.03435129201095551,0.029832015355071052
1772093627911177000,2.019177001953125,0.07313420979380607,-0.03274593917354941,0.03896464929161593
1772093627921126000,2.0291259765625,0.06595452742278575,-0.032497718299832196,0.03139362038229592
1772093627931076000,2.039076171875,0.06475625754892826,-0.04422193049900233,0.02759546107519418
1772093627941026000,2.049026123046875,0.08540800043344497,-0.04366725575830787,0.024227153685875236
1772093627950976000,2.05897607421875,0.06476034920215606,-0.03996849257191643,0.013782021511811762
1772093627960925200,2.06892529296875,0.07268997315764426,-0.035615539793111384,0.02287576647638343
1772093627970875100,2.078875244140625,0.08047112855315208,-0.02726266719056293,0.01769798937914893
1772093627980824800,2.088824951171875,0.06925181540250777,-0.03422466995660215,0.015769058010028675
1772093627990775000,2.098775146484375,0.0707493604838848,-0.027868377998750655,0.031037938812421634
1772093628000724000,2.108723876953125,0.07045125432014465,-0.03337227264465764,0.02171471420722082
1772093628010674000,2.118673828125,0.07419511702358722,-0.03857188711436465,0.02134091245876625
1772093628020624000,2.128623779296875,0.06836100404262542,-0.0284421775650233,0.022190734221134333
1772093628030572800,2.13857275390625,0.07030804645717144,-0.04026924735046923,0.017411820248374715
1772093628040523000,2.14852294921875,0.08303250347375869,-0.03772511582560837,0.015452703803544863
1772093628050473000,2.158472900390625,0.07121113277673721,-0.029251429854985325,0.024811164118908345
1772093628060423000,2.1684228515625,0.06522562862634658,-0.04337629172140732,0.031929051566403355
1772093628070372000,2.1783720703125,0.07300561497807502,-0.03184659744733944,0.01434098883513361
1772093628080322000,2.188322021484375,0.07345394326746463,-0.027923889311961828,0.015397703946987166
1772093628090272000,2.19827197265625,0.08273322826623916,-0.03485536907557398,0.01739337127623148
1772093628100221000,2.208220947265625,0.07644669534265995,-0.022161325463559478,0.027020200204197316
1772093628110171100,2.218171142578125,0.07300444593429566,-0.025875596746336667,0.031504286815691736
1772093628120121000,2.22812109375,0.08347440202236175,-0.037734468175843354,0.01547349999640137
1772093628130071000,2.238071044921875,0.10620821187794208,-0.02104611249696463,0.038242874355707314
1772093628140020000,2.24802001953125,0.06401391474902629,-0.03738273212872446,0.024397149091074242
1772093628149970200,2.25797021484375,0.026005963394045827,-0.03696505470592528,0.02544481324679218
1772093628159919900,2.267919921875,0.1002209541618824,-0.013409114812500775,0.02743866307828575
1772093628169869000,2.277869140625,0.031547230908274645,-0.07865213296506554,0.010004174340376629
1772093628179819000,2.287819091796875,0.07569441567063331,-0.05290098458230495,0.02105140059343539
1772093628189769000,2.29776904296875,0.07031330715417862,-0.04477742722360417,0.03746802665884606
1772093628199719000,2.307718994140625,0.061789808958768844,-0.04172903597103431,0.016259453609166665
1772093628209667800,2.317667724609375,0.10847264967858791,-0.039279140334576364,0.03744588789227418
1772093628219618000,2.3276181640625,0.06597381664514541,-0.028554953757114705,0.03246714963163249
1772093628229568000,2.337568115234375,0.09140928667485713,-0.04173495425516739,0.014858354639587923
1772093628239517000,2.347516845703125,0.089458737128973,-0.023160364704579113,0.018503013018565252
1772093628249467000,2.357466796875,0.07464344531297683,-0.04455934575982391,0.00850440076929517
1772093628259417000,2.3674169921875,0.07135141803026199,-0.051954753240756685,0.017542113830847663
1772093628269367000,2.377366943359375,0.06656476827561855,-0.03701702235518023,0.02804499494098127
1772093628279316000,2.38731591796875,0.07075637474656105,-0.032831626429315655,0.018355485173501072
1772093628289266000,2.397265869140625,0.06850830355882644,-0.03896424743281677,0.029752392513910306
1772093628299216000,2.4072158203125,0.08451835811734199,-0.03629807869717479,0.030595811934955416
1772093628309164800,2.417164794921875,0.06880524067878722,-0.038363121468201276,0.021118648010212928
1772093628319115000,2.427114990234375,0.07299217097461223,-0.04163832548027858,0.02709313757624477
1772093628329065000,2.43706494140625,0.07852408613860606,-0.044948801735136656,0.026863347408361733
1772093628339014700,2.4470146484375,0.06729600515961646,-0.04213250220539048,0.03131322122300043
1772093628348963800,2.4569638671875,0.07118366024792194,-0.036514388328976924,0.037451020725117995
1772093628358913800,2.466913818359375,0.07043722579479217,-0.026319120996445417,0.02563268223539926
1772093628368863700,2.47686376953125,0.07118015311658382,-0.021407182628009468,0.022774534591613337
1772093628378812700,2.486812744140625,0.06684007808566093,-0.036060269619617606,0.018600564242061225
1772093628388762600,2.4967626953125,0.08674480199515819,-0.03219897281527519,0.026232155099045484
1772093628398712800,2.506712890625,0.06070318276584148,-0.025390480110514906,0.031176735361758617
1772093628408662800,2.516662841796875,0.0665402183562517,-0.03093412224492058,0.027657045936165376
1772093628418611700,2.52661181640625,0.06175006147027015,-0.03648757338728755,0.021214281271258368
1772093628428562000,2.53656201171875,0.07102583933770656,-0.02219089861791581,0.026631630144873634
1772093628438511900,2.546511962890625,0.07685878327488899,-0.035571554520912464,0.021656298550870267
1772093628448461800,2.5564619140625,0.0713204383701086,-0.03696233302587643,0.02016745736575685
1772093628458410800,2.56641064453125,0.07775543985366822,-0.035375849285721774,0.023800315709086133
1772093628468361000,2.57636083984375,0.05994564239680767,-0.03557539044581354,0.017628111613867802
1772093628478311000,2.586310791015625,0.0761088416904211,-0.024563162440899757,0.017068532369192688
1772093628488259800,2.596259765625,0.07236907064020633,-0.026288470129854975,0.014621897268900647
1772093628498209800,2.606209716796875,0.07252046180963516,-0.016656828029453754,0.007989400451863185
1772093628508160000,2.616159912109375,0.07625906381607055,-0.021105204006750134,0.018374838327942414
1772093628518109700,2.626109619140625,0.07670446949601173,-0.029308822598028927,0.021634744306188076
1772093628528059000,2.636058837890625,0.07475976516902447,-0.029036344065889716,0.023432934568263588
1772093628538008800,2.6460087890625,0.07191548165380954,-0.03355457040900364,0.02610467452816665
1772093628547958800,2.655958740234375,0.06682955669164657,-0.026660646176803856,0.026854652645252643
1772093628557907700,2.66590771484375,0.06967559377253055,-0.03702215518802404,0.01953026457391679
1772093628567857700,2.675857666015625,0.06713643068373203,-0.038338644614070654,0.023978859746921807
1772093628577808000,2.685807861328125,0.06773615014255047,-0.050728097522631285,0.03035259602991864
1772093628587757800,2.6957578125,0.07611994760632515,-0.0475404439298436,0.025326109637413174
1772093628597706800,2.705706787109375,0.06190671333670616,-0.050737888264283534,0.02313027096041478
1772093628607656700,2.71565673828125,0.0614560469597578,-0.040806386434473096,0.029329563991958275
1772093628617607000,2.72560693359375,0.06340659650564193,-0.03618192323790863,0.023062877413164824
1772093628627555800,2.735555908203125,0.07807283523976802,-0.023944299890194087,0.020411604852555318
1772093628637505800,2.745505859375,0.07942366532683372,-0.027484876840189097,0.02340690507786348
1772093628647456000,2.7554560546875,0.06924713922739029,-0.03094612320996821,0.035765588388824834
1772093628657406000,2.765406005859375,0.07134031211435794,-0.03555889596873894,0.03286632328336127
1772093628667355000,2.77535498046875,0.08600479728281497,-0.0371646506649442,0.01830329832853749
1772093628677304800,2.785304931640625,0.07477963891327381,-0.038032336877565825,0.012742887722421437
1772093628687254800,2.7952548828125,0.07283142745494842,-0.024902166870608925,0.025674968740856275
1772093628697204000,2.805203857421875,0.0791150377690792,-0.036257618822623044,0.02991315429988317
1772093628707154000,2.81515380859375,0.07881751612722873,-0.04136128037087619,0.02652047052113339
1772093628717103600,2.825103515625,0.0701437958061695,-0.0392753409422934,0.03327019137651659
1772093628727053800,2.8350537109375,0.08046703689992428,-0.03990644192006439,0.02917488488689996
1772093628737002800,2.845002685546875,0.07388590494394302,-0.03470072650313377,0.030128276621596888
1772093628746952700,2.85495263671875,0.07328793905079364,-0.037904399648960675,0.024700086693558842
1772093628756903000,2.86490283203125,0.07986848648488522,-0.039000067664869124,0.02423863406111486
1772093628766852900,2.874852783203125,0.06131751527190208,-0.040670083236321805,0.023131220808485523
1772093628776801800,2.8848017578125,0.07313947049081325,-0.03382018080893904,0.020288179402286187
1772093628786751700,2.894751708984375,0.07148994971811772,-0.034017146419454365,0.02337873842930421
1772093628796702000,2.904701904296875,0.06266133109629154,-0.034543654511589555,0.02312243471383117
1772093628806651000,2.91465087890625,0.07328677000701427,-0.02847173245307058,0.015720177367003634
1772093628816600800,2.924600830078125,0.07209025369882584,-0.03294553513256833,0.01641312806722708
1772093628826550800,2.93455078125,0.06939619230926036,-0.025710158785246313,0.014149411785788834
1772093628836501000,2.9445009765625,0.07298691027760505,-0.02955397473182529,0.031153902475442734
1772093628846450000,2.954449951171875,0.0714905342400074,-0.033422523260861633,0.02125371823250316
1772093628856400000,2.96439990234375,0.059520110461115834,-0.02928071074839681,0.022641692859027535
1772093628866349800,2.974349853515625,0.06386018549203873,-0.03774977534282952,0.03118694622851908
1772093628876299000,2.984299072265625,0.07134498828947544,-0.03707269806517288,0.034498637192929164
1772093628886248700,2.994248779296875,0.07523205885589122,-0.039749461260065434,0.028408138298103583
1772093628896198700,3.00419873046875,0.07463350844085216,-0.03318615722171962,0.024662512895837426
1772093628906148900,3.01414892578125,0.07089315286874771,-0.022075364213157443,0.026691150912921874
1772093628916097800,3.024097900390625,0.0725403355538845,-0.03283606514241546,0.022676554109854623
1772093628926047700,3.0340478515625,0.061465983831882474,-0.04063524938495829,0.0251759149112273
1772093628935997700,3.043997802734375,0.0708937373906374,-0.03276809620643034,0.023756166040105744
1772093628945947000,3.05394677734375,0.0692465547055006,-0.03876958337724209,0.017484967682976273
1772093628955896800,3.063896728515625,0.06341185720264911,-0.029412246439885346,0.020498232823237775
1772093628965846800,3.0738466796875,0.0837596487045288,-0.029375458093453197,0.028443145679403096
1772093628975797000,3.083796875,0.08421089960336685,-0.034897418119013306,0.021299338339362293
1772093628985746000,3.093745849609375,0.06415946069955826,-0.038633426309563214,0.015584805750614031
1772093628995695900,3.10369580078125,0.06595569646656513,-0.03581027691392228,0.020234394255280494
1772093629005645800,3.113645751953125,0.06924889279305935,-0.03267051758347079,0.01804567030565813
1772093629015596000,3.123595947265625,0.06431085186898708,-0.03421750956345349,0.01962261903248727
1772093629025545000,3.133544921875,0.06281447583138942,-0.03402070834971964,0.02255532974982634
1772093629035495000,3.143494873046875,0.07867723087370396,-0.029951888008229434,0.02150701714013703
1772093629045444600,3.153444580078125,0.07059680027067661,-0.031137755058240145,0.025064819219568744
1772093629055394000,3.16339404296875,0.07703472436368465,-0.03738002871498465,0.025414326776983215
1772093629065343700,3.17334375,0.08257306926846504,-0.039011173580773176,0.027579386723227798
1772093629075293700,3.183293701171875,0.08047814281582832,-0.03035159138292074,0.024899664386268703
1772093629085244000,3.193243896484375,0.07104980473518371,-0.03180741621442139,0.026739127373648804
1772093629095192800,3.20319287109375,0.07105331186652183,-0.03901932035461068,0.02883363370117731
1772093629105142800,3.213142822265625,0.06387070688605308,-0.03701806353479624,0.02113987346133217
1772093629115092700,3.2230927734375,0.06701485013067722,-0.031094884030893444,0.01822557518351823
1772093629125043000,3.23304296875,0.06911211467087268,-0.03530556052848696,0.0167406795211602
1772093629134992000,3.242991943359375,0.06910919206142425,-0.03414491925127804,0.02486631923909299
1772093629144941800,3.25294189453125,0.06417115113735199,-0.037166824355721474,0.01639652399229817
1772093629154891800,3.262891845703125,0.07270458620488643,-0.034328422592021526,0.020481281688436864
1772093629164841000,3.272841064453125,0.06701777274012566,-0.03728285195082426,0.017776223980821668
1772093629174791000,3.282791015625,0.07300152332484722,-0.02882885706136003,0.017517490846244616
1772093629184740900,3.292740966796875,0.063124856954813,-0.025300317609030752,0.019473958676261827
1772093629194690800,3.30269091796875,0.06566694265305996,-0.0421214876210317,0.021690146021544933
1772093629204640000,3.312639892578125,0.07524316477179527,-0.03227399254655465,0.022080624910164624
1772093629214590000,3.32258984375,0.07674129437506198,-0.026230255402904003,0.025240568512119352
1772093629224539600,3.33253955078125,0.07285247024297714,-0.03761533530820161,0.022737983707198872
1772093629234488800,3.34248876953125,0.07928454911708831,-0.04452474937047809,0.0224315207070671
1772093629244438800,3.352438720703125,0.07794014877080917,-0.04839211058942601,0.022365917258104308
1772093629254388700,3.362388671875,0.07000935577154159,-0.03746860204758122,0.021895979925105346
1772093629264338700,3.372338623046875,0.06836451117396354,-0.04068769195824861,0.02127540034134872
1772093629274288000,3.3822880859375,0.06896423063278198,-0.03601962708197534,0.021592266004486008
1772093629284238000,3.392238037109375,0.07300736854374408,-0.03270993627840653,0.020102164444047957
1772093629294188000,3.40218798828125,0.07240823360681534,-0.03737814728515222,0.025820989615423603
1772093629304138200,3.41213818359375,0.06612111616134643,-0.03206215816047042,0.024401039814902468
1772093629314087200,3.422087158203125,0.07180500701665878,-0.03480882652010769,0.021106994105037302
1772093629324037000,3.432037109375,0.06492050819993019,-0.032940475364960725,0.025604305524285883
1772093629333987300,3.4419873046875,0.07314765379726887,-0.03698487365124747,0.030237152956705537
1772093629343936300,3.451936279296875,0.06761164698004722,-0.03006387874903157,0.020107233344810082
1772093629353886200,3.46188623046875,0.07404898655116558,-0.03720850807297975,0.024253320173593235
1772093629363836200,3.471836181640625,0.06851181069016456,-0.032599059782456606,0.025668922592559828
1772093629373786000,3.4817861328125,0.07689443911015988,-0.03448858158979565,0.027544425007700917
1772093629383735300,3.4917353515625,0.06836451117396354,-0.028537947823386638,0.02014743749103509
1772093629393685000,3.50168505859375,0.07614625109136104,-0.022572719276044515,0.023587449276540426
1772093629403635000,3.511635009765625,0.07659633294641971,-0.0363434156762436,0.020533285870309916
1772093629413584100,3.521584228515625,0.07031272263228892,-0.0350499417996034,0.017349440802959724
1772093629423534000,3.5315341796875,0.07419979319870472,-0.03473981640450656,0.01856840640497394
1772093629433484000,3.541484130859375,0.06641688423752784,-0.03625243119085207,0.017172157140448688
1772093629443434200,3.551434326171875,0.07344926709234714,-0.03207762972423807,0.015500899459980427
1772093629453383200,3.561383056640625,0.06851122616827487,-0.03353908057892695,0.017238938766345382
1772093629463333000,3.5713330078125,0.07285130119919776,-0.039241858797799796,0.0202148493045941
1772093629473283000,3.581282958984375,0.07360124278366566,-0.043674781477637585,0.021218208527704698
1772093629483233300,3.5912333984375,0.06417232018113136,-0.04013579369653016,0.027777722306922076
1772093629493182200,3.60118212890625,0.07808920185267924,-0.0285846182430163,0.015578138547809794
1772093629503132200,3.611132080078125,0.07868658322393894,-0.03616473464109003,0.02105525478464551
1772093629513082000,3.62108203125,0.07284604050219058,-0.03608125760871917,0.020895278449961915
1772093629523031300,3.63103125,0.06476619442105293,-0.03513889872469008,0.022488986515346913
1772093629532981200,3.640981201171875,0.07823124067187309,-0.0311607523413375,0.015232320784823969
1772093629542931200,3.65093115234375,0.0691027623206377,-0.03416302116354927,0.022459641689853743
1772093629552881000,3.660880859375,0.07015431720018386,-0.03096219756193459,0.014369548209337517
1772093629562830300,3.670830322265625,0.07629062799811363,-0.028881354433577505,0.020730680739087983
1772093629572780000,3.680780029296875,0.07060439905524253,-0.03420996557781473,0.02123315950166434
1772093629582730000,3.69072998046875,0.06851122616827487,-0.028001977783162144,0.01956715338504873
1772093629592680200,3.70068017578125,0.07359715113043784,-0.03430226523745805,0.025404289440158753
1772093629602629000,3.710629150390625,0.07000584864020347,-0.04074029892832041,0.02150734593369998
1772093629612579000,3.7205791015625,0.07434709271490574,-0.0334415384885855,0.020847228923998772
1772093629622529000,3.730529052734375,0.07658931868374347,-0.03718401295254007,0.011230830058502032
1772093629632478200,3.740478271484375,0.07060323001146317,-0.031307522134575994,0.013593969860114156
1772093629642428200,3.75042822265625,0.06446867277920246,-0.03741471643587574,0.027421081755822523
1772093629652378000,3.760378173828125,0.06775953101813793,-0.03338997269812971,0.022810272625274956
1772093629662328000,3.770328125,0.06895370923876762,-0.03190382579360157,0.018635124098788945
1772093629672277200,3.78027734375,0.06266776083707809,-0.03888586670067161,0.020459371250728144
1772093629682227200,3.790227294921875,0.07179448562264441,-0.037717590106278655,0.02448777738343924
1772093629692177200,3.80017724609375,0.07598492304980754,-0.03837570695513859,0.020765012266952543
1772093629702126000,3.8101259765625,0.06820318313241004,-0.026036650793254373,0.022359688446717336
1772093629712076300,3.820076171875,0.07553542571663856,-0.02881199725810438,0.014022990660835056
1772093629722026000,3.83002587890625,0.068954878282547,-0.035338622547872366,0.022739938202267513
1772093629731976000,3.839975830078125,0.07044950075447559,-0.04010552642242983,0.01729586571850814
1772093629741925000,3.849925048828125,0.0819692581564188,-0.03334189577270299,0.0201279290729668
1772093629751875000,3.859875,0.07224339843392372,-0.03615549188870936,0.02072114572576247
1772093629761825000,3.869824951171875,0.08227087145149707,-0.034413908918388185,0.02187771361605264
1772093629771775000,3.87977490234375,0.07194587679207325,-0.03214362589884549,0.025241710156435147
1772093629781724200,3.88972412109375,0.06820785930752754,-0.037429731341917065,0.020473646371252832
1772093629791674000,3.899674072265625,0.07045709953904152,-0.03113643988398835,0.01690285694608465
1772093629801624000,3.9096240234375,0.07674129437506198,-0.032131314406543966,0.01896294041420333
1772093629811573000,3.919572998046875,0.07599193731248378,-0.02261102372612804,0.0188307471355889
1772093629821523200,3.929523193359375,0.06821195096075534,-0.03543039248455316,0.01963322262489237
1772093629831473200,3.93947314453125,0.07763619738817215,-0.031245581080578264,0.020594980329135433
1772093629841423000,3.949423095703125,0.07808335663378238,-0.027289829192124304,0.024552997239911927
1772093629851372000,3.9593720703125,0.07928279555141925,-0.02797006654124707,0.016853574444260448
1772093629861322200,3.969322265625,0.07194938392341137,-0.0256095114223659,0.018773007332673296
1772093629871272200,3.979272216796875,0.06970365082323551,-0.01598090152926743,0.01590191800892353
1772093629881222000,3.989221923828125,0.07449322318732739,-0.03513416775064543,0.01713181599690579
1772093629891171300,3.99917138671875,0.06506605415046214,-0.04122077592164278,0.025530920627666636
1772093629901121000,4.00912109375,0.07389408825039863,-0.024328823962062596,0.029113628819491713
1772093629911071000,4.019071044921875,0.06641220806241036,-0.03777717480640858,0.020996501201577485
1772093629921020000,4.02902001953125,0.07464110722541809,-0.03641368616716936,0.02001115255919285
1772093629930970000,4.03897021484375,0.08691489786505699,-0.031992417392507196,0.02241517236046493
1772093629940920000,4.048920166015625,0.07883797439336776,-0.029933055443596094,0.016485882776184006
1772093629950870000,4.0588701171875,0.06342062503099441,-0.03342013037437573,0.01924952053693123
1772093629960819000,4.06881884765625,0.07194821487963199,-0.037538342815544454,0.019430256531853228
1772093629970769200,4.07876904296875,0.07284604050219058,-0.03215034790057689,0.014168646209221333
1772093629980719000,4.088718994140625,0.07434183201789855,-0.03200514900991693,0.017057956176251172
1772093629990669000,4.0986689453125,0.0700046795964241,-0.03222584255589172,0.02013401175388135
1772093630000618200,4.1086181640625,0.07239946577847003,-0.03557891584346071,0.023704655048577113
1772093630010568200,4.118568115234375,0.06776011554002762,-0.03492308228323236,0.01784103284534067
1772093630020518100,4.12851806640625,0.06671440587937831,-0.030785964212194084,0.02344267051098868
1772093630030468400,4.13846826171875,0.07569558471441268,-0.035848855358641595,0.027292413874855263
1772093630040417300,4.148417236328125,0.06955868939459324,-0.03696989527782425,0.029432357646152374
1772093630050367200,4.1583671875,0.07000584864020347,-0.037887119720596815,0.030637577850604426
1772093630060317000,4.16831689453125,0.07015548624396324,-0.03340409255502745,0.03257958789700642
1772093630070266000,4.17826611328125,0.0827273830473423,-0.03997547030197456,0.022739225816214455
1772093630080216000,4.188216064453125,0.08646773861944675,-0.03889837912237271,0.019923702604603022
1772093630090166000,4.198166015625,0.07823825493454933,-0.028899017954431474,0.013911082118423655
1772093630100116000,4.208115966796875,0.07614508204758166,-0.033880715357139705,0.025647971136076374
1772093630110065200,4.218065185546875,0.07644844890832901,-0.03446085333265364,0.01597729393322952
1772093630120015000,4.22801513671875,0.06761632315516472,-0.030710524355806408,0.014219600078323855
1772093630129965000,4.237965087890625,0.062379591545462604,-0.025591446042712775,0.0167928389666602
1772093630139915300,4.247915283203125,0.0792892252922058,-0.0330597543630749,0.02048467008876614
1772093630149864200,4.2578642578125,0.07465396670699119,-0.04020566232865676,0.007522120866831392
1772093630159814100,4.267814208984375,0.058493105500936504,-0.04356463563404977,0.011630798294674604
1772093630169764000,4.27776416015625,0.06836801830530166,-0.03725585434604436,0.021274687955295666
1772093630179713000,4.287713134765625,0.07555237685143947,-0.03195040488168597,0.027842083646869284
1772093630189663200,4.297663330078125,0.07226268765628338,-0.03209326568478718,0.027297546707699075
1772093630199613200,4.30761328125,0.08004618113934993,-0.028261432436946777,0.025566329867765306
1772093630209563100,4.317563232421875,0.07361293322145938,-0.032391700642090286,0.024553819223819297
1772093630219512300,4.32751220703125,0.07570493706464768,-0.03209328395109624,0.020210903781838714
1772093630229462300,4.337462158203125,0.07016366955041885,-0.03651517378026619,0.019491686129197477
1772093630239412000,4.347411865234375,0.06013502748906612,-0.03202743390696123,0.027576254051225258
1772093630249362200,4.357362060546875,0.08003741331100464,-0.03399212157605216,0.020069285087753085
1772093630259311000,4.36731103515625,0.08033376590907573,-0.03715268623251468,0.010083952445164322
1772093630269261000,4.377260986328125,0.06836100404262542,-0.0328636655353941,0.015452996064489707
1772093630279211000,4.3872109375,0.07569207758307457,-0.03661423197425902,0.01568697835030034
1772093630289160000,4.397159912109375,0.07494505860805512,-0.03429567109989002,0.015902045873086898
1772093630299110100,4.407110107421875,0.07539572498500346,-0.033947442184109236,0.017312277997191993
1772093630309060000,4.41706005859375,0.06776245362758636,-0.034616774546727534,0.022408477758197112
1772093630319010000,4.427010009765625,0.08751461732387542,-0.021106994105037302,0.01711830806136131
1772093630328959000,4.436958984375,0.07479483648240566,-0.02823160355426371,0.012447274909866973
1772093630338909200,4.4469091796875,0.06880991685390472,-0.02381968712983653,0.019594424984464422
1772093630348859100,4.456859130859375,0.07554477806687354,-0.030659013364277777,0.02221821588310413
1772093630358809000,4.46680908203125,0.07030863097906112,-0.036673067755717784,0.015426582981599494
1772093630368758000,4.476758056640625,0.07135550968348979,-0.036195878698024896,0.016494577539293096
1772093630378708200,4.486708251953125,0.0716518622815609,-0.038503662450052795,0.017923404766013843
1772093630388658000,4.496657958984375,0.08227730119228363,-0.038514147311449046,0.023401644380856304
1772093630398608000,4.50660791015625,0.07420096224248408,-0.03657636591559276,0.024205827770056202
1772093630408557000,4.51655712890625,0.07973696905970573,-0.03194353674948215,0.018280200580740348
1772093630418507000,4.526507080078125,0.07464870600998401,-0.02780280194925144,0.019845139209367334
1772093630428457000,4.53645703125,0.06567161882817744,-0.03331009412864223,0.01926089131431654
1772093630438406000,4.546406005859375,0.07330021401047707,-0.0317214001650922,0.021711179676419123
1772093630448356000,4.556356201171875,0.06850947260260581,-0.029392043902073055,0.01908479496189393
1772093630458306000,4.56630615234375,0.06237374632656574,-0.03252219515396282,0.021497244664793833
1772093630468256000,4.576256103515625,0.07030278576016426,-0.03725824723253027,0.026659614130342377
1772093630478205000,4.586204833984375,0.06596387977302073,-0.02692340703252703,0.013400840174499898
1772093630488155100,4.596155029296875,0.07464286079108715,-0.031570776180643585,0.01716376377143897
1772093630498105000,4.60610498046875,0.0658136576473713,-0.026385007573198525,0.019999014596827326
1772093630508055000,4.616054931640625,0.07434358558356761,-0.026010657835472375,0.021541339534847066
1772093630518004200,4.626004150390625,0.07479542100429534,-0.037909313286095855,0.016051254218583926
1772093630527954200,4.6359541015625,0.07150397824347018,-0.041215515224635596,0.015868143603485076
1772093630537904000,4.645904052734375,0.08661971431076526,-0.035092374435532835,0.0157288995295763
1772093630547854000,4.65585400390625,0.07794131781458855,-0.03600282207764685,0.01930526017900556
1772093630557803300,4.66580322265625,0.06821604261398315,-0.035073724533990026,0.014498946742666885
1772093630567753000,4.6757529296875,0.07764204260706901,-0.036534298605844374,0.015118265951098874
1772093630577703000,4.685702880859375,0.07075754379034042,-0.03748774513946846,0.018081116078374905
1772093630587653000,4.695653076171875,0.07703940053880214,-0.03741263407664373,0.018650422132620588
1772093630597602000,4.70560205078125,0.06805646813809871,-0.028847671359684315,0.015877824747283012
1772093630607552000,4.715552001953125,0.07493804434537887,-0.03701508612642065,0.023404950582794844
1772093630617502000,4.725501953125,0.08002280026376248,-0.03504044331889599,0.02213885790342465
1772093630627451100,4.735451171875,0.07717910127043724,-0.03143268288420513,0.023528978821262717
1772093630637401000,4.745401123046875,0.0798731626600027,-0.022803057433199134,0.01859198820996098
1772093630647351000,4.75535107421875,0.0741875182390213,-0.034352333190571516,0.01589535127081908
1772093630657301200,4.76530126953125,0.06745265702605246,-0.037358894595410676,0.02154670982970856
1772093630667250200,4.775250244140625,0.06790098531544209,-0.04055953553393483,0.015413540836935863
1772093630677200100,4.7852001953125,0.06849778216481209,-0.03928456542836502,0.01603646764140576
1772093630687150000,4.795150146484375,0.07942366532683372,-0.02605720039093867,0.021506907542282714
1772093630697100300,4.805100341796875,0.06894903306365013,-0.032616705037001516,0.02895220944639295
1772093630707049200,4.81504931640625,0.06819499982595444,-0.03476622948739677,0.022223056455003096
1772093630716999200,4.824999267578125,0.06655015522837639,-0.028575740816816686,0.020738206458417698
1772093630726948900,4.834948974609375,0.07897007634043693,-0.028428276903834194,0.01352739829677157
1772093630736899000,4.844899169921875,0.08271335452198982,-0.036864973598625506,0.020313487373478708
1772093630746848000,4.854847900390625,0.08001870861053466,-0.028493980817496774,0.017728247520094737
1772093630756798000,4.8647978515625,0.07134031211435794,-0.024385339922271668,0.010559570600278675
1772093630766748200,4.874748046875,0.06580196720957755,-0.026219934938289224,0.014126250105910003
1772093630776698000,4.884697998046875,0.07687339632213115,-0.03031284854141995,0.02404418920124881
1772093630786647000,4.89464697265625,0.07657762824594974,-0.030125143949594348,0.020075194238731636
1772093630796597000,4.904596923828125,0.07762158434092999,-0.03432506159115582,0.02011137066381052
1772093630806547200,4.914547119140625,0.06654840166270733,-0.032757227752543985,0.021005981415975837
1772093630816496000,4.92449609375,0.07342997786998748,-0.02743756709974259,0.01545974546568468
1772093630826446000,4.934446044921875,0.07373042212128639,-0.02825233581503853,0.019005592245841398
1772093630836396000,4.94439599609375,0.05831716441214084,-0.03629526568558067,0.02258478417317383
1772093630846346200,4.95434619140625,0.06744388919770718,-0.03548855241257697,0.02002758310418576
1772093630856295200,4.964295166015625,0.07552490432262421,-0.03979383012475446,0.016923443076387046
1772093630866245000,4.9742451171875,0.0604103372991085,-0.031418234233744444,0.01704696899135597
1772093630876195000,4.984195068359375,0.07013795058727264,-0.03007991656837985,0.023461521341931073
1772093630886145000,4.99414501953125,0.07312778005301952,-0.02854457849357277,0.018602856663847343
1772093630896094200,5.00409423828125,0.07626958521008491,-0.03442806530790403,0.011319796116743237
1772093630906044000,5.0140439453125,0.07073299387097358,-0.03650624155513942,0.023859818210825324
1772093630915994000,5.023994140625,0.06699205377697945,-0.035188546552695335,0.019265567489434032
1772093630925944000,5.033944091796875,0.07237725394666195,-0.03458561222348362,0.02180008180257864
1772093630935893000,5.04389306640625,0.07566577409803867,-0.03964316960768774,0.025519650314981115
1772093630945843000,5.053843017578125,0.07581599622368812,-0.03801127582322806,0.018918507617432623
1772093630955793200,5.063793212890625,0.07492167773246765,-0.036931444697268306,0.022714027442876247
1772093630965743000,5.0737431640625,0.06309913799166679,-0.0377553830997087,0.027790252994932232
1772093630975692000,5.083692138671875,0.07102817742526531,-0.033951661701500414,0.016438801364600658
1772093630985642200,5.093642333984375,0.06968085446953773,-0.02863949023541063,0.02087165097920224
1772093630995592200,5.10359228515625,0.0725227998971939,-0.035513960848469285,0.020784639416029677
1772093631005542100,5.113542236328125,0.06833353151381015,-0.03279993438310921,0.01909868648992851
1772093631015491000,5.123490966796875,0.07551905910372733,-0.02619925747644156,0.0154694905415643
1772093631025441300,5.133441162109375,0.07042962701022625,-0.027184779648762196,0.02553155994848348
1772093631035391000,5.143390869140625,0.06444529190361499,-0.025039292052667587,0.019443864932097495
1772093631045340200,5.153340087890625,0.06639174979627133,-0.033086386641673744,0.022915221703937276
1772093631055289900,5.163289794921875,0.06729191350638866,-0.035632819721475244,0.023615606791945173
1772093631065240000,5.173239990234375,0.07357552382051945,-0.03309942878633737,0.021618450758513062
1772093631075190000,5.18318994140625,0.07387129189670086,-0.036044049137178805,0.015244458747189491
1772093631085139000,5.193138916015625,0.07641454663872718,-0.030561160746682435,0.025408764685876665
1772093631095089200,5.203089111328125,0.06908230405449867,-0.04116444262452423,0.019859788789227603
1772093631105039000,5.2130390625,0.07447218039929866,-0.04274252386251464,0.024021109719760715
1772093631114989000,5.222989013671875,0.08000935626029967,-0.040353820361383255,0.024882530588377267
1772093631124938000,5.23293798828125,0.08434709320366382,-0.040663416033517565,0.02277006847904995
1772093631134888200,5.24288818359375,0.08045651550590992,-0.041596112040057774,0.02312508332864381
1772093631144838100,5.252838134765625,0.07043196509778499,-0.02835789681505412,0.01867442406271584
1772093631154788000,5.2627880859375,0.0692336952239275,-0.03506252728654072,0.014656840718118474
1772093631164737000,5.272737060546875,0.06354921984672546,-0.03602455898541957,0.018540321954805403
1772093631174687200,5.282687255859375,0.07896189303398132,-0.033728009013459084,0.023170420307712627
1772093631184637200,5.29263720703125,0.07282675127983093,-0.03043550680670887,0.012988606111798435
1772093631194587000,5.3025869140625,0.07611585595309733,-0.030245153600070625,0.010457480198983102
1772093631204536000,5.3125361328125,0.06219897428154945,-0.0314858013109304,0.028240745841944588
1772093631214486000,5.322486083984375,0.06399287196099758,-0.028746877866331486,0.010350037769135087
1772093631224436000,5.33243603515625,0.08389350421726703,-0.03840392840262502,0.010455543970223516
1772093631234386000,5.342385986328125,0.07671148375868797,-0.03526192231616005,0.021223478357866404
1772093631244335000,5.352335205078125,0.07521452319920062,-0.03693741778032854,0.015326310078054666
1772093631254285000,5.36228515625,0.0756640205323696,-0.037226171593833714,0.02144524048292078
1772093631264235000,5.372235107421875,0.0740174223691225,-0.041236941605154426,0.023724455727590247
1772093631274185200,5.382185302734375,0.07431552853286266,-0.034581611901801076,0.017266383895697072
1772093631284134000,5.3921337890625,0.0770066673129797,-0.035929519379418344,0.0259068686674349
1772093631294084000,5.402083984375,0.0687760145843029,-0.04281065719528124,0.027860587417939675
1772093631304034000,5.412033935546875,0.06787701991796494,-0.04174604190476239,0.027056869819620622
1772093631313984000,5.42198388671875,0.07385901693701744,-0.033558844725321973,0.02208088977164589
1772093631323933000,5.431932861328125,0.07265899349749087,-0.03754358524624258,0.015011709437239914
1772093631333883100,5.441883056640625,0.07056055991351604,-0.027739253460057078,0.02521267585819587
1772093631343833000,5.4518330078125,0.07130816341042519,-0.033460297987982626,0.01749737963997759
1772093631353782800,5.46178271484375,0.06756605427265167,-0.036993093490321184,0.01662899017445743
1772093631363732000,5.47173193359375,0.07654138788878917,-0.03497382608978077,0.015229991830419749
1772093631373682000,5.481681884765625,0.07684007857441902,-0.03573089153477922,0.015188810436660424
1772093631383632000,5.4916318359375,0.07459317643046379,-0.03685585871040821,0.01933939991062507
1772093631393581800,5.501581787109375,0.07354512868225574,-0.03409976493529975,0.022568070500390603
1772093631403530800,5.51153076171875,0.07668693383932113,-0.04153649080730974,0.0174645642157644
1772093631413481000,5.52148095703125,0.07952829474508762,-0.03833449816191569,0.023030262918351217
1772093631423431000,5.531430908203125,0.06681260555684566,-0.03723912240695208,0.023364554640324785
1772093631433379800,5.5413798828125,0.07818564796447754,-0.032876324087567625,0.019553572384268043
1772093631443330000,5.551330078125,0.07519231136739253,-0.032080479268450285,0.01877856029062532
1772093631453280000,5.561280029296875,0.07444120073914527,-0.03486505021937191,0.020831191104650496
1772093631463230000,5.57122998046875,0.07309446230530739,-0.0294237359482795,0.025039639112539588
1772093631473179000,5.581178955078125,0.08357084813416003,-0.02790891093853861,0.02478602967765182
1772093631483129000,5.591129150390625,0.07249532736837863,-0.03127944681756198,0.027544689869182182
1772093631493079000,5.6010791015625,0.07683306431174278,-0.03258561577899381,0.02316968965535052
1772093631503029000,5.611029052734375,0.07892740624248981,-0.03499824814498424,0.022153662746911867
1772093631512978000,5.62097802734375,0.06725742671489715,-0.03577489507328719,0.023438925917632875
1772093631522927900,5.630927978515625,0.06740940240621567,-0.04110929663749412,0.02010291336271912
1772093631532877800,5.6408779296875,0.0693552757769823,-0.04122643847744912,0.02391774980998598
1772093631542827800,5.650827880859375,0.06920505365133285,-0.036504761984106154,0.025612379232887176
1772093631552777000,5.66077685546875,0.07234978141784668,-0.02951461083581671,0.022979537378111852
1772093631562727000,5.670726806640625,0.07399637958109379,-0.029703995928075162,0.0249063863880001
1772093631572676900,5.6806767578125,0.08177870402038097,-0.03268584301676601,0.02764950195052661
1772093631582627000,5.690626953125,0.08207856374979018,-0.023600929812621324,0.016900555391144007
1772093631592576000,5.700575927734375,0.07414718622863292,-0.02975791807239875,0.023860968988295643
1772093631602526000,5.71052587890625,0.06188216341733932,-0.040437297393754124,0.012916116264322772
1772093631612476000,5.720475830078125,0.06727145524024963,-0.030771095436625182,0.015994208535412325
1772093631622426000,5.730426025390625,0.0696650723785162,-0.03499346237201244,0.01919971744529903
1772093631632375000,5.740375,0.06981354093849658,-0.02398631240101531,0.022679284923058003
1772093631642325000,5.750324951171875,0.067869421133399,-0.036206253961566834,0.02004292680379003
1772093631652275000,5.76027490234375,0.06936696621477603,-0.03769534174185246,0.023407270404044538
1772093631662225000,5.770224853515625,0.07565291461646556,-0.04252362041482702,0.022645172590902075
1772093631672174000,5.780174072265625,0.07714929065406322,-0.031840478233806785,0.021020329601736738
1772093631682123800,5.790123779296875,0.0729588532269001,-0.0383248352844268,0.019647150685545057
1772093631692074000,5.800073974609375,0.08058978649675845,-0.038037195715773846,0.024644584513502193
1772093631702024000,5.81002392578125,0.07730009730160235,-0.0433576052872464,0.02115748218325898
1772093631711972900,5.819972900390625,0.08119184404313563,-0.033857772872969503,0.02447690892955288
1772093631721922800,5.8299228515625,0.07026771444678306,-0.04405842876667156,0.027861491600237785
1772093631731873000,5.839873046875,0.06921791313290596,-0.042603060592897236,0.013536065660417079
1772093631741823000,5.849822998046875,0.06652092913389206,-0.03161936456272378,0.014742135248240083
1772093631751772000,5.85977197265625,0.07759294276833534,-0.02454975497005507,0.021961144982650876
1772093631761721900,5.869721923828125,0.08327975623309612,-0.027852175782620905,0.019844034097669647
1772093631771672000,5.879672119140625,0.0716039314866066,-0.031252851071581246,0.011047436315612866
1772093631781622000,5.8896220703125,0.07833587009012699,-0.038376017482392485,0.013006205700570716
1772093631791571000,5.899571044921875,0.0772848997324705,-0.04156016394384205,0.022106015079747885
1772093631801521200,5.909521240234375,0.0620183570176363,-0.03572219677167013,0.01631891957828775
1772093631811471000,5.91947119140625,0.06680266868472098,-0.03692035704767331,0.024158518029609694
1772093631821420800,5.9294208984375,0.05094049816429615,-0.04351906119296327,0.025222877591801807
1772093631831370000,5.939369873046875,0.06709492962956429,-0.04253962170155719,0.02607627955074422
1772093631841320000,5.94931982421875,0.08938742545843124,-0.026857356058992445,0.024468552093161268
1772093631851270000,5.959269775390625,0.07233049219548701,-0.03117109107226133,0.024963916128361595
1772093631861219800,5.9692197265625,0.07322247259914874,-0.034595914421789345,0.01734887454737909
1772093631871168800,5.979168701171875,0.06813362502753734,-0.03417049208395183,0.01592065010885708
1772093631881119000,5.989118896484375,0.07232406245470047,-0.024426292987167832,0.012683366954373195
1772093631891069000,5.99906884765625,0.0652899260342121,-0.03156553374994546,0.027313420130265876
1772093631901019000,6.009018798828125,0.07815759091377258,-0.02988835778534412,0.02018191514937207
1772093631910968000,6.018968017578125,0.06663724898993968,-0.030630371791683136,0.013285625430149956
1772093631920918000,6.02891796875,0.08055705327093601,-0.038956648648250845,0.017594355474738404
1772093631930868000,6.038867919921875,0.07502046193182468,-0.03369354048827663,0.016049546318687498
1772093631940818200,6.048818115234375,0.06903846491277217,-0.02866042342558503,0.013465256313374266
1772093631950767000,6.05876708984375,0.06604688188135624,-0.02946518220352009,0.02125932598938234
1772093631960717000,6.068717041015625,0.0644014527618885,-0.035850097467657174,0.022258018170529976
1772093631970667000,6.0786669921875,0.0732289023399353,-0.028013101965375244,0.023902113849436864
1772093631980617000,6.088616943359375,0.07023673478662967,-0.03737069463105872,0.02833675356232561
1772093631990566000,6.09856591796875,0.07577683325707912,-0.0365094929581508,0.025487647741520778
1772093632000515800,6.108515869140625,0.07383037536442279,-0.026611619403306395,0.027213202025648205
1772093632010465800,6.1184658203125,0.08071195157170295,-0.02581856932947412,0.025638125595496965
1772093632020416000,6.128416015625,0.08460603640079498,-0.03038763081068173,0.025799024378787724
1772093632030365000,6.138364990234375,0.06620411826968192,-0.03200187934059649,0.03035131738828495
1772093632040315000,6.14831494140625,0.0741354957908392,-0.03262139947842806,0.02013023062790744
1772093632050265000,6.15826513671875,0.07234276715517043,-0.02752614043233916,0.02291145884427242
1772093632060215000,6.168215087890625,0.07024667165875434,-0.0382140683863312,0.017919915900984778
1772093632070164000,6.1781640625,0.06515665504336357,-0.03722056383695453,0.02185512732490897
1772093632080114000,6.188114013671875,0.07428513339459895,-0.035873222614917905,0.01941194455702789
1772093632090064100,6.198064208984375,0.07024491809308528,-0.034994193024374544,0.018552085457835345
1772093632100014000,6.20801416015625,0.062461424610018725,-0.03712296694768592,0.016885266490466892
1772093632109963000,6.217962890625,0.06260872412621975,-0.037189620709419245,0.025771798445144666
1772093632119913000,6.227912841796875,0.06724982793033123,-0.037527492627967146,0.02384845656659454
1772093632129863000,6.23786279296875,0.07503449045717715,-0.0343836233779788,0.02054152397569269
1772093632139812900,6.247812744140625,0.07503565950095653,-0.032855171701684595,0.019641752991219983
1772093632149761800,6.25776171875,0.07817688013613223,-0.03599315920015797,0.02061637017703615
1772093632159711700,6.267711669921875,0.0727887573570013,-0.038221137447934594,0.023395278572151436
1772093632169662000,6.277661865234375,0.0877548558205366,-0.0280428577828221,0.03007852832889184
1772093632179612000,6.28761181640625,0.07847615534365177,-0.03211542271766812,0.025049119326937944
1772093632189560800,6.297560791015625,0.07054770043194293,-0.04468465263992548,0.016570099594071505
1772093632199511000,6.307510986328125,0.05827449431419372,-0.028299901283811775,0.02760602813498117
1772093632209461000,6.3174609375,0.07129238131940364,-0.03687109281215817,0.0197097219272051
1772093632219410000,6.327409912109375,0.0747322926402092,-0.035301414076332,0.025275475428719073
1772093632229359900,6.33735986328125,0.07188800912499427,-0.0377992587740533,0.020358276363275946
1772093632239310000,6.34731005859375,0.06979308267235755,-0.028054036763962356,0.024030151542741802
1772093632249260000,6.357260009765625,0.05632394476830959,-0.03484830001397058,0.02747925995015539
1772093632259209000,6.367208984375,0.076370122975111,-0.03542399927638471,0.020293312235129996
1772093632269159000,6.377158935546875,0.06708908441066741,-0.03331880715806037,0.020313660903414712
1772093632279108900,6.38710888671875,0.0745709645986557,-0.030358021123707293,0.027705223326291887
1772093632289058600,6.39705859375,0.06888648922145366,-0.03031683059679344,0.02367818716675974
1772093632299007700,6.4070078125,0.0786146870315075,-0.03355005863066762,0.022217530896514653
1772093632308957700,6.416957763671875,0.06784136408269405,-0.034718116029351945,0.018363476683711633
1772093632318907600,6.42690771484375,0.07741641715764999,-0.03689980744998902,0.02351644813325256
1772093632328857600,6.436857666015625,0.0721744248509407,-0.020356595862843094,0.026923799758171663
1772093632338806500,6.446806640625,0.06514262651801109,-0.02787758421851322,0.02602734410879202
1772093632348756700,6.4567568359375,0.07157470539212227,-0.02747280280990526,0.02215402807309292
1772093632358706700,6.466706787109375,0.07546294500231743,-0.03410634080655873,0.026060168666159733
1772093632368656600,6.47665673828125,0.06932721872627735,-0.0247561825286597,0.027497297930344937
1772093632378605800,6.486605712890625,0.07291969026029109,-0.02638456918178126,0.020323844370711594
1772093632388555800,6.4965556640625,0.07262099957466125,-0.03314007132397964,0.024068236797116695
1772093632398505700,6.506505615234375,0.06798164933621884,-0.025507402754761276,0.028469586161756887
1772093632408456000,6.5164560546875,0.06902911256253719,-0.02676741275321692,0.024345884694717823
1772093632418404900,6.52640478515625,0.07950140673816204,-0.03233794289454817,0.01672325346232392
1772093632428354800,6.536354736328125,0.06752513774037361,-0.03231532920394092,0.021940558852348475
1772093632438304800,6.5463046875,0.06961947967112064,-0.03227503372617066,0.02387570076654665
1772093632448254700,6.556254638671875,0.06916998233795166,-0.022864286101143806,0.019896230075787752
1772093632458204000,6.566203857421875,0.06991817035675048,-0.03475296814702451,0.0221906885553617
1772093632468153600,6.576153564453125,0.07769757218658924,-0.03138102576220408,0.019662348254676908
1772093632478103600,6.586103515625,0.06901800664663314,-0.026672921136487275,0.0171423556572292
1772093632488053800,6.5960537109375,0.06797054342031479,-0.027697441878635435,0.02457480721292086
1772093632498002700,6.606002685546875,0.06228606804311275,-0.037701826281566174,0.013932143172761424
1772093632507952600,6.61595263671875,0.0715641839981079,-0.033508630641736085,0.021501719910511745
1772093632517902800,6.62590283203125,0.06528057368397712,-0.03273881531301886,0.022869318469287827
1772093632527852800,6.635852783203125,0.07889876466989516,-0.033855179057084024,0.020520216326182707
1772093632537801700,6.6458017578125,0.07605798828601837,-0.03894506780831143,0.021951208110526203
1772093632547751700,6.655751708984375,0.07216857963204383,-0.030284517496079206,0.01651860686885193
1772093632557702000,6.665701904296875,0.06723053870797156,-0.020179832790140063,0.0244098533090204
1772093632567651800,6.67565185546875,0.061844169494509695,-0.03559699948942289,0.021532096782466394
1772093632577600800,6.685600830078125,0.0690244363874197,-0.03660361924869939,0.02558998473798856
1772093632587550700,6.69555078125,0.06483458348214625,-0.03911410423228517,0.01928212589859031
1772093632597501000,6.7055009765625,0.07425999895334243,-0.030244496012944728,0.02127850561388768
1772093632607450600,6.71545068359375,0.07186170563995838,-0.028887838973291217,0.02075763267809525
1772093632617399800,6.72539990234375,0.07335749715566635,-0.03143209836231545,0.021237022826028986
1772093632627349800,6.735349853515625,0.06602350100576877,-0.03240472452044487,0.0194631358881481
1772093632637299700,6.7452998046875,0.06542202798128127,-0.023599249312188476,0.022485223655682056
1772093632647249700,6.755249755859375,0.06482055495679379,-0.031919260824751106,0.015285640140948816
1772093632657198600,6.765198486328125,0.0742483085155487,-0.02893416233304888,0.01809157354030758
1772093632667148800,6.775148681640625,0.07095628123283386,-0.03567501489538699,0.018862914105830714
1772093632677098800,6.7850986328125,0.06721300305128097,-0.026987028586957604,0.017974011575244368
1772093632687048700,6.795048583984375,0.07409750186800956,-0.03168388116629794,0.022628988641081378
1772093632696997600,6.80499755859375,0.06616261721551418,-0.021220628813654184,0.020338713146280496
1772093632706947800,6.81494775390625,0.07005436395704746,-0.02785036741802469,0.02002512628561817
1772093632716897800,6.824897705078125,0.08083002499341964,-0.03965254022423178,0.021888180211139842
1772093632726847700,6.83484765625,0.07275134795606136,-0.03336518531674519,0.025094967762660233
1772093632736797000,6.844796875,0.06407236693799495,-0.030866500368807462,0.016951691923337057
1772093632746747000,6.854746826171875,0.06766366942822932,-0.029805282611772416,0.027830137480748817
1772093632756696600,6.864696533203125,0.07185586042106151,-0.023843889989331363,0.01932321596080437
1772093632766646800,6.874646728515625,0.0612339286416769,-0.021843071560934183,0.03113764546038583
1772093632776595700,6.884595703125,0.07155892330110072,-0.023219474480673668,0.026382824749266728
1772093632786545700,6.894545654296875,0.07155775425732136,-0.025262323686201123,0.021751319890562445
1772093632796495600,6.90449560546875,0.07140694760978221,-0.02727939912965521,0.017505736476369202
1772093632806445800,6.91444580078125,0.07185469137728213,-0.040422063292004165,0.02520168867330067
1772093632816394800,6.924394775390625,0.08187807274162769,-0.021195129046216607,0.02945085228406824
1772093632826344700,6.9343447265625,0.07439911516308784,-0.0333075185790658,0.014709429421881214
1772093632836294700,6.944294677734375,0.058390814170241355,-0.04184900908889249,0.023419572763191534
1772093632846244900,6.954244873046875,0.07245499535799026,-0.03299375818846747,0.032766616635397074
1772093632856193800,6.96419384765625,0.07515081031322479,-0.04196236980287358,0.021354520859010517
1772093632866143700,6.974143798828125,0.06692308019399643,-0.039669600956887006,0.02508754250803031
1772093632876094000,6.984093994140625,0.07021452295482158,-0.04259204600853845,0.02763710825983435
1772093632886044000,6.9940439453125,0.07784779431223869,-0.03788487296458334,0.017814738493459298
1772093632895992800,7.003992919921875,0.07350713475942611,-0.039512108840234574,0.013986238847021012
1772093632905942800,7.01394287109375,0.07171323707997798,-0.02809435050804168,0.02704773666509427
1772093632915892700,7.023892822265625,0.06991583226919174,-0.029093663743697106,0.020517987836478277
1772093632925842700,7.0338427734375,0.07874386636912822,-0.03858841812405735,0.021098664668109265
1772093632935791600,7.04379150390625,0.06737433109283447,-0.033488647299632426,0.018581393750710412
1772093632945741600,7.053741455078125,0.06602993074655532,-0.023671090705692767,0.02130287287016399
1772093632955691800,7.06369189453125,0.0711199473619461,-0.028433957725949584,0.030753641978325322
1772093632965641700,7.073641845703125,0.06199556066393852,-0.03053567924555391,0.032803194919275115
1772093632975590700,7.083590576171875,0.0769587365180254,-0.028825770055130123,0.022604703583195804
1772093632985540600,7.09354052734375,0.06573825432360172,-0.027936639195680617,0.0174770401048474
1772093632995490800,7.10349072265625,0.06888239756822585,-0.02901168454866856,0.025475199251901358
1772093633005440800,7.113440673828125,0.06917933468818664,-0.037175555651448665,0.02198276315941475
1772093633015389700,7.1233896484375,0.0751630852729082,-0.03140583140989765,0.02584218766707927
1772093633025340000,7.13333984375,0.0790583391457796,-0.02987031067200005,0.025217662560567258
1772093633035289900,7.143289794921875,0.06903261969387531,-0.032730997332744295,0.02329169033351354
1772093633045239800,7.15323974609375,0.06005611703395843,-0.025735238427575677,0.020976965384045615
1772093633055188700,7.163188720703125,0.06499591152369975,-0.03191339733954519,0.019249337873840703
1772093633065139000,7.173138916015625,0.06379939521551131,-0.02583369383336976,0.02227904269224964
1772093633075088600,7.183088623046875,0.07681962030827999,-0.038429208974353965,0.02055984508367255
1772093633085038600,7.19303857421875,0.0699392131447792,-0.040239235804695635,0.016931370654515922
1772093633094987500,7.202987548828125,0.0712894587099552,-0.03591631283797324,0.016319586298568174
1772093633104937700,7.212937744140625,0.06934592342674732,-0.03152447108719498,0.018542440846655517
1772093633114887700,7.2228876953125,0.07383563606142997,-0.03241259729964659,0.029563372747832908
1772093633124837600,7.232837646484375,0.06291209098696708,-0.031401794555597,0.01720808697035536
1772093633134786800,7.242786865234375,0.06844809780418873,-0.032485260677058245,0.017007267168629915
1772093633144736800,7.25273681640625,0.06456044271588325,-0.02594979449370876,0.020012467733444644
1772093633154686700,7.262686767578125,0.071743047696352,-0.02259394472716376,0.02819849586910568
1772093633164635600,7.2726357421875,0.0819207428395748,-0.036896957905776795,0.019494252545619383
1772093633174585900,7.2825859375,0.08042553584575653,-0.03954111573901027,0.013343292167829349
1772093633184535800,7.292535888671875,0.07698387095928191,-0.036254878876265134,0.016338117469102142
1772093633194485800,7.30248583984375,0.07010287927389144,-0.030197898658551273,0.019736920461384578
1772093633204435700,7.312435791015625,0.0771370156943798,-0.03485564307020977,0.022659191983100027
1772093633214385000,7.322385009765625,0.07055296112895011,-0.04329997508218512,0.023940253902738913
1772093633224334600,7.33233447265625,0.0687584789276123,-0.039361612719949333,0.023438606257224454
1772093633234284500,7.342284423828125,0.07474222951233386,-0.03438281966038048,0.023963232919527216
1772093633244233700,7.352233642578125,0.07384323484599589,-0.034726591596752406,0.024781636630324646
1772093633254183700,7.36218359375,0.07474339855611324,-0.039189270094037054,0.020902886367682366
1772093633264133600,7.372133544921875,0.0735468822479248,-0.03875235824780539,0.015118539945734664
1772093633274083800,7.382083740234375,0.06232230840027332,-0.03770789069617167,0.020462376058567315
1772093633284033000,7.392032958984375,0.05408990210592746,-0.04102499762121588,0.025131582579156382
1772093633293983000,7.40198291015625,0.06007715982198715,-0.03525598576571792,0.02490844134776853
1772093633303933200,7.41193310546875,0.06112813017964363,-0.033171672038640826,0.023085454571153966
1772093633313883100,7.421883056640625,0.07250351067483425,-0.03774266974860802,0.020605593054695052
1772093633323832000,7.43183203125,0.06995967141091823,-0.027137944832351057,0.011657549304282292
1772093633333782300,7.4417822265625,0.07639175028502941,-0.029895609510038047,0.024597430036682633
1772093633343732200,7.451732177734375,0.07279986327290534,-0.02908078599581495,0.028564105177950112
1772093633353682000,7.461681884765625,0.07025543948709964,-0.03499296918166801,0.01796043057446368
1772093633363631000,7.471631103515625,0.07354512868225574,-0.03533487795451656,0.017371442572213708
1772093633373581000,7.4815810546875,0.07818214083313942,-0.03360646499302238,0.019008533121598885
1772093633383531000,7.491531005859375,0.070099956664443,-0.03219073470989242,0.02251571012549102
1772093633393481000,7.50148095703125,0.06187398011088371,-0.034204485685098915,0.0200535212630406
1772093633403430000,7.511429931640625,0.07609189055562018,-0.0370093505053781,0.023793018318619578
1772093633413380000,7.521380126953125,0.06980652667582035,-0.038526257874350996,0.031337862473912535
1772093633423330000,7.531330078125,0.06232230840027332,-0.023591266935132443,0.023392218965385108
1772093633433280000,7.541280029296875,0.06935235316753387,-0.03973554233256727,0.02447761218245141
1772093633443229200,7.551229248046875,0.06396072325706481,-0.03017040786342695,0.02299702736902982
1772093633453179100,7.56117919921875,0.07054419330060481,-0.029521113641839472,0.015788064104598015
1772093633463129000,7.571129150390625,0.07039338665306567,-0.02780800784733146,0.01125663122003898
1772093633473079000,7.5810791015625,0.06934533890485763,-0.026933563100360332,0.013067005110252649
1772093633483028200,7.5910283203125,0.07667699696719646,-0.030994711592048405,0.02361463867756538
1772093633492978200,7.600978271484375,0.08235971877872944,-0.02523928987048566,0.01629791332287714
1772093633502928100,7.61092822265625,0.07353110015690326,-0.03371677523339167,0.01961588789760135
1772093633512878000,7.620878173828125,0.07667173627018928,-0.03285036766240373,0.018604400166962295
1772093633522827300,7.6308271484375,0.07397767488062382,-0.031045144871342925,0.026847629249421877
1772093633532777000,7.64077685546875,0.07352467041611671,-0.034019100914523,0.019267521984502673
1772093633542727000,7.650726806640625,0.07292436643540859,-0.029982630206365136,0.02314765135347843
1772093633552677000,7.660677001953125,0.06439502302110195,-0.02954918895885348,0.018555711320182307
1772093633562626000,7.6706259765625,0.06753507461249827,-0.030983861404471097,0.02638952848468907
1772093633572576000,7.680575927734375,0.059901803255081175,-0.03735874846493825,0.025851914476649834
1772093633582526000,7.69052587890625,0.07007949839830398,-0.02300075369607657,0.015063896282203495
1772093633592476200,7.70047607421875,0.07292144382596015,-0.022992606922239065,0.022767301133228463
1772093633602425000,7.710425048828125,0.07232406245470047,-0.03038655309844762,0.019626162696443496
1772093633612375000,7.720375,0.07037760456204414,-0.04202001827424392,0.02040045327087864
1772093633622325200,7.7303251953125,0.07351999424099921,-0.029618071210291235,0.017586747557017952
1772093633632275200,7.740275146484375,0.06379354999661445,-0.03539411559477448,0.020804933285387232
1772093633642224000,7.75022412109375,0.06199380709826946,-0.040236550657264884,0.03112844837377779
1772093633652174000,7.760174072265625,0.08129355085194111,-0.03282556201471016,0.02426140301534906
1772093633662124000,7.7701240234375,0.06528115820586682,-0.03176575076347217,0.02537048763525672
1772093633672074000,7.780073974609375,0.06213409235179424,-0.030951511771138755,0.026910675415117293
1772093633682023200,7.790023193359375,0.08472527886629104,-0.035034324105363335,0.02567805574708618
1772093633691972900,7.799972900390625,0.06855974148511886,-0.03296434943089262,0.0231864215944428
1772093633701923000,7.809923095703125,0.06661153002679347,-0.031942057178448884,0.019022844774741678
1772093633711873000,7.819873046875,0.06361936247348784,-0.027759894389286634,0.026469251790549604
1772093633721822000,7.829822021484375,0.07349953597486018,-0.028939952753018586,0.020822569406777618
1772093633731772200,7.839772216796875,0.08367080137729645,-0.019589630078338086,0.02296274150693789
1772093633741722000,7.84972216796875,0.08187515013217926,-0.02643776067374274,0.023493240787601097
1772093633751672000,7.859672119140625,0.065120414686203,-0.036441670152638106,0.02498701387615874
1772093633761621000,7.86962109375,0.06856383313834667,-0.026073110346123574,0.023225365365343167
1772093633771571200,7.8795712890625,0.06541852084994315,-0.03518741404153406,0.020927938610548154
1772093633781521200,7.889521240234375,0.06287468158602715,-0.03347211628993973,0.03236723292111419
1772093633791470000,7.899469970703125,0.06631517742872238,-0.022570545585267245,0.025524536552652716
1772093633801420000,7.909419921875,0.0696077892333269,-0.029534082721266893,0.015295631812000646
1772093633811370200,7.919370361328125,0.06735913352370261,-0.0424644558398053,0.02270925993621349
1772093633821320000,7.92931982421875,0.0661614481717348,-0.04048758454257622,0.025240632444201036
1772093633831269000,7.93926904296875,0.07394260356724262,-0.026450766285788265,0.02297435887949541
1772093633841219000,7.949218994140625,0.06944763023555278,-0.03865454216282815,0.031642069584876295
1772093633851169000,7.9591689453125,0.07961948015987873,-0.037967546279355883,0.02605874389405362
1772093633861119000,7.969118896484375,0.06899287220537662,-0.033527664135769006,0.013385396010195836
1772093633871068000,7.97906787109375,0.06150982297360897,-0.026234785447549074,0.02631327577754855
1772093633881018000,7.98901806640625,0.06749649616777896,-0.02905724072344601,0.029950454102968795
1772093633890968000,7.998968017578125,0.07168401098549365,-0.030976427016686646,0.02301745823570527
1772093633900918000,8.00891796875,0.07228139235675335,-0.03893580678962171,0.021355507239699364
1772093633910867000,8.018866943359376,0.07138239769041538,-0.035369145550299436,0.020578896844014524
1772093633920817200,8.028817138671876,0.06539806258380412,-0.0286494271075353,0.0193237456837669
1772093633930767000,8.03876708984375,0.06884265007972717,-0.03771861301958561,0.023433902682643382
1772093633940717000,8.048717041015625,0.06405541580319404,-0.03093236867925152,0.036653906397521495
1772093633950666200,8.058666259765625,0.07228665305376053,-0.026702695220243183,0.027404870406538245
1772093633960616200,8.0686162109375,0.06495382594764232,-0.02310072520552203,0.02637230335525237
1772093633970566100,8.078566162109375,0.060763388520479196,-0.03240801245607435,0.016290835128119213
1772093633980516000,8.08851611328125,0.06465571978390217,-0.033871801398321986,0.02769752407702617
1772093633990465300,8.09846533203125,0.06779810946285725,-0.02554820968918502,0.024204996652994304
1772093634000415000,8.1084150390625,0.07692541877031325,-0.016826960431970656,0.0198302247680258
1772093634010365000,8.118364990234374,0.057769467401504515,-0.020355317221209406,0.032950667965412135
1772093634020315100,8.128315185546874,0.0700397509098053,-0.03338136926656589,0.023815832938626408
1772093634030264000,8.13826416015625,0.074531217110157,-0.02627487999591976,0.01597574129696004
1772093634040214000,8.148214111328125,0.0725882663488388,-0.024532895166799424,0.02500965496622957
1772093634050164000,8.1581640625,0.07273731943070888,-0.02587305772937834,0.026102181176980956
1772093634060114200,8.1681142578125,0.0751326901346445,-0.025544355497974902,0.01936323744393885
1772093634070063000,8.17806298828125,0.07588087815344333,-0.02880414274521172,0.028589394882833585
1772093634080013000,8.188012939453126,0.06734978117346763,-0.025972115923371165,0.030850617813086137
1772093634089963300,8.19796337890625,0.07243804422318935,-0.030636034347489474,0.021734962410805747
1772093634099913200,8.207913330078124,0.0667494771927595,-0.04178071135934442,0.020295586390607058
1772093634109862100,8.217862060546874,0.06854337487220764,-0.044314284957572815,0.02668362519359216
1772093634119812000,8.22781201171875,0.06988952878415584,-0.03784976511858403,0.023534440447669475
1772093634129762000,8.237761962890625,0.07737316253781318,-0.024878055342659352,0.020188463621167465
1772093634139712000,8.2477119140625,0.07273498134315014,-0.03115824985699728,0.02207307179137133
1772093634149661200,8.2576611328125,0.0688455726891756,-0.0352362216193229,0.027502394230570642
1772093634159611000,8.26761083984375,0.06405775389075279,-0.0344487793023698,0.026674300242820755
1772093634169561000,8.27756103515625,0.0727367349088192,-0.03249114242857322,0.024988237718865273
1772093634179510000,8.287510009765626,0.0673468585640192,-0.025274215053394434,0.026816010268451644
1772093634189460000,8.2974599609375,0.0748281542301178,-0.027111604814697054,0.031240101187862454
1772093634199410000,8.307409912109375,0.07018997303545474,-0.033141623960249125,0.013787894130172207
1772093634209360100,8.317360107421875,0.06989245139360427,-0.02122897651689127,0.01868311882582493
1772093634219309000,8.32730908203125,0.06780103207230567,-0.03954767334396019,0.022853591177193447
1772093634229259000,8.337259033203125,0.073337623411417,-0.0262012119715102,0.023669711599359287
1772093634239209200,8.347209228515625,0.07273907299637794,-0.02079988265093416,0.02425208719773218
1772093634249159200,8.3571591796875,0.07468494636714458,-0.02484818992735818,0.020032003550976514
1772093634259108000,8.367108154296876,0.08037059078812599,-0.02915142181292176,0.01644117598477751
1772093634269058000,8.37705810546875,0.07019289564490318,-0.021876316243410108,0.0184230065849144
1772093634279007700,8.3870078125,0.07168751811683177,-0.02913377655837685,0.017247934923553837
1772093634288957700,8.396957763671875,0.0669026219278574,-0.027177473125141113,0.012187308799428864
1772093634298907000,8.406906982421875,0.06989537400305271,-0.013350096367951482,0.023604555674968285
1772093634308856800,8.41685693359375,0.07438508663773537,-0.019292565094213933,0.03349799964986741
1772093634318806500,8.426806640625,0.07034604038000107,-0.01622724097315222,0.021807616655062884
1772093634328756700,8.4367568359375,0.0627151071101427,-0.03739310739226639,0.018182859419798476
1772093634338705700,8.44670556640625,0.05523381144404411,-0.025259620272461324,0.030993542548269033
1772093634348655600,8.456655517578126,0.06525719280838967,-0.03801215260606259,0.031129343422921372
1772093634358605600,8.46660546875,0.05119008901119232,-0.03441814670208841,0.025915134172281248
1772093634368555800,8.4765556640625,0.0676473028153181,-0.02701314940890297,0.0253175244721584
1772093634378504700,8.486504638671875,0.06375789416134357,-0.03778201537830755,0.028372628593305124
1772093634388454700,8.49645458984375,0.0669026219278574,-0.04149451482910663,0.014690112800057976
1772093634398404600,8.506404541015625,0.07558101842403411,-0.03823211549967527,0.022788316521793604
1772093634408354800,8.516354736328125,0.07602993123531342,-0.06809364007702097,0.027766433727927503
1772093634418303700,8.5263037109375,0.05987140811681747,-0.025971293939463794,0.028009713565045967
1772093634428253700,8.536253662109376,0.04430851280391216,-0.0365182607864961,0.04291197127844207
1772093634438204000,8.546203857421874,0.096081370139122,-0.02570007578264922,0.031272670016903426
1772093634448153900,8.55615380859375,0.04714928918778896,-0.042257681221328676,0.03476333427741192
1772093634458102800,8.566102783203124,0.07721884875893592,0.004762483427766711,0.04013785778945312
1772093634468052700,8.576052734375,0.08844459165036678,-0.03477324375007301,0.013424074919614941
1772093634478002700,8.586002685546875,0.057764206704497334,-0.024629651805851607,0.023771938997972756
1772093634487952000,8.595951904296875,0.07781330752074718,-0.026222145161684602,0.01637839468056336
1772093634497901600,8.605901611328125,0.07870879505574703,-0.01993004101384431,0.0003675820702221244
1772093634507851500,8.6158515625,0.06449497626423835,-0.026274660800211132,0.005738086994271725
1772093634517801700,8.6258017578125,0.07377075413167476,-0.028147596798930315,0.006770800176030024
1772093634527750700,8.635750732421876,0.050579848158359524,-0.03250243100756779,0.004172618642682209
1772093634537700600,8.64570068359375,0.07930909903645515,-0.04081029542461037,0.016716348797501994
1772093634547650800,8.65565087890625,0.06898644246459007,-0.04490737374620512,0.01588894892949611
1772093634557600800,8.665600830078125,0.07661971382200718,-0.037946576556563374,0.012926756389345973
1772093634567549700,8.6755498046875,0.07646656908690928,-0.03866882641650736,0.0232022950170096
1772093634577499600,8.685499755859375,0.07257423782348632,-0.039769663797877726,0.02123987237024121
1772093634587449900,8.695449951171875,0.07167232054769992,-0.022810345690511165,0.014950672565540299
1772093634597399800,8.70539990234375,0.08438976330161094,-0.025055329872015863,0.020226996400114147
1772093634607348700,8.7153486328125,0.07884791126549244,-0.023390593263879416,0.025078683348139747
1772093634617298700,8.725298583984374,0.07345803492069244,-0.018143157597072423,0.025432501754490657
1772093634627248600,8.73524853515625,0.081681673386693,-0.017328571544867007,0.030272763126203788
1772093634637198600,8.745198486328125,0.07269757194221019,-0.026864059794414787,0.032731106930598615
1772093634647147800,8.755147705078125,0.0747843150883913,-0.02650892621381208,0.0426696595557034
1772093634657097700,8.76509765625,0.07223346156179905,-0.02983918488137424,0.031337095288932325
1772093634667047700,8.775047607421875,0.0753682524561882,-0.026061785234510897,0.037082708002533764
1772093634676997600,8.78499755859375,0.06114800392389297,-0.04400894533544779,0.04483890248672105
1772093634686946600,8.794946533203126,0.06039455520808697,-0.047304096157010644,0.04350608298038132
1772093634696896800,8.804896728515626,0.05486088647842407,-0.051297549707349385,0.04063324922411703
1772093634706846700,8.8148466796875,0.06384206531345844,-0.04488832198586315,0.047232537891296666
1772093634716795600,8.824795654296874,0.047235798427462575,-0.037252876937668766,0.028123686200380325
1772093634726745600,8.83474560546875,0.08300444642305374,-0.03956268825000152,0.016941499322885648
1772093634736695800,8.84469580078125,0.07567454192638397,-0.021090353497490284,0.02372730527180247
1772093634746645800,8.854645751953125,0.08779694139659404,-0.023551519446633754,0.020314528553094714
1772093634756594700,8.8645947265625,0.08435293842256068,-0.014581775321066378,0.010963995815860108
1772093634766545000,8.874544921875,0.0849532424032688,-0.0034160737874917683,-0.0031666564705315975
1772093634776494800,8.884494873046876,0.07761866173148155,-0.009994684992823749,0.009745459472108631
1772093634786444500,8.894444580078124,0.07237783846855163,-0.017700930254906416,0.0028612255168613044
1772093634796393700,8.904393798828124,0.08314940785169601,-0.01389028592556715,0.007240089055057615
1772093634806343700,8.91434375,0.0704267044007778,-0.017868012183811514,0.005074398921150714
1772093634816293600,8.924293701171875,0.07745967177748679,-0.023811010633036492,0.009686504959641023
1772093634826243600,8.93424365234375,0.06384148079156875,-0.032293921089731156,0.005477773823961615
1772093634836192500,8.944192626953125,0.06174830790460109,-0.025586715068668126,0.016159865692211315
1772093634846142700,8.954142822265625,0.06519231087863445,-0.04339386391071602,0.02698605133942328
1772093634856092700,8.9640927734375,0.06744038206636906,-0.03182491533849388,0.03013328159027733
1772093634866042600,8.974042724609374,0.07043488770723343,-0.027041133394371718,0.019957604874204844
1772093634875991800,8.98399169921875,0.07328209383189678,-0.04546190235642716,0.020431378132104872
1772093634885941800,8.993941650390624,0.06699497638642787,-0.03729888977017253,0.03328790969629772
1772093634895891700,9.0038916015625,0.0767237587183714,-0.03340513373464346,0.024816196487052366
1772093634905841700,9.013841552734375,0.07777472907602787,-0.04091337220659479,0.031415713483095166
1772093634915790800,9.023790771484375,0.07912205203175544,-0.025566055873129514,0.028932819759333504
1772093634925740800,9.03374072265625,0.08750584949553013,-0.04805317922495305,0.020385246568592263
1772093634935690800,9.043690673828126,0.07553425667285919,-0.038056886796932664,0.022475378115102647
1772093634945639700,9.0536396484375,0.06192132638394832,-0.04055739837577566,0.028122325360355898
1772093634955590000,9.06358984375,0.07539338689744472,-0.03542712281523272,0.026942111732996998
1772093634965539600,9.07353955078125,0.08362637771368026,-0.02778765917904675,0.032913486893335356
1772093634975489500,9.083489501953125,0.0707581283122301,-0.039602892396226524,0.027346701345359905
1772093634985438700,9.093438720703125,0.06731587890386581,-0.03738044884009287,0.02068022919348441
1772093634995388700,9.103388671875,0.07000935577154159,-0.03484152321331203,0.018455246620392426
1772093635005338600,9.113338623046875,0.08018179021775722,-0.027901604414917527,0.021633191669918596
1772093635015288600,9.12328857421875,0.06985621103644371,-0.029674934230372308,0.026765750519093124
1772093635025237800,9.13323779296875,0.06536825196743011,-0.019090265721455214,0.025799234441341832
1772093635035187700,9.143187744140626,0.0644715953886509,-0.027316132677160203,0.027659904613532123
1772093635045137700,9.1531376953125,0.0710550654321909,-0.026169045001268387,0.017377534386282787
1772093635055087900,9.163087890625,0.06551847409307957,-0.03039183206176385,0.020485145012801513
1772093635065036800,9.173036865234375,0.07195347557663917,-0.020637623027618974,0.030437132508214563
1772093635074986800,9.18298681640625,0.07733984479010104,-0.025334512139577416,0.020906676626810804
1772093635084936700,9.192936767578125,0.07554185545742512,-0.030596999245043843,0.019394701161282137
1772093635094886700,9.20288671875,0.06475976468026638,-0.0335262393636629,0.02287229587766342
1772093635104835800,9.2128359375,0.08273381278812884,-0.005611574537772685,0.0288394515206106
1772093635114785800,9.222785888671876,0.29231647442281244,0.03803231861125678,-0.02239551781192422
1772093635124735500,9.232735595703126,0.011227496457099913,-0.11019602113878353,-0.108238402531296
1772093635134685000,9.242684814453124,-0.1908604255080223,-0.07777624517967924,0.25174320262447
1772093635144634600,9.252634521484374,0.06819733791351318,0.03434265204677358,0.05820690897069871
1772093635154584600,9.26258447265625,0.1285159052759409,-0.057044386263657355,-0.15011369683891534
1772093635164534800,9.27253466796875,0.14630232185721395,0.002168430080264807,0.12221240295125171
1772093635174483700,9.282483642578125,0.055498599860072134,-0.06555018440559505,0.03717187499017455
1772093635184433700,9.29243359375,0.057583004918694496,0.02307657714495435,-0.02419829291757196
1772093635194383600,9.302383544921875,0.021388824987411497,-0.03175374979842454,0.06706962165837176
1772093635204333800,9.312333740234376,0.09532850594520569,-0.0623329759247601,0.030612717403983695
1772093635214282800,9.32228271484375,0.030412089398503303,0.005172689930163323,0.0066759888988919555
1772093635224232700,9.332232666015624,0.07204992168843746,-0.02777058018008247,0.017167234370158983
1772093635234182700,9.3421826171875,0.07462240252494812,-0.06201689571291208,0.059093035022309046
1772093635244132900,9.3521328125,0.08376315583586692,-0.01766388618014753,0.030777744373120367
1772093635254081800,9.362081787109375,0.02808276966810226,0.01889477968197316,0.024100339835276825
1772093635264031700,9.37203173828125,0.16051906325817109,-0.06539490251233801,0.005680000131484121
1772093635273981700,9.381981689453125,0.11053601194918156,-0.03266260827165097,-0.0038318880467675624
1772093635283931400,9.391931396484376,-0.006178980895876884,-0.026258951774425804,0.04496862981361337
1772093635293880600,9.401880615234376,0.1267021338522434,-0.0471242460780777,0.010536765113426372
1772093635303830300,9.411830322265626,0.028393735313415526,-0.01741661515450105,0.008156263185059652
1772093635313780500,9.421780517578124,0.09213993903696537,-0.04227297012200579,0.02439810807229951
1772093635323729400,9.4317294921875,0.056225160568952555,-0.03470315592223778,0.036331780037377026
1772093635333679400,9.441679443359375,0.06909750162363051,-0.022034246751479802,0.011293903623661025
1772093635343629600,9.451629638671875,0.09363456150889396,-0.02979445069050416,0.0127288043981418
1772093635353579500,9.46157958984375,0.05667758051156997,-0.02679057443309575,0.03639931058194488
1772093635363528400,9.471528564453125,0.09079320060312747,-0.031526955305226145,0.015990683137765152
1772093635373478400,9.481478515625,0.06565525221526622,-0.018805402631778267,0.020247482065716756
1772093635383428600,9.4914287109375,0.08017243786752223,-0.03687308383984491,0.02893420799882151
1772093635393378600,9.501378662109374,0.06999298915863036,-0.031326920954789964,0.03077911434629932
1772093635403327500,9.511327392578124,0.06969312942922115,-0.021205906168557703,0.026182068879622964
1772093635413277400,9.52127734375,0.07298340314626693,-0.02589121444057673,0.02774691617670469
1772093635423227600,9.5312275390625,0.06175882929861545,-0.0344676666659303,0.029821311297966165
1772093635433177300,9.54117724609375,0.0714817664116621,-0.023375870618782935,0.015326766735780983
1772093635443126500,9.55112646484375,0.07028232749402523,-0.02732833457160741,0.027317219522548838
1772093635453076500,9.561076416015625,0.07237783846855163,-0.02961094734976068,0.027919660661416126
1772093635463026400,9.5710263671875,0.06100128892958164,-0.03433034055447206,0.01876703424961306
1772093635472976400,9.580976318359374,0.06204758311212062,-0.02622815477736294,0.02196548323105089
1772093635482925300,9.59092529296875,0.07312135031223296,-0.030516006430704144,0.022890580453025177
1772093635492875500,9.60087548828125,0.06683657095432281,-0.02704540771069005,0.024937028121436014
1772093635502825500,9.610825439453125,0.07446516613662242,-0.02454338002819568,0.02514073399999179
1772093635512774400,9.6207744140625,0.0684796619862318,-0.020839264813251792,0.028471239262726156
1772093635522724400,9.630724365234375,0.07760930938124656,-0.026560619868431237,0.026910848945053294
1772093635532674600,9.640674560546875,0.07596212669610977,-0.024200503140967337,0.027281253160024062
1772093635542624500,9.65062451171875,0.06414367860853672,-0.03154971512630582,0.02692024696106091
1772093635552573400,9.660573486328126,0.07746025629937649,-0.03441153429821133,0.027323868459044023
1772093635562523600,9.670523681640624,0.07251929276585578,-0.03449669183101505,0.02310252443696372
1772093635572473600,9.6804736328125,0.06757949827611447,-0.02862093166541308,0.02557812077025883
1772093635582423600,9.690423583984375,0.0808972450107336,-0.032218188972398636,0.025160507279541344
1772093635592372500,9.70037255859375,0.06757423757910729,-0.027880634692125022,0.022336846427246926
1772093635602322700,9.71032275390625,0.06742576901912689,-0.03279622632237151,0.020414509195694697
1772093635612272400,9.7202724609375,0.07012216849625111,-0.0356497525899671,0.020068116043973714
1772093635622221600,9.7302216796875,0.0693728114336729,-0.023349201807565986,0.022778297451278195
1772093635632171500,9.740171630859376,0.07535714654028415,-0.024407259493134915,0.02303373351707123
1772093635642121500,9.75012158203125,0.06488368332087993,-0.027117687495611605,0.019382873726170508
1772093635652071400,9.760071533203124,0.06563187133967877,-0.024410675292927772,0.026860625728312878
1772093635662020400,9.770020263671874,0.07580664387345314,-0.029678149100765584,0.017793713971739632
1772093635671970600,9.779970458984375,0.07356149529516696,-0.03088105861712247,0.016674610281316563
1772093635681920500,9.78992041015625,0.0743090987920761,-0.03536337339663878,0.019840298637468366
1772093635691870500,9.799870361328125,0.07370879481136798,-0.023272976499889044,0.024565573593694715
1772093635701819400,9.8098193359375,0.0698176325917244,-0.037186515436880285,0.026395921692857517
1772093635711769600,9.81976953125,0.0717652595281601,-0.031566903723124415,0.02407746128318831
1772093635721719600,9.829719482421876,0.07296352940201759,-0.029472306064050643,0.026247973722685128
1772093635731669500,9.83966943359375,0.07251695467829704,-0.04481669978806749,0.01735493896198459
1772093635741618400,9.849618408203124,0.07566226696670054,-0.028802480511087924,0.020808212087862193
1772093635751568600,9.859568603515624,0.08519464994370937,-0.0274828675461933,0.029305945654353124
1772093635761518600,9.8695185546875,0.20084990460276603,0.09987254258301108,0.025602698089089243
1772093635771468300,9.87946826171875,0.26795886275768277,-0.00916460911054164,-0.12216532153966836
1772093635781417700,9.889417724609375,-0.3951034796804189,-0.22528821682129055,0.05486725228712894
1772093635791367400,9.899367431640625,0.2945242136001587,0.02968940114714205,0.34515308853201565
1772093635801317400,9.9093173828125,-0.1264928750157356,-0.0200690476257354,-0.20669554362474007
1772093635811266300,9.919266357421876,0.16871990537047385,-0.0025953137228265405,-0.040988757264055306
1772093635821216500,9.929216552734376,0.11638649154305457,-0.09014617140386252,0.1836545127172023
1772093635831166500,9.93916650390625,-0.04082242425382137,-0.06632189943045377,-0.026899094575177876
1772093635841116400,9.949116455078125,0.1715454841852188,0.013087116316519676,-0.015094501483021303
1772093635851065300,9.9590654296875,0.03918342487514019,-0.05368155876705423,0.0475432843409013
1772093635861015600,9.969015625,0.04105740205347538,-0.07952756409272552,0.039234744070423766
1772093635870965500,9.978965576171875,0.12263970671892166,-0.012700546418037265,0.031998143880395215
1772093635880915500,9.98891552734375,0.04808627777695656,0.03859212618479505,0.03888476158897392
