time,seconds_elapsed,z,y,x
1772093626040632000,0.148632080078125,0.0025879032909870148,-0.0002735741436481476,0.0009527546353638172
1772093626050582000,0.15858203125,0.0010320842266082764,-0.0005678534507751465,0.0009421017020940781
1772093626060531000,0.168531005859375,-0.0009580119512975216,0.0002130870707333088,-0.0005624322220683098
1772093626070481200,0.178481201171875,0.001780250109732151,-0.0013728253543376923,-0.001532088965177536
1772093626080431000,0.18843115234375,-0.002030527452006936,0.0040070852264761925,0.00018515996634960175
1772093626090380000,0.198380126953125,0.001825463492423296,0.000012077391147613525,-0.0016657370142638683
1772093626100330000,0.208330078125,-0.00003597605973482132,0.001313031418249011,0.000020124949514865875
1772093626110280000,0.218280029296875,-0.0008988401386886835,0.0013921272475272417,0.002236673841252923
1772093626120230000,0.22822998046875,-0.0014545605517923832,-0.002102161291986704,-0.0003611072897911072
1772093626130178800,0.2381787109375,-0.001418608007952571,-0.0014542145654559135,0.0034075321163982153
1772093626140128800,0.248128662109375,0.0005566850304603577,-0.000043639447540044785,-0.00024373270571231842
1772093626150079000,0.258078857421875,-0.0006989953108131886,-0.0006734770722687244,-0.00004506111145019531
1772093626160028000,0.26802783203125,-0.0010657098609954119,-0.0008672992698848248,-0.0010511837899684906
1772093626169977900,0.277977783203125,-0.0016574643086642027,0.0004546940326690674,0.000610095914453268
1772093626179928000,0.287927978515625,-0.0017631461378186941,-0.000123477540910244,-0.00012509850785136223
1772093626189877000,0.297876953125,-0.00114369485527277,-0.0023765116930007935,-0.000433226116001606
1772093626199827000,0.307826904296875,-0.000728268176317215,-0.001503477804362774,0.0012619281187653542
1772093626209777000,0.31777685546875,-0.0018579810857772827,-0.0008334266021847725,0.0009591267444193363
1772093626219727000,0.32772705078125,-0.00012977328151464462,-0.0012072362005710602,-0.0015408983454108238
1772093626229676000,0.337676025390625,0.000432685948908329,0.0035465063992887735,-0.0002647116780281067
1772093626239626000,0.3476259765625,-0.0009288303554058075,-0.0008525000885128975,-0.0006256499327719212
1772093626249576000,0.357575927734375,0.0007596137002110481,0.0013339552097022533,0.001380775822326541
1772093626259525000,0.367525146484375,-0.0011536849197000265,0.0011247971560806036,0.000760374590754509
1772093626269475000,0.37747509765625,-0.0008618026040494442,0.0013341216836124659,-0.00002765469253063202
1772093626279425800,0.38742578125,0.0020545776933431625,-0.0012888298369944096,0.0015477659180760384
1772093626289374700,0.397374755859375,-0.00028527574613690376,0.0006350374314934015,0.0007743840105831623
1772093626299324700,0.40732470703125,-0.0001595490612089634,0.0012397386599332094,-0.0013061482459306717
1772093626309275000,0.41727490234375,-0.0011313362047076225,-0.0010559060610830784,0.00002782931551337242
1772093626319224800,0.427224853515625,0.000029291026294231415,0.000648091547191143,0.0017721094191074371
1772093626329173800,0.437173828125,-0.001453290693461895,0.0026337443850934505,0.003231787821277976
1772093626339123700,0.447123779296875,-0.001525077037513256,-0.0005475655198097229,0.0023761847987771034
1772093626349074000,0.457073974609375,0.0031951097771525383,0.00041223736479878426,-0.002329088281840086
1772093626359022800,0.46702294921875,-0.0014416156336665154,-0.00033903634175658226,0.0014551032800227404
1772093626368972800,0.476972900390625,-0.0003771502524614334,-0.0012088245712220669,-0.0011678440496325493
1772093626378923000,0.486923095703125,-0.0002473895438015461,0.0031235478818416595,0.003293196903541684
1772093626388872000,0.496871826171875,-0.0008252952247858047,0.00021431036293506622,-0.00038010114803910255
1772093626398822000,0.50682177734375,-0.000996316084638238,0.001031370833516121,-0.0007370458915829659
1772093626408771800,0.516771728515625,0.00005723023787140846,0.000630298862233758,-0.002051315736025572
1772093626418721800,0.5267216796875,0.002097151707857847,-0.0004935534670948982,0.001650397665798664
1772093626428671000,0.5366708984375,-0.0012696164194494486,-0.0005670567043125629,0.0016053903382271528
1772093626438621000,0.546620849609375,-0.0006492859683930874,0.0017701264005154371,0.0006090770475566387
1772093626448570600,0.556570556640625,-0.0003592679277062416,-0.0010733306407928467,-0.0004793568514287472
1772093626458519800,0.566519775390625,0.0012619607150554657,0.0010290294885635376,-0.0024749236181378365
1772093626468469800,0.5764697265625,-0.002817203290760517,-0.0015377248637378216,-0.001765191089361906
1772093626478419700,0.586419677734375,-0.0011463151313364506,0.0005838568322360516,-0.002612247597426176
1772093626488368600,0.59636865234375,0.0005242857150733471,-0.001402062363922596,-0.0010388526134192944
1772093626498318800,0.60631884765625,-0.0004027825780212879,-0.0005080569535493851,-0.0014784438535571098
1772093626508268800,0.616268798828125,0.0007756659761071205,0.0038067966233938932,0.002279276493936777
1772093626518218800,0.62621875,-0.0003071622923016548,-0.0007913880981504917,-0.00129369692876935
1772093626528167700,0.636167724609375,-0.0004467121325433254,0.0009409978520125151,0.0012139356695115566
1772093626538118000,0.646117919921875,-0.0023500914685428143,0.0003138286992907524,-0.0013577579520642757
1772093626548067800,0.65606787109375,0.0015908540226519108,0.000142587348818779,0.00025478610768914223
1772093626558016800,0.666016845703125,0.0018044211901724339,0.00030641118064522743,0.0017156789544969797
1772093626567967000,0.675967041015625,-0.001730392687022686,0.002584479283541441,0.0018269990105181932
1772093626577917000,0.6859169921875,0.0008298233151435852,-0.0008301343768835068,0.000685657374560833
1772093626587865900,0.695865966796875,-0.0008623495232313871,-0.0019486621022224426,-0.00017800554633140564
1772093626597815800,0.70581591796875,-0.00033869966864585876,0.0002980949357151985,-0.0021964474581182003
1772093626607766000,0.71576611328125,0.00044347066432237625,0.0019828106742352247,0.0012560742907226086
1772093626617715700,0.7257158203125,-0.0007071834988892078,-0.0012126509100198746,-0.002201568800956011
1772093626627665000,0.735664794921875,-0.00045791175216436386,0.002007643226534128,-0.00023189466446638107
1772093626637614800,0.74561474609375,0.0010046511888504028,-0.004524681251496077,-0.005930688697844744
1772093626647564800,0.755564697265625,0.0013732323423027992,-0.0015635122545063496,-0.0012160949409008026
1772093626657514000,0.765513916015625,-0.0018266094848513603,-0.0024019423872232437,-0.0003123246133327484
1772093626667463700,0.775463623046875,-0.0017065010033547878,-0.0013369442895054817,0.00009726965799927711
1772093626677414000,0.785413818359375,-0.0005154642276465893,0.0035797464661300182,-0.0002304515801370144
1772093626687363800,0.79536376953125,0.0001705656759440899,-0.0008759885095059872,0.0016902198549360037
1772093626697312800,0.805312744140625,-0.0007826539222151041,0.0009005086030811071,-0.0013586757704615593
1772093626707262700,0.8152626953125,-0.002435944275930524,0.0010736139956861734,0.000929778441786766
1772093626717213000,0.825212890625,0.0003077699802815914,0.0008479023817926645,-0.0024742744863033295
1772093626727161900,0.835161865234375,-0.0006770673207938671,0.0005919726099818945,-0.0020931758917868137
1772093626737111800,0.84511181640625,0.0013851872645318508,0.0004950701259076595,0.002484416589140892
1772093626747061800,0.855061767578125,0.0014104871079325676,0.0033499784767627716,0.0017616346012800932
1772093626757011000,0.865010986328125,0.00040463637560606003,-0.000010551419109106064,0.001365296309813857
1772093626766961000,0.8749609375,0.0016608494333922863,0.002453139051795006,0.0027711789589375257
1772093626776910800,0.884910888671875,-0.0002573109231889248,0.001747769769281149,0.0007555973716080189
1772093626786861000,0.894861083984375,0.0005922373384237289,-0.0011367001570761204,0.0005255001597106457
1772093626796810000,0.90481005859375,0.0014266204088926315,0.003315646667033434,0.002227997640147805
1772093626806760000,0.914760009765625,0.0010583051480352879,0.0005848412401974201,0.002108688233420253
1772093626816709600,0.924709716796875,0.0007416806183755398,-0.0013617551885545254,0.0016951048746705055
1772093626826658800,0.934658935546875,0.0008101239800453186,-0.001191845629364252,0.0009582079946994781
1772093626836608800,0.94460888671875,0.0020368369296193123,-0.000985800288617611,-0.0014092260971665382
1772093626846558700,0.954558837890625,0.0032331286929547787,-0.0029709204100072384,-0.000021719373762607574
1772093626856508000,0.9645078125,0.002520812675356865,0.0005842382088303566,0.000015672296285629272
1772093626866457900,0.974457763671875,-0.000034224241971969604,0.00023483159020543098,0.0021555223502218723
1772093626876407800,0.98440771484375,-0.0005960408598184586,0.002587755210697651,-0.00036742258816957474
1772093626886357800,0.994357666015625,-0.0015196248423308134,0.003284171689301729,0.0012381970882415771
1772093626896306700,1.004306640625,0.0005426541902124882,-0.0026140143163502216,0.0008713016286492348
1772093626906257000,1.0142568359375,-0.0014206282794475555,-0.0016632657498121262,-0.0027199708856642246
1772093626916206800,1.024206787109375,-0.002679296303540468,0.003909001592546701,-0.002647643443197012
1772093626926155800,1.03415576171875,0.0003774799406528473,-0.002669538836926222,-0.001343760173767805
1772093626936105700,1.044105712890625,-0.0038208146579563618,-0.0003491002134978771,-0.00012905709445476532
1772093626946056000,1.054055908203125,0.0002895081415772438,-0.0018900050781667233,-0.0007831291295588017
1772093626956006000,1.064005859375,-0.0001376066356897354,-0.0030882451683282852,-0.001201800536364317
1772093626965954800,1.073954833984375,0.0020927907899022102,-0.0029923710972070694,-0.0002739550545811653
1772093626975905000,1.083905029296875,-0.0002751345746219158,-0.0024050637148320675,-0.0005710623227059841
1772093626985855000,1.09385498046875,0.0019344901666045189,-0.002578701823949814,-0.0012211399152874947
1772093626995804000,1.103803955078125,0.0011453339830040932,0.0006579442415386438,-0.002523448783904314
1772093627005753900,1.11375390625,-0.0004919772036373615,0.00031945621594786644,-0.0010328777134418488
1772093627015703800,1.123703857421875,0.0012218905612826347,-0.00017361808568239212,-0.0017896397039294243
1772093627025653000,1.133653076171875,0.0003670160658657551,0.0012154867872595787,-0.002345707733184099
1772093627035602700,1.143602783203125,0.002441633027046919,0.001165916444733739,0.0011042999103665352
1772093627045552600,1.153552734375,0.002174251712858677,0.00029426394030451775,-0.0012898817658424377
1772093627055502800,1.1635029296875,-0.00024921586737036705,-0.01826426014304161,0.03226208686828613
1772093627065451800,1.17345166015625,0.002117269206792116,0.04580047354102135,0.0071519408375024796
1772093627075401700,1.183401611328125,-0.0001826244406402111,0.0007407157681882381,-0.03325323015451431
1772093627085352000,1.19335205078125,0.0028640320524573326,-0.052157387137413025,0.011092128232121468
1772093627095300900,1.20330078125,0.0026024486869573593,0.04190840199589729,-0.0007216287776827812
1772093627105250800,1.213250732421875,0.0035097883082926273,0.00986551120877266,-0.02113529108464718
1772093627115200800,1.22320068359375,0.003745430149137974,-0.041805945336818695,0.00006869202479720116
1772093627125151000,1.23315087890625,0.001727552618831396,0.02484072744846344,-0.008135175332427025
1772093627135100000,1.243099853515625,0.0028479225002229214,0.009633973240852356,-0.003838074393570423
1772093627145049900,1.2530498046875,-0.00018435250967741013,-0.0256116334348917,0.0024690900463610888
1772093627154999800,1.262999755859375,-0.000593528151512146,0.010164150968194008,-0.008861428126692772
1772093627164949000,1.272948974609375,0.0003534918650984764,0.0014263195917010307,0.0071215322241187096
1772093627174899000,1.28289892578125,0.000698442105203867,-0.007718331646174192,0.0005456693470478058
1772093627184849000,1.292848876953125,0.001402315218001604,-0.0002747965045273304,-0.00953732430934906
1772093627194798800,1.302798828125,-0.00275064492598176,-0.0010632588528096676,0.003840602468699217
1772093627204748000,1.312748046875,0.0021509029902517796,0.0039434838108718395,0.0009116576984524727
1772093627214697700,1.32269775390625,0.0012587923556566238,-0.001687763724476099,-0.00377619918435812
1772093627224647700,1.332647705078125,-0.0019140976946800947,-0.0029181442223489285,0.0009498470462858677
1772093627234596600,1.3425966796875,0.0008154851384460926,0.004517132416367531,-0.001775285229086876
1772093627244546800,1.352546875,0.00024663377553224564,-0.002165537793189287,0.0012460709549486637
1772093627254496800,1.362496826171875,-0.0005146721377968788,-0.003096095286309719,0.0007605012506246567
1772093627264445700,1.37244580078125,-0.0011482380796223879,0.001760977553203702,0.0008348035626113415
1772093627274395000,1.382394775390625,-0.00019838567823171616,-0.0013064639642834663,0.0003280588425695896
1772093627284344800,1.3923447265625,-0.0015693812165409327,-0.00323805445805192,0.00047719618305563927
1772093627294295000,1.402294921875,-0.0013568075373768806,0.0008294580038636923,0.0010935771279036999
1772093627304244000,1.412243896484375,0.002269086427986622,-0.0008507301099598408,-0.002386641688644886
1772093627314194000,1.42219384765625,-0.000533602200448513,-0.0023614349775016308,-0.003203790634870529
1772093627324143900,1.432143798828125,0.0003268653526902199,-0.0014698086306452751,-0.001594974659383297
1772093627334093000,1.442093017578125,-0.0013952921144664288,0.0013251763302832842,-0.0016846423968672752
1772093627344043000,1.45204296875,0.0023216819390654564,0.001009591855108738,0.00006265752017498016
1772093627353993000,1.461992919921875,0.0011179926805198193,-0.0019201613031327724,0.0001406623050570488
1772093627363943200,1.471943115234375,0.000026895664632320404,0.0011997318360954523,-0.0014162217266857624
1772093627373892000,1.48189208984375,0.0012549879029393196,-0.0008237427100539207,0.0013239854015409946
1772093627383842000,1.491842041015625,-0.0013690248597413301,0.0004015774466097355,-0.0027423957362771034
1772093627393792000,1.5017919921875,0.0002584652975201607,-0.0007566693238914013,0.001193174161016941
1772093627403741000,1.511740966796875,0.0011421022936701775,0.00034428155049681664,-0.0007296279072761536
1772093627413691100,1.521691162109375,0.0004494362510740757,0.0013183061964809895,0.0008165128529071808
1772093627423641000,1.53164111328125,0.000652901828289032,-0.0006950437091290951,0.001724650850519538
1772093627433590800,1.5415908203125,-0.002789447084069252,0.002169912215322256,0.002333136508241296
1772093627443540200,1.551540283203125,-0.0009430774953216314,-0.0015651709400117397,-0.0012701204977929592
1772093627453490000,1.561489990234375,-0.0014797844924032688,-0.00006297556683421135,-0.0001165885478258133
1772093627463440000,1.57143994140625,-0.0007892267312854528,0.00036472827196121216,-0.0008990252390503883
1772093627473388800,1.581388916015625,0.00035122549161314964,-0.0038295937702059746,-0.0005550398491322994
1772093627483339000,1.591339111328125,-0.0009025908075273037,-0.00019970489665865898,-0.0016655782237648964
1772093627493289000,1.6012890625,-0.0017594662494957447,-0.0013112062588334084,-0.001120172906666994
1772093627503239000,1.611239013671875,-0.0004931329749524593,0.00029467977583408356,-0.00274922838434577
1772093627513187800,1.621187744140625,-0.0013385722413659096,0.0016092744190245867,-0.0025757565163075924
1772093627523138000,1.631137939453125,0.0013978257775306702,0.000051857903599739075,0.001301006879657507
1772093627533088000,1.641087890625,-0.0004638540558516979,-0.0005671628750860691,-0.003893212415277958
1772093627543037000,1.651036865234375,-0.0003610560670495033,0.0005553597584366798,-0.000638030469417572
1772093627552987100,1.660987060546875,-0.0008857697248458862,0.001007717801257968,-0.0016905269585549831
1772093627562937000,1.67093701171875,0.0013294476084411144,-0.0009491727687418461,0.001119640190154314
1772093627572886000,1.680885986328125,0.0005537667311728001,0.0004524611867964268,-0.00034728366881608963
1772093627582836000,1.6908359375,0.0009846659377217293,0.0023305220529437065,0.0012548738159239292
1772093627592786200,1.7007861328125,0.0013480400666594505,0.0006521767936646938,-0.00016943598166108131
1772093627602735900,1.71073583984375,0.0019158259965479374,0.0019483373034745455,-0.0007116552442312241
1772093627612685000,1.72068505859375,-0.0016959032509475946,-0.00022692373022437096,0.0023422976955771446
1772093627622635000,1.730635009765625,-0.0020253362599760294,-0.0010325298644602299,-0.000937651377171278
1772093627632585000,1.7405849609375,-0.000013051554560661316,-0.0005473019555211067,-0.0031552654691040516
1772093627642534100,1.7505341796875,0.002504967153072357,0.00010543875396251678,-0.003580039832741022
1772093627652483800,1.76048388671875,-0.0013107175473123789,0.0003770343028008938,-0.001306573860347271
1772093627662434000,1.77043408203125,-0.0014582567382603884,-0.0019292635843157768,0.0003709513694047928
1772093627672384000,1.780384033203125,0.0010453322902321815,-0.00047731585800647736,-0.0025700838305056095
1772093627682333000,1.7903330078125,-0.00017466163262724876,-0.000805949792265892,-0.0016523580998182297
1772093627692283000,1.800282958984375,0.0010525439865887165,0.0006919181905686855,-0.0017176959663629532
1772093627702233000,1.810233154296875,-0.0020228743087500334,0.000021866988390684128,-0.00003590993583202362
1772093627712182000,1.82018212890625,0.000494952779263258,0.00031497469171881676,0.0005402220413088799
1772093627722132000,1.830132080078125,-0.00013967836275696754,-0.0006570792756974697,-0.0007836353033781052
1772093627732082000,1.84008203125,-0.001078777713701129,-0.002207721583545208,0.0012711950112134218
1772093627742032100,1.8500322265625,0.00016385316848754883,0.0001411866396665573,0.0008597364649176598
1772093627751981000,1.85998095703125,-0.0026727565564215183,0.0024316508788615465,-0.000046924687922000885
1772093627761931000,1.869930908203125,-0.00013023661449551582,-0.0030355523340404034,-0.0026102173142135143
1772093627771881200,1.879881103515625,-0.0003149816766381264,-0.0011624814942479134,-0.0034224730916321278
1772093627781831000,1.889830810546875,0.0018973061814904213,-0.0005981572903692722,-0.0002703559584915638
1772093627791780000,1.899780029296875,0.0010003885254263878,-0.00045909034088253975,-0.001570994034409523
1772093627801729800,1.909729736328125,-0.0014819439966231585,-0.0008918540552258492,-0.004467714577913284
1772093627811680000,1.919679931640625,-0.0003347592428326607,0.001379786990582943,-0.0007877149619162083
1772093627821629000,1.92962890625,0.00038056541234254837,0.0007129313889890909,-0.003795489203184843
1772093627831579000,1.939578857421875,0.0013592843897640705,0.004125252831727266,-0.0003411020152270794
1772093627841528800,1.94952880859375,-0.000797343673184514,0.00011240178719162941,0.0001976550556719303
1772093627851479000,1.95947900390625,0.001431846059858799,0.002572610042989254,-0.0031824400648474693
1772093627861428000,1.969427978515625,-0.0005668564699590206,0.0005230412352830172,0.00010203663259744644
1772093627871378000,1.9793779296875,-0.00009758351370692253,0.000988698098808527,0.0030174534767866135
1772093627881328000,1.989328125,0.0017634336836636066,0.0038609174080193043,0.004763422068208456
1772093627891277000,1.999277099609375,-0.0018923578318208456,-0.001906419638544321,-0.002922533545643091
1772093627901227000,2.00922705078125,0.0013092942535877228,-0.0002603195607662201,-0.0022711241617798805
1772093627911177000,2.019177001953125,0.0010922779329121113,0.0023356599267572165,-0.0026837806217372417
1772093627921126000,2.0291259765625,0.00031916238367557526,-0.004508663900196552,-0.004575158003717661
1772093627931076000,2.039076171875,-0.0017029326409101486,-0.0013335319235920906,-0.0009467625059187412
1772093627941026000,2.049026123046875,0.0017392029985785484,0.0011506646405905485,-0.0011060191318392754
1772093627950976000,2.05897607421875,-0.0015101127792149782,-0.001936060842126608,-0.0008193515241146088
1772093627960925200,2.06892529296875,-0.00018439115956425667,-0.002153907436877489,-0.0008068345487117767
1772093627970875100,2.078875244140625,0.001265800092369318,0.002465789671987295,0.00012011360377073288
1772093627980824800,2.088824951171875,0.0008263783529400826,0.001012768829241395,-0.0028312020003795624
1772093627990775000,2.098775146484375,0.0020160633139312267,-0.0023323423229157925,-0.0020245052874088287
1772093628000724000,2.108723876953125,-0.00043164798989892006,-0.0006681326776742935,-0.0024527418427169323
1772093628010674000,2.118673828125,-0.0011875082273036242,0.001704218564555049,-0.0011759009212255478
1772093628020624000,2.128623779296875,-0.0015041581355035305,0.0004306952469050884,0.001058491412550211
1772093628030572800,2.13857275390625,-0.0011930514592677355,0.0024609346874058247,-0.00226446520537138
1772093628040523000,2.14852294921875,-0.0004577524960041046,0.0010537202470004559,-0.0009414069354534149
1772093628050473000,2.158472900390625,-0.0014887002762407064,-0.0006153024733066559,-0.0019231024198234081
1772093628060423000,2.1684228515625,-0.0026397183537483215,-0.002991640940308571,-0.00009644031524658203
1772093628070372000,2.1783720703125,0.000577571801841259,0.000028967391699552536,0.0010694586671888828
1772093628080322000,2.188322021484375,0.0006071329116821289,-0.00011457689106464386,-0.00246615381911397
1772093628090272000,2.19827197265625,0.00043274136260151863,-0.0010330872610211372,-0.0011348887346684933
1772093628100221000,2.208220947265625,0.0006846762262284756,-0.0028285905718803406,-0.0013713776133954525
1772093628110171100,2.218171142578125,-0.0005493713542819023,0.0013488898985087872,-0.0002873833291232586
1772093628120121000,2.22812109375,-0.001297719543799758,-0.001281247939914465,0.004525747615844011
1772093628130071000,2.238071044921875,-0.00021730083972215652,-0.002217247150838375,0.001896493835374713
1772093628140020000,2.24802001953125,-0.0007986689452081919,0.0026299720630049706,-0.00306524196639657
1772093628149970200,2.25797021484375,0.0018558376468718052,-0.004732430912554264,0.0008893124759197235
1772093628159919900,2.267919921875,-0.0006470009684562683,0.006385467946529388,-0.0007043234072625637
1772093628169869000,2.277869140625,0.0027650282718241215,0.0020630955696105957,-0.004978748504072428
1772093628179819000,2.287819091796875,0.0006427550688385963,-0.002731659449636936,-0.0008324729278683662
1772093628189769000,2.29776904296875,-0.0027258312329649925,0.002529851859435439,-0.003949855919927359
1772093628199719000,2.307718994140625,-0.00023684091866016388,-0.0016020424664020538,0.0010917745530605316
1772093628209667800,2.317667724609375,0.00024488475173711777,-0.004569563083350658,0.0009259483776986599
1772093628219618000,2.3276181640625,-0.00007522711530327797,0.001436131540685892,-0.0011105709709227085
1772093628229568000,2.337568115234375,-0.0008046478033065796,-0.0024280049838125706,0.0028794908430427313
1772093628239517000,2.347516845703125,-0.001243004109710455,0.0006324995774775743,0.0009095505811274052
1772093628249467000,2.357466796875,0.00327284075319767,0.0013868086971342564,-0.0005320925265550613
1772093628259417000,2.3674169921875,0.001409693155437708,-0.0009453217498958111,-0.0004418115131556988
1772093628269367000,2.377366943359375,0.0026005255058407784,-0.0006197653710842133,-0.0026247380301356316
1772093628279316000,2.38731591796875,0.0003733239136636257,-0.0003180294297635555,0.002718894276767969
1772093628289266000,2.397265869140625,-0.0015043891035020351,0.0007827936206012964,0.0009240959770977497
1772093628299216000,2.4072158203125,-0.0015488637145608664,0.0010792035609483719,0.0005153007805347443
1772093628309164800,2.417164794921875,-0.0002475581131875515,0.00162057438865304,0.0018170808907598257
1772093628319115000,2.427114990234375,0.0000701569952070713,0.001197930658236146,0.0003358307294547558
1772093628329065000,2.43706494140625,-0.002309356117621064,0.0001028766855597496,0.0027378895319998264
1772093628339014700,2.4470146484375,0.00232560932636261,0.001330327708274126,0.0020057866349816322
1772093628348963800,2.4569638671875,-0.0004826197400689125,0.0006092248950153589,0.0001951511949300766
1772093628358913800,2.466913818359375,0.0011035590432584286,0.002810593694448471,0.0006822436116635799
1772093628368863700,2.47686376953125,0.0009396914392709732,-0.003822220955044031,0.0026590232737362385
1772093628378812700,2.486812744140625,-0.0022225461434572935,0.0019022440537810326,-0.000659275334328413
1772093628388762600,2.4967626953125,0.0008885632269084454,-0.0017431927844882011,0.0012946962378919125
1772093628398712800,2.506712890625,-0.001886184560135007,0.00013966206461191177,0.001135971862822771
1772093628408662800,2.516662841796875,0.0006953473202884197,0.0004209345206618309,-0.0006607081741094589
1772093628418611700,2.52661181640625,-0.001121727516874671,-0.0031900457106530666,-0.0009952010586857796
1772093628428562000,2.53656201171875,-0.001589411636814475,0.0003251750022172928,0.0002764738164842129
1772093628438511900,2.546511962890625,-0.00043120281770825386,-0.005510077346116304,0.0021044674795120955
1772093628448461800,2.5564619140625,0.00026798713952302933,-0.0010890872217714787,-0.0013620248064398766
1772093628458410800,2.56641064453125,-0.0002779606729745865,-0.001482435967773199,-0.00019023381173610687
1772093628468361000,2.57636083984375,-0.0008970238268375397,-0.0005804733373224735,-0.0008413717150688171
1772093628478311000,2.586310791015625,0.0004854230210185051,0.0023388839326798916,-0.0009825192391872406
1772093628488259800,2.596259765625,-0.00046690506860613823,0.002085466170683503,0.0014143416192382574
1772093628498209800,2.606209716796875,-0.001593155786395073,0.001733662560582161,-0.0011508148163557053
1772093628508160000,2.616159912109375,-0.0004731202498078346,-0.000230313278734684,0.0005284841172397137
1772093628518109700,2.626109619140625,0.0024001640267670155,-0.00052219582721591,-0.00032505905255675316
1772093628528059000,2.636058837890625,0.0012800674885511398,-0.0020458665676414967,0.00020984141156077385
1772093628538008800,2.6460087890625,0.0007173414342105389,-0.001445590052753687,-0.0012988392263650894
1772093628547958800,2.655958740234375,-0.0010885039810091257,0.001544501632452011,0.001166805624961853
1772093628557907700,2.66590771484375,0.00003428477793931961,0.0024955165572464466,-0.0013296413235366344
1772093628567857700,2.675857666015625,-0.0005546580068767071,0.0015176802407950163,-0.003172154538333416
1772093628577808000,2.685807861328125,0.0011582872830331326,-0.0015351013280451298,-0.0023811953142285347
1772093628587757800,2.6957578125,-0.003050480503588915,0.0013743462041020393,-0.0015973420813679695
1772093628597706800,2.705706787109375,-0.0017194326501339674,0.00037885643541812897,-0.000917170662432909
1772093628607656700,2.71565673828125,0.0010928348638117313,-0.0013989736326038837,-0.0009048506617546082
1772093628617607000,2.72560693359375,-0.0014619354624301195,0.0013235760852694511,-0.0003136289305984974
1772093628627555800,2.735555908203125,-0.0009504705667495728,0.0012492837850004435,0.00000472506508231163
1772093628637505800,2.745505859375,0.001018670853227377,-0.0013648751191794872,-0.0009755846112966537
1772093628647456000,2.7554560546875,0.00037939567118883133,-0.0021623410284519196,-0.0005582827143371105
1772093628657406000,2.765406005859375,-0.002697886899113655,0.001661958172917366,-0.0015167542733252048
1772093628667355000,2.77535498046875,0.001380806788802147,-0.0013258368708193302,-0.0005527706816792488
1772093628677304800,2.785304931640625,-0.0006370702758431435,-0.0023871068842709064,0.0014448664151132107
1772093628687254800,2.7952548828125,0.0004977397620677948,0.0009131829719990492,-0.0002454523928463459
1772093628697204000,2.805203857421875,-0.001064470736309886,-0.0003222576342523098,0.0006712079048156738
1772093628707154000,2.81515380859375,-0.0002583581954240799,0.001837469870224595,-0.0015645851381123066
1772093628717103600,2.825103515625,0.00025936029851436615,0.0025951392017304897,0.0010634222999215126
1772093628727053800,2.8350537109375,-0.0009215669706463814,0.0020908808801323175,0.0006457986310124397
1772093628737002800,2.845002685546875,0.000014800578355789185,0.0014128400944173336,0.0007768264040350914
1772093628746952700,2.85495263671875,0.0008123107254505157,0.0001932312734425068,0.0028515250887721777
1772093628756903000,2.86490283203125,-0.001206631539389491,0.0003050840459764004,0.00008902791887521744
1772093628766852900,2.874852783203125,0.00020454730838537216,-0.0018848618492484093,-0.0012314054183661938
1772093628776801800,2.8848017578125,0.0007435707375407219,-0.0007881722413003445,-0.00014243880286812782
1772093628786751700,2.894751708984375,-0.0026607627514749765,0.001808026572689414,0.001629415899515152
1772093628796702000,2.904701904296875,-0.000507863238453865,0.0006974884308874607,0.000022730790078639984
1772093628806651000,2.91465087890625,0.0014057392254471779,0.00030901702120900154,-0.00018476136028766632
1772093628816600800,2.924600830078125,0.00016497261822223663,-0.002179440576583147,0.001013394445180893
1772093628826550800,2.93455078125,0.0008724122308194637,0.001579929143190384,-0.0009477008134126663
1772093628836501000,2.9445009765625,-0.0008306794334203005,-0.00026777200400829315,0.0009934771806001663
1772093628846450000,2.954449951171875,-0.0004272274672985077,-0.00015401747077703476,-0.002256183885037899
1772093628856400000,2.96439990234375,0.00029795151203870773,0.00005077943205833435,0.00170873012393713
1772093628866349800,2.974349853515625,-0.0009951861575245857,-0.001123978290706873,-0.00032322900369763374
1772093628876299000,2.984299072265625,0.0002626245841383934,0.0014049597084522247,0.0008570840582251549
1772093628886248700,2.994248779296875,0.00019091740250587463,-0.00012220721691846848,0.00166601431556046
1772093628896198700,3.00419873046875,0.00038160011172294617,-0.0001957104541361332,-0.0015750527381896973
1772093628906148900,3.01414892578125,-0.0030735002364963293,-0.0014642588794231415,0.0002987929619848728
1772093628916097800,3.024097900390625,0.0009119203314185143,0.00268095126375556,0.0009667137637734413
1772093628926047700,3.0340478515625,0.0007063834927976131,-0.0013204137794673443,-0.001797917764633894
1772093628935997700,3.043997802734375,0.0004523182287812233,-0.0018213544972240925,-0.000010936986654996872
1772093628945947000,3.05394677734375,-0.0025237146764993668,0.0003364100120961666,0.0004098317585885525
1772093628955896800,3.063896728515625,-0.0017244999762624502,-0.0018796063959598541,-0.0012943251058459282
1772093628965846800,3.0738466796875,-0.0015230663120746613,-0.0016041090711951256,-0.0008923527784645557
1772093628975797000,3.083796875,-0.0030384049750864506,0.0009764940477907658,0.0005438900552690029
1772093628985746000,3.093745849609375,-0.0003176257014274597,-0.0021051340736448765,-0.002423714380711317
1772093628995695900,3.10369580078125,-0.0005751533899456263,-0.00040150992572307587,-0.0006322059780359268
1772093629005645800,3.113645751953125,0.0016416828148066998,-0.000763709656894207,-0.0018270602449774742
1772093629015596000,3.123595947265625,-0.0004510292783379555,-0.0005842125974595547,-0.001130377408117056
1772093629025545000,3.133544921875,0.0014978107064962387,-0.0008211438544094563,0.0010733399540185928
1772093629035495000,3.143494873046875,-0.0008606845512986183,0.0007538497447967529,-0.0025014211423695087
1772093629045444600,3.153444580078125,-0.0012043565511703491,0.0009961947798728943,-0.00005451124161481857
1772093629055394000,3.16339404296875,-0.00026079872623085976,-0.0008704150095582008,-0.0031616208143532276
1772093629065343700,3.17334375,-0.000768688740208745,-0.0005251634865999222,-0.0028973170556128025
1772093629075293700,3.183293701171875,0.00020576175302267075,0.0005859073717147112,-0.00008927937597036362
1772093629085244000,3.193243896484375,0.0004383823834359646,-0.002267101313918829,-0.0030529648065567017
1772093629095192800,3.20319287109375,-0.0007946612313389778,0.0005515886005014181,0.0011652163229882717
1772093629105142800,3.213142822265625,0.0026858514174818993,0.002226029522716999,-0.0006567630916833878
1772093629115092700,3.2230927734375,-0.0016087621916085482,-0.0014062561094760895,-0.00252177519723773
1772093629125043000,3.23304296875,-0.001607760088518262,0.0014254306443035603,0.0010656053200364113
1772093629134992000,3.242991943359375,-0.0004921620711684227,-0.0010281396098434925,0.00013056956231594086
1772093629144941800,3.25294189453125,-0.0006334283389151096,0.0006622693035751581,-0.0010955440811812878
1772093629154891800,3.262891845703125,-0.0010073361918330193,-0.0011212495155632496,-0.0012966128997504711
1772093629164841000,3.272841064453125,0.0003184671513736248,-0.000992774497717619,0.001210018526762724
1772093629174791000,3.282791015625,-0.0007404058706015348,-0.00028730323538184166,-0.0007596556097269058
1772093629184740900,3.292740966796875,-0.00044003454968333244,-0.0021895314566791058,-0.0005155308172106743
1772093629194690800,3.30269091796875,-0.001102629117667675,0.0015418233815580606,-0.00036452943459153175
1772093629204640000,3.312639892578125,-0.0014619026333093643,-0.0014469465240836143,-0.0003938404843211174
1772093629214590000,3.32258984375,0.0007756855338811874,0.001965894363820553,-0.0002524266019463539
1772093629224539600,3.33253955078125,-0.001542910235002637,0.00028127385303378105,-0.002645466011017561
1772093629234488800,3.34248876953125,-0.0004334375262260437,0.001980636967346072,0.002581520238891244
1772093629244438800,3.352438720703125,-0.0001445137895643711,0.001248762710019946,-0.0003991485573351383
1772093629254388700,3.362388671875,0.000012079719454050064,-0.00047084037214517593,0.002285317750647664
1772093629264338700,3.372338623046875,0.0013316487893462181,0.000025183428078889847,-0.0003826962783932686
1772093629274288000,3.3822880859375,-0.0018905098550021648,0.0016499781049787998,0.0009787115268409252
1772093629284238000,3.392238037109375,0.0007618884555995464,-0.0004298319108784199,-0.0006648660637438297
1772093629294188000,3.40218798828125,-0.00034571997821331024,-0.0001603197306394577,-0.0012600827030837536
1772093629304138200,3.41213818359375,-0.000294338446110487,-0.0010602264665067196,0.0010122931562364101
1772093629314087200,3.422087158203125,-0.0005244356580078602,-0.001435199286788702,-0.0010508578270673752
1772093629324037000,3.432037109375,-0.001206079265102744,-0.0014021643437445164,0.001518059754744172
1772093629333987300,3.4419873046875,0.0011308444663882256,0.00028228480368852615,-0.0006897007115185261
1772093629343936300,3.451936279296875,-0.0015269506257027388,0.0024320692755281925,-0.00025986041873693466
1772093629353886200,3.46188623046875,0.0011364766396582127,-0.0024255365133285522,0.00035506347194314003
1772093629363836200,3.471836181640625,0.00027883099392056465,0.0011644784826785326,-0.001531890593469143
1772093629373786000,3.4817861328125,-0.00031185848638415337,-0.0034244144335389137,-0.0020996765233576298
1772093629383735300,3.4917353515625,-0.0033461828716099262,-0.0006145392544567585,0.0016654797364026308
1772093629393685000,3.50168505859375,-0.0009320273529738188,-0.000026779714971780777,-0.00039341021329164505
1772093629403635000,3.511635009765625,0.00006398791447281837,0.0012216095346957445,-0.000028049107640981674
1772093629413584100,3.521584228515625,-0.0015134024433791637,-0.003527339082211256,-0.00040169060230255127
1772093629423534000,3.5315341796875,0.0010037589818239212,-0.0007582544349133968,-0.00041307415813207626
1772093629433484000,3.541484130859375,-0.0014255763962864876,0.0014138196129351854,0.001762728439643979
1772093629443434200,3.551434326171875,0.0016154665499925613,0.0012336249928921461,0.0006205388344824314
1772093629453383200,3.561383056640625,0.002037311438471079,-0.0012473757378757,0.001907910918816924
1772093629463333000,3.5713330078125,-0.0006553533021360636,-0.0014062500558793545,-0.0015674219466745853
1772093629473283000,3.581282958984375,-0.000181577168405056,0.0009205539245158434,0.0013617887161672115
1772093629483233300,3.5912333984375,-0.00000838516280055046,0.0017745699733495712,-0.0009842859581112862
1772093629493182200,3.60118212890625,0.00011332100257277489,0.0007439267355948687,0.000027715228497982025
1772093629503132200,3.611132080078125,-0.0005420723464339972,0.0033888835459947586,0.0038094292394816875
1772093629513082000,3.62108203125,0.0007378431037068367,-0.0006817583926022053,-0.0023605823516845703
1772093629523031300,3.63103125,-0.00037196744233369827,-0.001636536791920662,-0.0012248754501342773
1772093629532981200,3.640981201171875,0.0002826377749443054,-0.001364095602184534,0.0028566853143274784
1772093629542931200,3.65093115234375,0.0002708146348595619,-0.0005509774200618267,-0.001810212153941393
1772093629552881000,3.660880859375,-0.0006322632543742657,0.0011260148603469133,-0.0010746470652520657
1772093629562830300,3.670830322265625,-0.0006163716316223145,0.0015672058798372746,0.0007494986057281494
1772093629572780000,3.680780029296875,-0.0010928113479167223,-0.0005481429398059845,-0.001545347273349762
1772093629582730000,3.69072998046875,-0.00016022566705942154,-0.0006297449581325054,-0.0012315944768488407
1772093629592680200,3.70068017578125,0.0013479222543537617,-0.0025272471830248833,-0.0011077574454247952
1772093629602629000,3.710629150390625,0.0020263702608644962,0.0011739586479961872,0.0010561267845332623
1772093629612579000,3.7205791015625,0.0017129159532487392,0.0004469156265258789,0.000858786515891552
1772093629622529000,3.730529052734375,-0.0012764045968651772,-0.0003287242725491524,0.0024456277024000883
1772093629632478200,3.740478271484375,0.0025284537114202976,0.00032641366124153137,0.001098334789276123
1772093629642428200,3.75042822265625,-0.00030722981318831444,-0.0006650569848716259,0.00024373596534132957
1772093629652378000,3.760378173828125,-0.00032986700534820557,0.002741658827289939,0.0036344723775982857
1772093629662328000,3.770328125,-0.0005109538324177265,-0.00018833298236131668,0.0010551558807492256
1772093629672277200,3.78027734375,-0.0010638260282576084,-0.001391016412526369,-0.0007280968129634857
1772093629682227200,3.790227294921875,0.004019776359200478,-0.0017711319960653782,-0.0019213613122701645
1772093629692177200,3.80017724609375,0.00005619321018457413,0.0015647434629499912,-0.002297399565577507
1772093629702126000,3.8101259765625,-0.0026133477222174406,-0.0001649833284318447,0.0012974627315998077
1772093629712076300,3.820076171875,-0.002609086688607931,0.0012110720854252577,0.00004444550722837448
1772093629722026000,3.83002587890625,0.0018909894861280918,0.0011757626198232174,-0.0019723866134881973
1772093629731976000,3.839975830078125,-0.0016819075681269169,-0.001408036332577467,-0.0015625259838998318
1772093629741925000,3.849925048828125,-0.00014665909111499786,-0.00041422247886657715,0.00045756902545690536
1772093629751875000,3.859875,-0.00041217636317014694,-0.0037229335866868496,-0.0032772482372820377
1772093629761825000,3.869824951171875,0.0008898526430130005,0.0011964535806328058,-0.001473564188927412
1772093629771775000,3.87977490234375,-0.0011477319058030844,0.000598840182647109,-0.00019311625510454178
1772093629781724200,3.88972412109375,-0.0003986069932579994,0.0024926341138780117,-0.001004782970994711
1772093629791674000,3.899674072265625,0.00021232198923826218,0.00003906385973095894,0.00006287824362516403
1772093629801624000,3.9096240234375,0.0013474388979375362,-0.002091440837830305,-0.0012435945682227612
1772093629811573000,3.919572998046875,-0.00023980531841516495,-0.00022483151406049728,-0.003700627014040947
1772093629821523200,3.929523193359375,-0.0005298047326505184,-0.000661343801766634,-0.0016071293503046036
1772093629831473200,3.93947314453125,-0.0013431343249976635,-0.0024331449531018734,0.00040701916441321373
1772093629841423000,3.949423095703125,0.0014094109646975994,0.0013190419413149357,-0.00026463158428668976
1772093629851372000,3.9593720703125,-0.0002627880312502384,-0.001143316738307476,-0.0007674363441765308
1772093629861322200,3.969322265625,-0.0012642459478229284,-0.0008048801682889462,-0.0006252909079194069
1772093629871272200,3.979272216796875,-0.00024052709341049194,0.002938725519925356,0.000974469818174839
1772093629881222000,3.989221923828125,-0.0005850694142282009,-0.0013957773335278034,-0.0003306088037788868
1772093629891171300,3.99917138671875,-0.00025643547996878624,-0.002607249189168215,-0.0020542065612971783
1772093629901121000,4.00912109375,-0.002243072958663106,-0.0016702795401215553,-0.0010273843072354794
1772093629911071000,4.019071044921875,0.0017386190593242645,-0.0005757203325629234,0.0010773115791380405
1772093629921020000,4.02902001953125,-0.001371436519548297,0.00040832627564668655,-0.00031283358111977577
1772093629930970000,4.03897021484375,0.002234483603388071,0.003867239924147725,-0.0011637131683528423
1772093629940920000,4.048920166015625,-0.0007960202638059855,0.0008512614294886589,0.0020246736239641905
1772093629950870000,4.0588701171875,0.0002444768324494362,-0.0012236074544489384,0.001410815166309476
1772093629960819000,4.06881884765625,0.000324237160384655,0.0025601773522794247,0.0019417577423155308
1772093629970769200,4.07876904296875,-0.0005146586336195469,-0.0012012715451419353,-0.00046467455103993416
1772093629980719000,4.088718994140625,-0.0006115543656051159,0.0006804694421589375,0.0007981243543326855
1772093629990669000,4.0986689453125,-0.00030981842428445816,0.002378767356276512,-0.0008474430069327354
1772093630000618200,4.1086181640625,0.002387385815382004,0.0014314393047243357,0.0024231630377471447
1772093630010568200,4.118568115234375,0.00006724009290337563,-0.0001185205765068531,-0.0014669164083898067
1772093630020518100,4.12851806640625,-0.0003667650744318962,0.0014082998968660831,-0.00129779614508152
1772093630030468400,4.13846826171875,0.0015142257325351238,-0.0020689894445240498,0.002091342583298683
1772093630040417300,4.148417236328125,0.0002635079436004162,0.0005245835054665804,-0.00022327573969960213
1772093630050367200,4.1583671875,-0.0005149338394403458,-0.00038967980071902275,-0.00017081154510378838
1772093630060317000,4.16831689453125,-0.002455398440361023,-0.0023189526982605457,-0.0019454308785498142
1772093630070266000,4.17826611328125,-0.000703571131452918,0.0013183928094804287,-0.00032383203506469727
1772093630080216000,4.188216064453125,-0.0007362309843301773,-0.0007425211369991302,-0.0022603864781558514
1772093630090166000,4.198166015625,-0.0014185328036546707,0.0014183679595589638,-0.00007739337161183357
1772093630100116000,4.208115966796875,0.000753398984670639,0.0002527195028960705,-0.0021567996591329575
1772093630110065200,4.218065185546875,-0.0016042974311858416,0.00042156362906098366,-0.003292371053248644
1772093630120015000,4.22801513671875,-0.00039417902007699013,0.0008393814787268639,0.0005644396878778934
1772093630129965000,4.237965087890625,-0.0013699610717594624,0.0014407234266400337,-0.00013623759150505066
1772093630139915300,4.247915283203125,-0.0002683834172785282,-0.0014474368654191494,-0.001051030121743679
1772093630149864200,4.2578642578125,-0.0007067394908517599,-0.00006232643499970436,-0.0023019169457256794
1772093630159814100,4.267814208984375,-0.0014496608637273312,-0.0018030875362455845,0.0012806425802409649
1772093630169764000,4.27776416015625,-0.0005356641486287117,0.00046246335841715336,0.0007967459969222546
1772093630179713000,4.287713134765625,-0.0014253072440624237,0.0009371244814246893,-0.0020803241059184074
1772093630189663200,4.297663330078125,0.0010000336915254593,0.00141622731462121,-0.00006404472514986992
1772093630199613200,4.30761328125,-0.0015964237973093987,0.000863643828779459,-0.0023492248728871346
1772093630209563100,4.317563232421875,-0.002061411738395691,-0.001877281814813614,-0.0004314822144806385
1772093630219512300,4.32751220703125,-0.0009984886273741722,0.0003435206599533558,-0.0005040210671722889
1772093630229462300,4.337462158203125,-0.0016408429946750402,-0.0011387947015464306,0.0020353032741695642
1772093630239412000,4.347411865234375,-0.0011203314643353224,0.0006437122356146574,0.0014080528635531664
1772093630249362200,4.357362060546875,0.0000754278153181076,-0.00033180369064211845,0.00027194805443286896
1772093630259311000,4.36731103515625,0.0005852091126143932,0.001113819656893611,0.002520263195037842
1772093630269261000,4.377260986328125,0.00194981275126338,-0.004354714881628752,-0.0004547541029751301
1772093630279211000,4.3872109375,0.0013327663764357567,-0.0011719316244125366,-0.0005224626511335373
1772093630289160000,4.397159912109375,-0.0012736693024635315,0.000037676189094781876,-0.0017070365138351917
1772093630299110100,4.407110107421875,0.0009564058855175972,0.0010779942385852337,0.0010527363047003746
1772093630309060000,4.41706005859375,-0.0007501477375626564,0.00045481440611183643,0.002365141874179244
1772093630319010000,4.427010009765625,0.0024347039870917797,-0.0005308785475790501,-0.0003508995287120342
1772093630328959000,4.436958984375,-0.0002516265958547592,-0.0016025346703827381,0.0020938825327903032
1772093630338909200,4.4469091796875,-0.0013365172781050205,0.00016780616715550423,-0.0015259301289916039
1772093630348859100,4.456859130859375,0.0012898920103907585,-0.0033403760753571987,-0.0010454957373440266
1772093630358809000,4.46680908203125,-0.00018828967586159706,0.0034824844915419817,-0.0004797903820872307
1772093630368758000,4.476758056640625,-0.0011502234265208244,-0.002389253117144108,0.002413467736914754
1772093630378708200,4.486708251953125,0.0004062233492732048,-0.0018074754625558853,0.0001400010660290718
1772093630388658000,4.496657958984375,0.00027732644230127335,-0.0001994590274989605,-0.0018802732229232788
1772093630398608000,4.50660791015625,0.0005653337575495243,0.0004028761759400368,-0.0006218124181032181
1772093630408557000,4.51655712890625,-0.0017926287837326527,-0.0003231014125049114,0.0011361404322087765
1772093630418507000,4.526507080078125,0.0025164675898849964,0.0009162349160760641,-0.0008393004536628723
1772093630428457000,4.53645703125,0.00021523050963878632,-0.0008563650771975517,-0.0015029599890112877
1772093630438406000,4.546406005859375,0.00014814594760537148,-0.00047596869990229607,-0.00046467874199151993
1772093630448356000,4.556356201171875,0.0006586736999452114,-0.0017279209569096565,0.00018459977582097054
1772093630458306000,4.56630615234375,0.000895726028829813,-0.0006493236869573593,-0.0008249087259173393
1772093630468256000,4.576256103515625,-0.0004654158838093281,-0.0019295047968626022,0.001271531917154789
1772093630478205000,4.586204833984375,-0.0006047366186976433,-0.0004266439937055111,-0.0004672221839427948
1772093630488155100,4.596155029296875,0.0023106257431209087,-0.0010229256004095078,-0.001467239111661911
1772093630498105000,4.60610498046875,0.0021428605541586876,-0.0004195757210254669,-0.0008896272629499435
1772093630508055000,4.616054931640625,-0.002320863539353013,-0.0007492750883102417,-0.0010166601277887821
1772093630518004200,4.626004150390625,0.0003892728127539158,0.0002186056226491928,-0.0026405449025332928
1772093630527954200,4.6359541015625,0.0007980680093169212,-0.00026049697771668434,-0.00010494934394955635
1772093630537904000,4.645904052734375,-0.001014680601656437,0.00016484828665852547,-0.0014307396486401558
1772093630547854000,4.65585400390625,-0.0014090947806835175,0.0016293206717818975,0.001023363322019577
1772093630557803300,4.66580322265625,-0.00039173709228634834,-0.00001613423228263855,0.00020082294940948486
1772093630567753000,4.6757529296875,-0.0008865522686392069,-0.00068671815097332,-0.0010548578575253487
1772093630577703000,4.685702880859375,0.0016486975364387035,-0.001255350187420845,0.00023257220163941383
1772093630587653000,4.695653076171875,-0.0005619926378130913,-0.0006026090122759342,-0.0007136492058634758
1772093630597602000,4.70560205078125,-0.001040810253471136,0.000509871868416667,0.0015024843160063028
1772093630607552000,4.715552001953125,-0.0013047296088188887,-0.0010784370824694633,0.00003854464739561081
1772093630617502000,4.725501953125,-0.0012209306005388498,0.0018024053424596786,0.0008470742031931877
1772093630627451100,4.735451171875,-0.0025589028373360634,-0.00006846524775028229,0.0001179007813334465
1772093630637401000,4.745401123046875,-0.0007765961345285177,0.0011579585261642933,-0.0006179069168865681
1772093630647351000,4.75535107421875,0.0014894874766469002,-0.0004913369193673134,-0.0012690494768321514
1772093630657301200,4.76530126953125,0.0002761851064860821,-0.002322486601769924,-0.0012764264829456806
1772093630667250200,4.775250244140625,-0.0006154410075396299,-0.0005584089085459709,-0.0017763017676770687
1772093630677200100,4.7852001953125,-0.0016070099081844091,-0.0015297518111765385,0.0003685439005494118
1772093630687150000,4.795150146484375,-0.00008820928633213043,0.001063368283212185,-0.0014309538528323174
1772093630697100300,4.805100341796875,0.0007296022959053516,-0.0026378738693892956,0.0004795673303306103
1772093630707049200,4.81504931640625,0.00012905942276120186,-0.0012865858152508736,0.00019354373216629028
1772093630716999200,4.824999267578125,-0.0015571413096040487,0.001932709477841854,-0.0013780873268842697
1772093630726948900,4.834948974609375,-0.00015205750241875648,0.0005670404061675072,0.0000546933151781559
1772093630736899000,4.844899169921875,0.0012629483826458454,-0.0014604181051254272,-0.000009368639439344406
1772093630746848000,4.854847900390625,0.0004922295920550823,-0.0017400500364601612,-0.0009846179746091366
1772093630756798000,4.8647978515625,-0.000982738332822919,0.001275988295674324,0.0001357519067823887
1772093630766748200,4.874748046875,0.0008535110391676426,-0.0015427013859152794,0.0007964824326336384
1772093630776698000,4.884697998046875,0.0003147316165268421,-0.00182007672265172,-0.001224401406943798
1772093630786647000,4.89464697265625,0.002221022266894579,0.0017317812889814377,-0.0008883103728294373
1772093630796597000,4.904596923828125,0.0007295873947441578,-0.001132223755121231,0.001363108865916729
1772093630806547200,4.914547119140625,-0.0027341197710484266,-0.0015255725011229515,-0.0006936504505574703
1772093630816496000,4.92449609375,-0.0018358626402914524,0.0007187447044998407,0.001106224488466978
1772093630826446000,4.934446044921875,0.00036497367545962334,-0.00044159451499581337,-0.0007912777364253998
1772093630836396000,4.94439599609375,-0.0010928569827228785,-0.00046206824481487274,0.0008194688707590103
1772093630846346200,4.95434619140625,-0.000921615632250905,0.00250362791121006,0.0013249367475509644
1772093630856295200,4.964295166015625,-0.0025271442718803883,-0.000037904828786849976,-0.00012737279757857323
1772093630866245000,4.9742451171875,-0.0008509508334100246,-0.0018014498054981232,-0.0026536472141742706
1772093630876195000,4.984195068359375,-0.0008082946296781301,0.0006247488781809807,-0.0007260991260409355
1772093630886145000,4.99414501953125,0.0005350038409233093,0.0010854757856577635,0.00036686239764094353
1772093630896094200,5.00409423828125,-0.0007908395491540432,-0.0005187280476093292,-0.0003514648415148258
1772093630906044000,5.0140439453125,0.0007247654721140862,0.0007521326187998056,0.00031086336821317673
1772093630915994000,5.023994140625,-0.002277467865496874,-0.0024205120280385017,0.0011979835107922554
1772093630925944000,5.033944091796875,0.0012578782625496387,-0.0022468739189207554,0.0004312596283853054
1772093630935893000,5.04389306640625,0.00083173718303442,-0.00208556791767478,0.001608045306056738
1772093630945843000,5.053843017578125,0.00006368150934576988,-0.0017047356814146042,-0.0020996076054871082
1772093630955793200,5.063793212890625,-0.0007210881449282169,-0.0003445637412369251,-0.0004919366911053658
1772093630965743000,5.0737431640625,-0.001190869603306055,-0.00009262887760996819,0.0014428496360778809
1772093630975692000,5.083692138671875,-0.0013462721835821867,0.001732636708766222,0.0006735529750585556
1772093630985642200,5.093642333984375,-0.0021558732260018587,-0.0024463958106935024,0.0015531950630247593
1772093630995592200,5.10359228515625,0.00014309724792838097,-0.0017886608839035034,-0.0011125351302325726
1772093631005542100,5.113542236328125,-0.0012145822402089834,-0.0011891834437847137,-0.0006352965719997883
1772093631015491000,5.123490966796875,-0.0010008281096816063,0.0013766165357083082,0.0010264050215482712
1772093631025441300,5.133441162109375,0.0004226313903927803,-0.0017464724369347095,0.00022958731278777122
1772093631035391000,5.143390869140625,-0.0021153863053768873,-0.0005961470305919647,-0.0012572011910378933
1772093631045340200,5.153340087890625,0.0008122269064188004,0.0021391857881098986,0.00012311525642871857
1772093631055289900,5.163289794921875,0.0005857646465301514,0.0005140637513250113,-0.0010142852552235126
1772093631065240000,5.173239990234375,-0.0005024026613682508,-0.0037384722381830215,0.002631848445162177
1772093631075190000,5.18318994140625,-0.0003246571868658066,-0.002722491044551134,-0.0006549977697432041
1772093631085139000,5.193138916015625,0.0012335581704974174,-0.0009485594928264618,0.0012949686497449875
1772093631095089200,5.203089111328125,0.0002855234779417515,-0.0009848233312368393,-0.0012242281809449196
1772093631105039000,5.2130390625,-0.000515821622684598,-0.00031929928809404373,-0.0007621697150170803
1772093631114989000,5.222989013671875,0.0013977433554828167,-0.0013945749960839748,-0.0000871480442583561
1772093631124938000,5.23293798828125,0.00020624510943889618,-0.0026217596605420113,-0.00008182181045413017
1772093631134888200,5.24288818359375,0.0009194300509989262,0.0007390149403363466,0.0012935679405927658
1772093631144838100,5.252838134765625,-0.0005511671770364046,-0.00048231054097414017,-0.0016787862405180931
1772093631154788000,5.2627880859375,-0.0006128596141934395,-0.001203666441142559,-0.0010637338273227215
1772093631164737000,5.272737060546875,0.0004204469732940197,-0.0006601153872907162,0.00043029990047216415
1772093631174687200,5.282687255859375,0.0005541839636862278,-0.002420975361019373,-0.0014076223596930504
1772093631184637200,5.29263720703125,0.00035711005330085754,-0.00009017670527100563,-0.0026766187511384487
1772093631194587000,5.3025869140625,-0.0005044594872742891,-0.002435836475342512,0.0020717389415949583
1772093631204536000,5.3125361328125,0.0014636162668466568,0.000043833162635564804,-0.0010100710205733776
1772093631214486000,5.322486083984375,-0.0007395641878247261,-0.0014800867065787315,0.0003572269342839718
1772093631224436000,5.33243603515625,-0.002096977550536394,0.0006195493042469025,0.0004296652041375637
1772093631234386000,5.342385986328125,-0.002444520592689514,-0.0025750077329576015,-0.000983999576419592
1772093631244335000,5.352335205078125,-0.00035820016637444496,-0.0031806109473109245,0.00007354188710451126
1772093631254285000,5.36228515625,0.0025564581155776978,-0.0010280963033437729,0.00029885442927479744
1772093631264235000,5.372235107421875,-0.0003407946787774563,0.0009407785255461931,-0.00026280665770173073
1772093631274185200,5.382185302734375,-0.00024602655321359634,-0.0006311335600912571,0.0013889218680560589
1772093631284134000,5.3921337890625,-0.0006215323228389025,-0.00035389838740229607,0.0004994263872504234
1772093631294084000,5.402083984375,0.00011022388935089111,-0.0006826356984674931,-0.000567309558391571
1772093631304034000,5.412033935546875,0.00014750799164175987,-0.002331132534891367,0.0004209894686937332
1772093631313984000,5.42198388671875,-0.000026426278054714203,0.00012308964505791664,0.0020461678504943848
1772093631323933000,5.431932861328125,-0.0004021981731057167,-0.0013509700074791908,-0.00028995703905820847
1772093631333883100,5.441883056640625,0.00025523919612169266,-0.0036956300027668476,-0.00020058080554008484
1772093631343833000,5.4518330078125,0.00041502900421619415,-0.0005541653372347355,0.00005668029189109802
1772093631353782800,5.46178271484375,0.000037849415093660355,-0.0010964102111756802,-0.0014937510713934898
1772093631363732000,5.47173193359375,0.0000546271912753582,0.00003410177305340767,0.0004333122633397579
1772093631373682000,5.481681884765625,0.0009675459004938602,0.0001467633992433548,-0.0004162583500146866
1772093631383632000,5.4916318359375,0.00007485412061214447,0.0015318731311708689,0.00020825304090976715
1772093631393581800,5.501581787109375,0.0000665890984237194,-0.0016172216273844242,0.00013391021639108658
1772093631403530800,5.51153076171875,-0.0006572580896317959,0.0013303651940077543,-0.0005084439180791378
1772093631413481000,5.52148095703125,0.0016949367709457874,-0.0008275541476905346,-0.0002541341818869114
1772093631423431000,5.531430908203125,-0.002099268836900592,0.0020404041279107332,0.0008830358274281025
1772093631433379800,5.5413798828125,0.001071176491677761,-0.001223048660904169,0.00040063075721263885
1772093631443330000,5.551330078125,-0.0010763965547084808,-0.0018595443107187748,-0.0006707590073347092
1772093631453280000,5.561280029296875,0.001516707707196474,-0.0013865651562809944,-0.0031692683696746826
1772093631463230000,5.57122998046875,-0.00044870516285300255,-0.0008547320030629635,-0.0019884230569005013
1772093631473179000,5.581178955078125,-0.001051150495186448,-0.0022600023075938225,-0.0020379936322569847
1772093631483129000,5.591129150390625,-0.0005153224337846041,0.00038851145654916763,0.0011753765866160393
1772093631493079000,5.6010791015625,-0.0014994554221630096,-0.0009397151879966259,-0.0007972288876771927
1772093631503029000,5.611029052734375,-0.00028984760865569115,0.0002331412397325039,-0.0003237188793718815
1772093631512978000,5.62097802734375,-0.0003119083121418953,0.0018260846845805645,-0.0013227742165327072
1772093631522927900,5.630927978515625,-0.0010810294188559055,-0.0015955446287989616,-0.0013802982866764069
1772093631532877800,5.6408779296875,-0.00013836799189448357,0.0008070904295891523,-0.0003953198902308941
1772093631542827800,5.650827880859375,-0.00007791398093104362,0.0006294576451182365,-0.0008821459487080574
1772093631552777000,5.66077685546875,0.00042021414265036583,-0.000822216272354126,0.00016673654317855835
1772093631562727000,5.670726806640625,-0.0014290849212557077,0.0022364244796335697,0.0008972417563199997
1772093631572676900,5.6806767578125,0.0025210874155163765,0.0011932938359677792,0.0004354645498096943
1772093631582627000,5.690626953125,0.0024486491456627846,-0.0010799802839756012,-0.0011043748818337917
1772093631592576000,5.700575927734375,0.001412639394402504,0.0019478399772197008,-0.0014343014918267727
1772093631602526000,5.71052587890625,0.0017545893788337708,0.0014772594440728426,-0.0010348274372518063
1772093631612476000,5.720475830078125,-0.0011650875676423311,-0.001585199497640133,-0.0009567909874022007
1772093631622426000,5.730426025390625,-0.0011717455927282572,-0.0014152894727885723,0.0003300486132502556
1772093631632375000,5.740375,-0.00008073076605796814,-0.004555243067443371,-0.002493657637387514
1772093631642325000,5.750324951171875,0.0005275355651974678,0.002102659083902836,-0.0010648714378476143
1772093631652275000,5.76027490234375,0.00003804778680205345,-0.00036976439878344536,-0.0008051590994000435
1772093631662225000,5.770224853515625,0.003368863370269537,0.0005458304658532143,0.0015573310665786266
1772093631672174000,5.780174072265625,0.001548544503748417,0.0002756060566753149,0.00000128941610455513
1772093631682123800,5.790123779296875,-0.0025956002064049244,-0.0003819284029304981,-0.001040006522089243
1772093631692074000,5.800073974609375,0.0009913048706948757,-0.0008645742200314999,-0.0034743817523121834
1772093631702024000,5.81002392578125,0.0002946220338344574,-0.00048347609117627144,0.0002031777985394001
1772093631711972900,5.819972900390625,0.0002917647361755371,-0.0016067060641944408,-0.0013113836757838726
1772093631721922800,5.8299228515625,0.0010094866156578064,-0.00040748436003923416,0.0003994312137365341
1772093631731873000,5.839873046875,0.0019356557168066502,-0.002542361617088318,-0.000698611605912447
1772093631741823000,5.849822998046875,0.0009718574583530426,-0.0015737698413431644,0.0018833230715245008
1772093631751772000,5.85977197265625,-0.0010290318168699741,0.0008700944017618895,0.0009063398465514183
1772093631761721900,5.869721923828125,0.0010157432407140732,-0.001029272098094225,-0.0001914151944220066
1772093631771672000,5.879672119140625,0.0015243804082274437,0.0004144357517361641,0.003301325486972928
1772093631781622000,5.8896220703125,0.002471134066581726,-0.002158177550882101,0.0005564051680266857
1772093631791571000,5.899571044921875,-0.00009891018271446228,-0.00035660527646541595,0.0006018080748617649
1772093631801521200,5.909521240234375,0.0016699614934623241,-0.0023944564163684845,0.0010942267253994942
1772093631811471000,5.91947119140625,-0.00012756651267409325,0.0003896553535014391,0.002167722210288048
1772093631821420800,5.9294208984375,0.002500174567103386,0.000012019183486700058,0.00229262444190681
1772093631831370000,5.939369873046875,-0.0005100134294480085,0.0006792542990297079,0.003489979775622487
1772093631841320000,5.94931982421875,0.00037841731682419777,0.0014603594318032265,-0.001111429650336504
1772093631851270000,5.959269775390625,-0.0001494106836616993,-0.0028715948574244976,-0.00004644226282835007
1772093631861219800,5.9692197265625,-0.0015353199560195208,0.00019210577011108398,0.003160269698128104
1772093631871168800,5.979168701171875,0.0025727543979883194,0.00247056782245636,0.00014635175466537476
1772093631881119000,5.989118896484375,0.000056599732488393784,-0.00032441969960927963,-0.0015234504826366901
1772093631891069000,5.99906884765625,-0.00206946162506938,-0.00015911413356661797,0.0003290148451924324
1772093631901019000,6.009018798828125,0.003282160498201847,0.0018084293697029352,-0.00016873003914952278
1772093631910968000,6.018968017578125,-0.0007124324329197407,0.00009820843115448952,-0.0033823526464402676
1772093631920918000,6.02891796875,-0.0007025788072496653,-0.0013588066212832928,-0.0007894993759691715
1772093631930868000,6.038867919921875,0.0011479607783257961,0.0018053280655294657,0.001367000862956047
1772093631940818200,6.048818115234375,0.000370850320905447,-0.0004551629535853863,-0.00034354766830801964
1772093631950767000,6.05876708984375,-0.0009661547373980284,-0.0027048010379076004,-0.0031544938683509827
1772093631960717000,6.068717041015625,0.0010152370668947697,-0.002558327279984951,0.0005925735458731651
1772093631970667000,6.0786669921875,0.0002457699738442898,-0.0002905488945543766,-0.0011552912183105946
1772093631980617000,6.088616943359375,0.00006653927266597748,-0.0016157380305230618,-0.0009555541910231113
1772093631990566000,6.09856591796875,-0.001134928548708558,0.0009605588857084513,-0.002210325561463833
1772093632000515800,6.108515869140625,-0.001791930291801691,-0.0005289469845592976,-0.00022467225790023804
1772093632010465800,6.1184658203125,-0.001296443399041891,0.00011707795783877373,-0.00040218792855739594
1772093632020416000,6.128416015625,0.0012884209863841534,0.0000017629936337471008,-0.002159873954951763
1772093632030365000,6.138364990234375,-0.002312558004632592,-0.0011287759989500046,-0.00236327713355422
1772093632040315000,6.14831494140625,-0.00047444412484765053,0.0012789878528565168,-0.0012045358307659626
1772093632050265000,6.15826513671875,-0.0008665821515023708,0.0008916545193642378,0.0012332410551607609
1772093632060215000,6.168215087890625,0.0011989655904471874,-0.001153919380158186,-0.0002738414332270622
1772093632070164000,6.1781640625,-0.00010048225522041321,0.0014685660135000944,0.00042918557301163673
1772093632080114000,6.188114013671875,-0.0008347160182893276,0.0005255406722426414,-0.0019522132351994514
1772093632090064100,6.198064208984375,-0.0002036350779235363,-0.0004276195541024208,-0.0003284970298409462
1772093632100014000,6.20801416015625,0.00018784916028380394,-0.002185305580496788,0.002099506789818406
1772093632109963000,6.217962890625,0.00045195501297712326,0.001655086176469922,0.0005407915450632572
1772093632119913000,6.227912841796875,-0.002807487966492772,0.0008950200863182545,-0.0006989100947976112
1772093632129863000,6.23786279296875,0.0021832273341715336,0.0004989909939467907,-0.0008818153291940689
1772093632139812900,6.247812744140625,-0.0018860825803130865,0.002568800002336502,0.00011553848162293434
1772093632149761800,6.25776171875,-0.001409824937582016,-0.0004970738664269447,-0.0011610346846282482
1772093632159711700,6.267711669921875,-0.00006652669981122017,-0.0009074672125279903,0.0016699053812772036
1772093632169662000,6.277661865234375,-0.0004813424311578274,-0.00009349500760436058,-0.00006263190880417824
1772093632179612000,6.28761181640625,-0.0006853407248854637,0.0007038554176688194,-0.0018940879963338375
1772093632189560800,6.297560791015625,-0.0014761639758944511,-0.00007708463817834854,-0.002157371025532484
1772093632199511000,6.307510986328125,0.00046048685908317566,0.001962097594514489,0.0014109984040260315
1772093632209461000,6.3174609375,-0.0013032604474574327,0.0006589638069272041,0.00032204529270529747
1772093632219410000,6.327409912109375,-0.0015498693101108074,0.0009705536067485809,0.00019368110224604607
1772093632229359900,6.33735986328125,0.0013829139061272144,-0.0022544260136783123,-0.0004454599693417549
1772093632239310000,6.34731005859375,0.0010825092904269695,0.0015118164010345936,-0.0004598409868776798
1772093632249260000,6.357260009765625,0.0003673890605568886,-0.0005119522102177143,-0.00006507616490125656
1772093632259209000,6.367208984375,-0.00008641323074698448,-0.0010863961651921272,0.0012856791727244854
1772093632269159000,6.377158935546875,0.0007100068032741547,0.000488323625177145,-0.0007919510826468468
1772093632279108900,6.38710888671875,-0.001113726058974862,0.001023352611809969,-0.0010303040035068989
1772093632289058600,6.39705859375,0.002566876821219921,-0.0017614178359508514,-0.0033971797674894333
1772093632299007700,6.4070078125,0.00022143078967928886,-0.0004647248424589634,-0.0012240400537848473
1772093632308957700,6.416957763671875,-0.0006591023411601782,-0.0019095330499112606,-0.002083661500364542
1772093632318907600,6.42690771484375,-0.0024780412204563618,-0.00025038374587893486,0.0009587337262928486
1772093632328857600,6.436857666015625,0.0010868427343666553,-0.00009919889271259308,0.0003467155620455742
1772093632338806500,6.446806640625,-0.0015691276639699936,-0.0031349360942840576,-0.0005433126352727413
1772093632348756700,6.4567568359375,-0.0004661506973206997,-0.0009309146553277969,0.0028879723977297544
1772093632358706700,6.466706787109375,0.001482218038290739,-0.00042304955422878265,0.00130445696413517
1772093632368656600,6.47665673828125,-0.00014487514272332191,0.0024457559920847416,-0.0014557065442204475
1772093632378605800,6.486605712890625,0.0010985545814037323,0.0031802556477487087,-0.0002120104618370533
1772093632388555800,6.4965556640625,-0.0002657775767147541,-0.001915784552693367,-0.0005021495744585991
1772093632398505700,6.506505615234375,-0.0007928169798105955,-0.0031043533235788345,-0.0022574388422071934
1772093632408456000,6.5164560546875,0.0017628083005547523,0.0005683780182152987,0.0004923311062157154
1772093632418404900,6.52640478515625,0.00013561686500906944,-0.0010787872597575188,0.001895017921924591
1772093632428354800,6.536354736328125,0.0004741414450109005,0.0008460863027721643,0.0012038317508995533
1772093632438304800,6.5463046875,0.0014720279723405838,0.00046259118244051933,-0.0004846123047173023
1772093632448254700,6.556254638671875,0.0007263533771038055,-0.0004663602448999882,-0.0010966425761580467
1772093632458204000,6.566203857421875,-0.0017423969693481922,0.002327295485883951,0.001368911936879158
1772093632468153600,6.576153564453125,-0.0005500400438904762,-0.004601632710546255,-0.002088160254061222
1772093632478103600,6.586103515625,0.0023528053425252438,-0.0008031665347516537,-0.0010710987262427807
1772093632488053800,6.5960537109375,-0.00021743075922131538,0.0007215640507638454,0.00027966033667325974
1772093632498002700,6.606002685546875,0.0025408053770661354,0.0011287613306194544,-0.0017339554615318775
1772093632507952600,6.61595263671875,0.000015663914382457733,0.0022243140265345573,0.0004869452677667141
1772093632517902800,6.62590283203125,-0.001645349431782961,-0.0002729319967329502,-0.0013264012522995472
1772093632527852800,6.635852783203125,-0.00010398868471384048,-0.0012811035849153996,-0.00030959397554397583
1772093632537801700,6.6458017578125,0.0008060135878622532,0.0017325296066701412,-0.0009250505827367306
1772093632547751700,6.655751708984375,0.0018010511994361877,0.0009800000116229057,-0.001270280685275793
1772093632557702000,6.665701904296875,-0.00018247123807668686,-0.00039339205250144005,0.00028979917988181114
1772093632567651800,6.67565185546875,-0.001183047890663147,-0.00017142575234174728,0.001067394856363535
1772093632577600800,6.685600830078125,-0.0005066050216555595,0.0015463132876902819,0.0005819005891680717
1772093632587550700,6.69555078125,-0.0003944011405110359,-0.0008464939892292023,-0.000251763965934515
1772093632597501000,6.7055009765625,0.00021626194939017296,-0.0008028177544474602,-0.0006344602443277836
1772093632607450600,6.71545068359375,0.0003150724805891514,-0.0013767415657639503,0.0013725473545491695
1772093632617399800,6.72539990234375,0.002325226552784443,-0.0024811546318233013,-0.0010772943496704102
1772093632627349800,6.735349853515625,-0.001922694267705083,0.0013815774582326412,0.0012087193317711353
1772093632637299700,6.7452998046875,0.0000022384338080883026,0.001184237189590931,0.000822827685624361
1772093632647249700,6.755249755859375,0.0010939352214336395,0.0021125993225723505,0.0020498570520430803
1772093632657198600,6.765198486328125,0.002362931612879038,-0.0005143429152667522,-0.0007645715959370136
1772093632667148800,6.775148681640625,-0.0004562237299978733,0.00008918438106775284,0.0016540652140974998
1772093632677098800,6.7850986328125,-0.00033425120636820793,-0.00038832053542137146,-0.0022139097563922405
1772093632687048700,6.795048583984375,0.0006116833537817001,-0.002226994838565588,0.0014364318922162056
1772093632696997600,6.80499755859375,-0.0006336106453090906,0.00039542000740766525,0.002520604757592082
1772093632706947800,6.81494775390625,0.0008758916519582272,-0.0004434511065483093,-0.0015512197278439999
1772093632716897800,6.824897705078125,-0.0003590160049498081,-0.0023188493214547634,-0.0016883723437786102
1772093632726847700,6.83484765625,0.0005540247075259686,-0.0014380807988345623,-0.00023000966757535934
1772093632736797000,6.844796875,-0.0008595811668783426,-0.002315858844667673,-0.0010348167270421982
1772093632746747000,6.854746826171875,-0.0027101775631308556,0.004610156640410423,0.0001250915229320526
1772093632756696600,6.864696533203125,0.00027735671028494835,0.0008513710927218199,-0.0014797290787100792
1772093632766646800,6.874646728515625,-0.0015835384838283062,0.0001130206510424614,-0.00116425147280097
1772093632776595700,6.884595703125,-0.00021067867055535316,-0.0014742230996489525,-0.0019083386287093163
1772093632786545700,6.894545654296875,-0.00037513673305511475,-0.0010676397942006588,0.0006320723332464695
1772093632796495600,6.90449560546875,-0.0004997728392481804,0.0010466440580785275,-0.0006640879437327385
1772093632806445800,6.91444580078125,0.00025906413793563843,-0.0003376682288944721,0.0010681906715035439
1772093632816394800,6.924394775390625,-0.0020485646091401577,-0.0008351462893188,0.0015523533802479506
1772093632826344700,6.9343447265625,0.0000837906263768673,0.0009715398773550987,-0.0013004466891288757
1772093632836294700,6.944294677734375,-0.0019055907614529133,-0.0023406334221363068,-0.001007765531539917
1772093632846244900,6.954244873046875,0.0032775714062154293,0.0010434903670102358,0.0019462418276816607
1772093632856193800,6.96419384765625,-0.002500955481082201,0.00011404696851968765,0.00006178906187415123
1772093632866143700,6.974143798828125,0.0010605868883430958,-0.002247283235192299,-0.0007899943739175797
1772093632876094000,6.984093994140625,0.0014478103257715702,-0.00032874196767807007,0.0005466458387672901
1772093632886044000,6.9940439453125,-0.0037431681994348764,0.0019139223732054234,-0.0017865323461592197
1772093632895992800,7.003992919921875,0.0005628969520330429,-0.002779366448521614,-0.0002474915236234665
1772093632905942800,7.01394287109375,0.0003544772043824196,-0.0019498933106660843,-0.0005016634240746498
1772093632915892700,7.023892822265625,0.0008040191605687141,-0.0011024754494428635,-0.002552297431975603
1772093632925842700,7.0338427734375,-0.00024716323241591454,-0.0017910604365170002,-0.0016350643709301949
1772093632935791600,7.04379150390625,0.000634076539427042,0.0014409520663321018,-0.0028342860750854015
1772093632945741600,7.053741455078125,0.001194770447909832,0.0005624783225357533,-0.0035162554122507572
1772093632955691800,7.06369189453125,-0.0005413445178419352,-0.0011653807014226913,-0.0031676474027335644
1772093632965641700,7.073641845703125,-0.0004977649077773094,0.0015401968266814947,-0.0004763752222061157
1772093632975590700,7.083590576171875,0.0013296962715685368,0.002734358422458172,0.0005777040496468544
1772093632985540600,7.09354052734375,-0.000715998001396656,0.0030143028125166893,-0.0011351215653121471
1772093632995490800,7.10349072265625,-0.0015495673287659883,-0.0023378520272672176,0.00010830815881490707
1772093633005440800,7.113440673828125,-0.0009119913447648287,0.0006760891992598772,0.001540111843496561
1772093633015389700,7.1233896484375,0.0007476909086108208,-0.0005692047998309135,-0.0001211678609251976
1772093633025340000,7.13333984375,-0.0006855463143438101,0.00038808491080999374,-0.002496013417840004
1772093633035289900,7.143289794921875,-0.0007207000162452459,-0.00035706767812371254,0.00007606716826558113
1772093633045239800,7.15323974609375,0.000010648276656866074,0.001641618786379695,-0.0013437685556709766
1772093633055188700,7.163188720703125,0.00044527603313326836,0.0012820919509977102,0.001431511715054512
1772093633065139000,7.173138916015625,-0.003006062703207135,0.0007559272926300764,-0.00019987532868981361
1772093633075088600,7.183088623046875,-0.0012273374013602734,0.00046830601058900356,-0.0006914949044585228
1772093633085038600,7.19303857421875,-0.001168812159448862,0.002133632078766823,-0.0007735230028629303
1772093633094987500,7.202987548828125,0.00012974534183740616,-0.0013207541778683662,0.00004566553980112076
1772093633104937700,7.212937744140625,0.0013584280386567116,0.0021415133960545063,-0.000761931762099266
1772093633114887700,7.2228876953125,-0.0013457457534968853,-0.0003275033086538315,-0.0014575496315956116
1772093633124837600,7.232837646484375,-0.000517568551003933,-0.00046839937567710876,-0.0017133117653429508
1772093633134786800,7.242786865234375,0.00024010101333260536,0.000341733917593956,-0.0002592257224023342
1772093633144736800,7.25273681640625,0.001220586709678173,0.000021739862859249115,-0.00043374719098210335
1772093633154686700,7.262686767578125,0.0009497436694800854,-0.0014195628464221954,-0.0025448347441852093
1772093633164635600,7.2726357421875,0.000276053324341774,0.000992451561614871,0.00016762595623731613
1772093633174585900,7.2825859375,0.0002233227714896202,0.0016273492947220802,0.0007559182122349739
1772093633184535800,7.292535888671875,-0.0006202198565006256,-0.0012491485103964806,-0.0017344593070447445
1772093633194485800,7.30248583984375,-0.0004971818998456001,-0.0006613889709115028,0.00015505356714129448
1772093633204435700,7.312435791015625,0.00046932557597756386,-0.000170770101249218,-0.0020316829904913902
1772093633214385000,7.322385009765625,0.0010693357326090336,-0.0008038035593926907,-0.0005917120724916458
1772093633224334600,7.33233447265625,-0.0013633773196488619,-0.0017509395256638527,0.0004393206909298897
1772093633234284500,7.342284423828125,-0.0010925338137894869,0.0003050207160413265,0.0005564996972680092
1772093633244233700,7.352233642578125,0.00028663547709584236,0.00047291815280914307,0.0012325667776167393
1772093633254183700,7.36218359375,0.00042405445128679276,-0.00023281946778297424,-0.003295340109616518
1772093633264133600,7.372133544921875,-0.0015194888692349195,-0.0014859195798635483,-0.0015202169306576252
1772093633274083800,7.382083740234375,-0.0013879288453608751,-0.0002286415547132492,0.0009589199908077717
1772093633284033000,7.392032958984375,0.0019879848696291447,0.00041629187762737274,0.0001116013154387474
1772093633293983000,7.40198291015625,-0.002541519468650222,0.0009960620664060116,-0.00008387491106987
1772093633303933200,7.41193310546875,-0.0014558376278728247,-0.0009285765700042248,-0.0021179867908358574
1772093633313883100,7.421883056640625,0.001380428671836853,0.0007271107751876116,-0.0009706970304250717
1772093633323832000,7.43183203125,-0.0011504169087857008,-0.0003708610311150551,-0.0019514979794621468
1772093633333782300,7.4417822265625,-0.00024041486904025078,-0.0003740568645298481,0.0038661775179207325
1772093633343732200,7.451732177734375,-0.001099718501791358,-0.001207732129842043,-0.0013401508331298828
1772093633353682000,7.461681884765625,0.000622281339019537,-0.0026426431722939014,-0.0008139098063111305
1772093633363631000,7.471631103515625,-0.0012331584002822638,0.0015514804981648922,0.00026371143758296967
1772093633373581000,7.4815810546875,-0.00042595434933900833,-0.0005516177043318748,0.0011960840784013271
1772093633383531000,7.491531005859375,-0.001039336435496807,0.001989691751077771,-0.0009015141986310482
1772093633393481000,7.50148095703125,0.0004251357167959213,-0.00013284757733345032,-0.001999801956117153
1772093633403430000,7.511429931640625,0.001604772638529539,-0.0009292047470808029,-0.002298806793987751
1772093633413380000,7.521380126953125,-0.0004695635288953781,-0.0007821982726454735,-0.00024577556177973747
1772093633423330000,7.531330078125,-0.0010260194540023804,0.00038801971822977066,0.0012619462795555592
1772093633433280000,7.541280029296875,0.00022247014567255974,-0.0033095129765570164,0.0001748437061905861
1772093633443229200,7.551229248046875,0.00019541243091225624,0.000716665294021368,0.002425890415906906
1772093633453179100,7.56117919921875,0.0014114119112491608,0.0005632671527564526,-0.003859702032059431
1772093633463129000,7.571129150390625,0.0013215434737503529,0.0008986550383269787,0.0025489137042313814
1772093633473079000,7.5810791015625,0.003610529936850071,-0.0010864650830626488,0.00016618333756923676
1772093633483028200,7.5910283203125,-0.0013759792782366276,-0.0025919717736542225,-0.0001615467481315136
1772093633492978200,7.600978271484375,-0.0006449415814131498,-0.0005543874576687813,-0.001086728647351265
1772093633502928100,7.61092822265625,-0.0005518475081771612,-0.0007287929765880108,-0.0017738635651767254
1772093633512878000,7.620878173828125,0.001644994132220745,-0.002037470228970051,-0.0013429643586277962
1772093633522827300,7.6308271484375,0.001425091177225113,-0.0022569019347429276,-0.00028094230219721794
1772093633532777000,7.64077685546875,0.0009830063208937645,-0.0008390350267291069,0.000491640530526638
1772093633542727000,7.650726806640625,0.0014661788009107113,-0.0012612654827535152,-0.0018849163316190243
1772093633552677000,7.660677001953125,0.0007380708120763302,-0.001362732145935297,0.0013108770363032818
1772093633562626000,7.6706259765625,0.0010272236540913582,-0.0017080414108932018,-0.0005863825790584087
1772093633572576000,7.680575927734375,-0.003426646813750267,0.002016389509662986,0.0011417423374950886
1772093633582526000,7.69052587890625,-0.001219653757289052,0.0012629958800971508,-0.0014673275873064995
1772093633592476200,7.70047607421875,0.0012363134883344173,-0.002452380023896694,-0.0011581345461308956
1772093633602425000,7.710425048828125,-0.00009665917605161667,-0.000910075381398201,-0.0003995751030743122
1772093633612375000,7.720375,-0.0012846952304244041,-0.0009990246035158634,-0.000004894565790891647
1772093633622325200,7.7303251953125,0.00041603343561291695,0.0009311274625360966,0.00045723840594291687
1772093633632275200,7.740275146484375,0.0017201835289597511,-0.0007408051751554012,0.0009552496485412121
1772093633642224000,7.75022412109375,-0.0005337223410606384,-0.0020904098637402058,0.0005012867040932178
1772093633652174000,7.760174072265625,0.0010671038180589676,0.0011141719296574593,0.000764939934015274
1772093633662124000,7.7701240234375,-0.0009887705091387033,0.0007852839771658182,0.0006762049160897732
1772093633672074000,7.780073974609375,0.001761742401868105,-0.002007307019084692,0.00041814474388957024
1772093633682023200,7.790023193359375,0.0005460740067064762,-0.0025474634021520615,0.0007398654706776142
1772093633691972900,7.799972900390625,-0.0001567341387271881,-0.0012638201005756855,0.0021731785964220762
1772093633701923000,7.809923095703125,0.0019082915969192982,-0.0003277687355875969,0.0013223704881966114
1772093633711873000,7.819873046875,-0.0001135803759098053,0.0016485629603266716,-0.0031349617056548595
1772093633721822000,7.829822021484375,0.002573056612163782,-0.0009717410430312157,-0.0017245300114154816
1772093633731772200,7.839772216796875,-0.0016318082343786955,-0.0011190138757228851,0.0007210508920252323
1772093633741722000,7.84972216796875,-0.00004552118480205536,-0.00004560546949505806,-0.0003191824071109295
1772093633751672000,7.859672119140625,0.001472480595111847,0.0025608304422348738,0.0004605911672115326
1772093633761621000,7.86962109375,-0.00020328722894191742,-0.0014195842668414116,0.0009452761150896549
1772093633771571200,7.8795712890625,0.0024257851764559746,-0.00015218602493405342,0.0005697705782949924
1772093633781521200,7.889521240234375,-0.0005653556436300278,0.0024571572430431843,-0.000038650352507829666
1772093633791470000,7.899469970703125,-0.0007882621139287949,-0.001171665731817484,0.00007746322080492973
1772093633801420000,7.909419921875,0.00234735244885087,-0.0040673138573765755,-0.001157865859568119
1772093633811370200,7.919370361328125,-0.000004484783858060837,-0.0024654222652316093,-0.000357053242623806
1772093633821320000,7.92931982421875,-0.0012818556278944016,0.0014520555268973112,0.0008755279704928398
1772093633831269000,7.93926904296875,0.0007155151106417179,-0.00020389817655086517,0.0009338511154055595
1772093633841219000,7.949218994140625,-0.0006706931162625551,-0.0015011527575552464,0.001748962327837944
1772093633851169000,7.9591689453125,-0.0003175581805408001,-0.002344042994081974,-0.0006508119404315948
1772093633861119000,7.969118896484375,-0.0026594027876853943,0.0012876838445663452,0.0023371202405542135
1772093633871068000,7.97906787109375,-0.0007533784955739975,0.0004431954585015774,0.0005304319784045219
1772093633881018000,7.98901806640625,-0.0002625328488647938,-0.00220397487282753,-0.0010778317227959633
1772093633890968000,7.998968017578125,0.00024506542831659317,0.000045064836740493774,0.00028171204030513763
1772093633900918000,8.00891796875,-0.0019827575888484716,-0.0015403185971081257,-0.002198533620685339
1772093633910867000,8.018866943359376,0.0017368793487548828,0.0003689015284180641,0.0004598340019583702
1772093633920817200,8.028817138671876,-0.0012977065052837133,0.001264168182387948,-0.0008568968623876572
1772093633930767000,8.03876708984375,0.001160391140729189,0.00018212571740150452,-0.0008233413100242615
1772093633940717000,8.048717041015625,0.0003543649800121784,-0.0005709296092391014,0.000023249536752700806
1772093633950666200,8.058666259765625,-0.000060821883380413055,-0.0014039664529263973,0.0006112754344940186
1772093633960616200,8.0686162109375,0.0013490309938788414,-0.0001607942394912243,0.000981664750725031
1772093633970566100,8.078566162109375,-0.0007439469918608665,0.0008000743109732866,-0.0001283404417335987
1772093633980516000,8.08851611328125,0.0003941841423511505,-0.0012311344034969807,-0.0005782628431916237
1772093633990465300,8.09846533203125,-0.00037626828998327255,0.0009867462795227766,0.0013978024944663048
1772093634000415000,8.1084150390625,0.002525854390114546,-0.00031704269349575043,0.0018942903261631727
1772093634010365000,8.118364990234374,-0.0002845795825123787,-0.00171360420063138,-0.0007755286060273647
1772093634020315100,8.128315185546874,-0.0013735843822360039,0.0005753627046942711,-0.00054161436855793
1772093634030264000,8.13826416015625,0.0011082151904702187,0.0026110829785466194,-0.0005120532587170601
1772093634040214000,8.148214111328125,-0.0017339340411126614,-0.0007352139800786972,-0.0006656516343355179
1772093634050164000,8.1581640625,0.0014267056249082088,0.0003492250107228756,0.00023795897141098976
1772093634060114200,8.1681142578125,-0.0026648310013115406,0.0010371666867285967,0.0009796745143830776
1772093634070063000,8.17806298828125,0.0004920801147818565,-0.003164502792060375,-0.0008872016333043575
1772093634080013000,8.188012939453126,-0.00014160620048642159,0.00031186407431960106,-0.00217062933370471
1772093634089963300,8.19796337890625,-0.00003987317904829979,-0.0018743248656392097,0.0012478041462600231
1772093634099913200,8.207913330078124,0.0015581892803311348,0.0004569096490740776,0.00003491993993520737
1772093634109862100,8.217862060546874,0.001009311992675066,-0.0010898541659116745,0.0005856617353856564
1772093634119812000,8.22781201171875,0.0025214776396751404,0.000482877716422081,-0.0020982176065444946
1772093634129762000,8.237761962890625,-0.0005552724469453096,0.0010277603287249804,0.0022949327249079943
1772093634139712000,8.2477119140625,0.0005744239315390587,-0.002102508209645748,-0.002354798372834921
1772093634149661200,8.2576611328125,-0.002449861727654934,-0.001058016438037157,-0.0017364122904837132
1772093634159611000,8.26761083984375,0.002369338646531105,0.0025248941965401173,0.0005929702892899513
1772093634169561000,8.27756103515625,-0.000016853678971529007,-0.0024903705343604088,-0.0017665904015302658
1772093634179510000,8.287510009765626,0.0009114444255828857,-0.0017211590893566608,0.0008781407959759235
1772093634189460000,8.2974599609375,0.00037508411332964897,-0.0003767954185605049,-0.00041295960545539856
1772093634199410000,8.307409912109375,-0.0012424667365849018,-0.0004962356761097908,-0.0018373304046690464
1772093634209360100,8.317360107421875,0.0010917941108345985,0.0031837206333875656,-0.0009731343016028404
1772093634219309000,8.32730908203125,-0.001006242586299777,0.00005595944821834564,-0.0011789407581090927
1772093634229259000,8.337259033203125,0.0016244277358055115,0.001155578764155507,0.0006218887865543365
1772093634239209200,8.347209228515625,-0.0003146287053823471,-0.0008330969139933586,0.0013060844503343105
1772093634249159200,8.3571591796875,0.0012901918962597847,0.0011584148742258549,-0.00199224054813385
1772093634259108000,8.367108154296876,0.0018082563765347004,0.0004066317342221737,0.0015466203913092613
1772093634269058000,8.37705810546875,-0.0016328142955899239,-0.0008666259236633778,-0.00003023725003004074
1772093634279007700,8.3870078125,-0.001069492194801569,0.0006701683159917593,0.0013669528998434544
1772093634288957700,8.396957763671875,-0.0013627063017338514,0.00011250237002968788,-0.001661327201873064
1772093634298907000,8.406906982421875,0.00021639326587319374,-0.0002846629358828068,-0.0006337217055261135
1772093634308856800,8.41685693359375,-0.0014174561947584152,0.0027715805917978287,0.00039612269029021263
1772093634318806500,8.426806640625,0.0009810710325837135,-0.0008398997597396374,-0.0007587778382003307
1772093634328756700,8.4367568359375,0.000045768916606903076,0.003690403653308749,0.001164024230092764
1772093634338705700,8.44670556640625,-0.0013587633147835732,-0.00306103378534317,-0.00024176761507987976
1772093634348655600,8.456655517578126,-0.001104697585105896,-0.00009826710447669029,-0.0024287551641464233
1772093634358605600,8.46660546875,-0.0013139902148395777,0.00464926240965724,0.0037708727177232504
1772093634368555800,8.4765556640625,-0.002243433380499482,-0.00041420571506023407,-0.0009650266729295254
1772093634378504700,8.486504638671875,-0.0011746278032660484,0.0006047452334314585,-0.00024045724421739578
1772093634388454700,8.49645458984375,-0.001143735134974122,0.00474596070125699,0.0007513039745390415
1772093634398404600,8.506404541015625,0.0002340683713555336,-0.001845839899033308,0.003351119812577963
1772093634408354800,8.516354736328125,-0.002109779743477702,0.0034493233542889357,-0.0020963759161531925
1772093634418303700,8.5263037109375,-0.0018230823334306479,-0.0015629478730261326,-0.0014608236961066723
1772093634428253700,8.536253662109376,-0.0042183296754956245,0.0018613447900861502,-0.00008396944031119347
1772093634438204000,8.546203857421874,0.0008112327195703983,-0.0018952013924717903,-0.0010339152067899704
1772093634448153900,8.55615380859375,-0.0035073491744697094,-0.004646779038012028,0.0007232385687530041
1772093634458102800,8.566102783203124,-0.0007139579392969608,0.0006517211440950632,0.0019159021321684122
1772093634468052700,8.576052734375,-0.0023400839418172836,0.0013705084566026926,0.0019875410944223404
1772093634478002700,8.586002685546875,-0.0014056663494557142,-0.0015685409307479858,-0.00003733579069375992
1772093634487952000,8.595951904296875,-0.0023316473234444857,0.00016464432701468468,0.0017927887383848429
1772093634497901600,8.605901611328125,0.0014124787412583828,0.003646337427198887,0.0008463729172945023
1772093634507851500,8.6158515625,0.0013586832210421562,-0.0010706535540521145,-0.0014279666356742382
1772093634517801700,8.6258017578125,-0.00045107793994247913,0.0013942713849246502,-0.00027291104197502136
1772093634527750700,8.635750732421876,0.003422223497182131,0.0011290204711258411,-0.0005490812472999096
1772093634537700600,8.64570068359375,0.00023255962878465652,-0.0008288496173918247,0.000008988659828901291
1772093634547650800,8.65565087890625,-0.0002899523824453354,0.004448470193892717,0.0005213809199631214
1772093634557600800,8.665600830078125,0.0027014464139938354,0.0003366013988852501,0.0010361368767917156
1772093634567549700,8.6755498046875,0.0030015846714377403,0.00022421590983867645,0.0006347987800836563
1772093634577499600,8.685499755859375,0.0052306498400866985,0.001465928740799427,0.00022900057956576347
1772093634587449900,8.695449951171875,0.0015461668372154236,-0.00024355435743927956,0.0004002419300377369
1772093634597399800,8.70539990234375,0.0033251126296818256,0.00010691257193684578,-0.0012709773145616055
1772093634607348700,8.7153486328125,0.001133863814175129,0.0028347885236144066,0.0018755472265183926
1772093634617298700,8.725298583984374,0.004155377857387066,0.0034089083783328533,0.005277371499687433
1772093634627248600,8.73524853515625,0.0061634015291929245,0.0008173862006515265,0.0011926149018108845
1772093634637198600,8.745198486328125,0.003510809503495693,-0.0019463682547211647,0.004305982496589422
1772093634647147800,8.755147705078125,0.0035771215334534645,0.00032584089785814285,0.0013368241488933563
1772093634657097700,8.76509765625,-0.000010263174772262573,0.0010941713117063046,0.005291006527841091
1772093634667047700,8.775047607421875,-0.0008001569658517838,-0.0019261199049651623,0.001288541592657566
1772093634676997600,8.78499755859375,-0.0021476522088050842,-0.002860040869563818,0.00261558941565454
1772093634686946600,8.794946533203126,-0.0021548427175730467,-0.00023150118067860603,-0.00008458970114588737
1772093634696896800,8.804896728515626,-0.0010791602544486523,-0.002783698495477438,-0.0032567493617534637
1772093634706846700,8.8148466796875,-0.005183890461921692,0.00056682457216084,-0.003413875587284565
1772093634716795600,8.824795654296874,-0.003882128046825528,-0.001588401384651661,-0.0019911928102374077
1772093634726745600,8.83474560546875,-0.0007811433169990778,-0.0009375251829624176,-0.0044852434657514095
1772093634736695800,8.84469580078125,-0.0014864958357065916,-0.003389736171811819,-0.0027662059292197227
1772093634746645800,8.854645751953125,-0.006549165118485689,-0.0021873190999031067,-0.002412538044154644
1772093634756594700,8.8645947265625,-0.004156614188104868,0.00013029063120484352,-0.0016605248674750328
1772093634766545000,8.874544921875,-0.0008564251475036144,3.282912075519562e-7,-0.0013614515773952007
1772093634776494800,8.884494873046876,-0.0016855509020388126,-0.0030997833237051964,0.0012923493050038815
1772093634786444500,8.894444580078124,0.0015203626826405525,0.00014554476365447044,0.001352802850306034
1772093634796393700,8.904393798828124,-0.0019530076533555984,-0.0021762805990874767,0.0017713040579110384
1772093634806343700,8.91434375,0.00019349996000528336,0.000008044298738241196,0.002596884034574032
1772093634816293600,8.924293701171875,-0.001537554431706667,-0.0009280568920075893,0.0007742168381810188
1772093634826243600,8.93424365234375,0.0010331948287785053,0.0005065877921879292,0.0004778066650032997
1772093634836192500,8.944192626953125,0.0004116129130125046,0.0012544034980237484,-0.00008065812289714813
1772093634846142700,8.954142822265625,0.0023514595814049244,0.00034866249188780785,-0.0016085137613117695
1772093634856092700,8.9640927734375,0.0013273577205836773,-0.0006378353573381901,-0.002076266333460808
1772093634866042600,8.974042724609374,0.0000373227521777153,0.0012101319152861834,-0.0015854458324611187
1772093634875991800,8.98399169921875,0.002341188956052065,-0.005032457876950502,-0.0020702038891613483
1772093634885941800,8.993941650390624,0.0026352019049227238,-0.0020553101785480976,-0.002286186907440424
1772093634895891700,9.0038916015625,0.0035122456029057503,-0.0011106370948255062,-0.0029256166890263557
1772093634905841700,9.013841552734375,0.002513560466468334,-0.003874998539686203,-0.002373809926211834
1772093634915790800,9.023790771484375,0.0021414640359580517,-0.0000909268856048584,-0.0017209104262292385
1772093634925740800,9.03374072265625,0.0016346648335456848,0.000694971764460206,0.0011481130495667458
1772093634935690800,9.043690673828126,0.0020543327555060387,0.00022554444149136543,-0.0005061929114162922
1772093634945639700,9.0536396484375,0.0000660168007016182,-0.0030549373477697372,-0.0009291027672588825
1772093634955590000,9.06358984375,0.0021850448101758957,-0.0008434955962002277,-0.0022534681484103203
1772093634965539600,9.07353955078125,0.002676664385944605,-0.001530590932816267,-0.0015930039808154106
1772093634975489500,9.083489501953125,-0.0006011014338582754,0.00036932341754436493,0.00034694978967309
1772093634985438700,9.093438720703125,0.0027520847506821156,-0.0007859561592340469,-0.0021942388266324997
1772093634995388700,9.103388671875,0.0016995049081742764,0.001935604028403759,0.0018731493037194014
1772093635005338600,9.113338623046875,-0.00025738542899489403,-0.00021543120965361595,0.0021112358663231134
1772093635015288600,9.12328857421875,0.0030098664574325085,-0.0014632330276072025,-0.0007837158627808094
1772093635025237800,9.13323779296875,0.0013962574303150177,0.003661754075437784,-0.00009528873488306999
1772093635035187700,9.143187744140626,-0.0001926897093653679,-0.0005215685814619064,-0.001323753036558628
1772093635045137700,9.1531376953125,0.00004566321149468422,0.0024145664647221565,0.0014560543932020664
1772093635055087900,9.163087890625,-0.0015656247269362211,0.0019034233409911394,-0.0010788901709020138
1772093635065036800,9.173036865234375,0.0015830304473638535,0.0007468124385923147,0.0015198220498859882
1772093635074986800,9.18298681640625,-0.0005002012476325035,0.0016610817983746529,-0.0016483538784086704
1772093635084936700,9.192936767578125,0.00016132788732647896,-0.000978909432888031,0.0013852529227733612
1772093635094886700,9.20288671875,-0.0034500560723245144,0.0003485088236629963,0.012480503879487514
1772093635104835800,9.2128359375,0.0026003792881965637,0.042512740939855576,0.13525010645389557
1772093635114785800,9.222785888671876,-0.004265323746949434,0.1400034874677658,0.015154300257563591
1772093635124735500,9.232735595703126,-0.00039761513471603394,-0.07258680462837219,-0.02210092544555664
1772093635134685000,9.242684814453124,-0.0011974903754889965,-0.06156940385699272,-0.014084266498684883
1772093635144634600,9.252634521484374,0.0006076004356145859,0.061698734760284424,0.00031837448477745056
1772093635154584600,9.26258447265625,0.00044329511001706123,-0.0122566819190979,0.016078315675258636
1772093635164534800,9.27253466796875,0.0012491676025092602,-0.004989715293049812,-0.014360283501446247
1772093635174483700,9.282483642578125,0.0009508077055215836,0.025269765406847,0.01086101308465004
1772093635184433700,9.29243359375,0.001634174957871437,-0.003066800069063902,0.0014312928542494774
1772093635194383600,9.302383544921875,0.0011383467353880405,-0.014334088191390038,-0.022469671443104744
1772093635204333800,9.312333740234376,0.0025644698180258274,-0.0034974184818565845,-0.008768506348133087
1772093635214282800,9.32228271484375,0.0003536720760166645,0.0037802085280418396,-0.016286689788103104
1772093635224232700,9.332232666015624,-0.0001371484249830246,-0.02624187245965004,-0.031523969024419785
1772093635234182700,9.3421826171875,-0.0007341003511101007,-0.029286034405231476,-0.031235823407769203
1772093635244132900,9.3521328125,0.0003817640244960785,-0.024051589891314507,-0.011387018486857414
1772093635254081800,9.362081787109375,0.002063602674752474,-0.0061556678265333176,-0.0011955257505178452
1772093635264031700,9.37203173828125,-0.00016999058425426483,0.011889645829796791,0.0020412805024534464
1772093635273981700,9.381981689453125,0.002234311308711767,-0.004220881499350071,0.00032886769622564316
1772093635283931400,9.391931396484376,0.00013334350660443306,-0.0055703045800328255,-0.009123223833739758
1772093635293880600,9.401880615234376,0.002380349673330784,0.0022345453035086393,0.0009670183062553406
1772093635303830300,9.411830322265626,0.0008775279857218266,0.0036774459294974804,-0.0027028177864849567
1772093635313780500,9.421780517578124,-0.0003840015269815922,-0.005967121571302414,-0.002956328447908163
1772093635323729400,9.4317294921875,0.00035768887028098106,0.0010045012459158897,0.0013002022169530392
1772093635333679400,9.441679443359375,-0.0004458727780729532,0.0016714681405574083,0.0010694023221731186
1772093635343629600,9.451629638671875,0.0007197926752269268,-0.0030167605727910995,-0.003864636179059744
1772093635353579500,9.46157958984375,0.0019498853944242,-0.00016595236957073212,-0.0010991189628839493
1772093635363528400,9.471528564453125,-0.0005753238219767809,0.0018729639705270529,0.0016703021246939898
1772093635373478400,9.481478515625,0.002322271466255188,0.0011012644972652197,-0.0025530564598739147
1772093635383428600,9.4914287109375,0.0024357219226658344,-0.001813831739127636,-0.0006196019239723682
1772093635393378600,9.501378662109374,0.0010670903138816357,-0.0006957100704312325,0.0013654553331434727
1772093635403327500,9.511327392578124,-0.0017025968991219997,-0.0007332605309784412,-0.00048171309754252434
1772093635413277400,9.52127734375,0.0025413301773369312,-0.002312936820089817,0.0005237255245447159
1772093635423227600,9.5312275390625,-0.0014326386153697968,0.0028205723501741886,-0.00036763446405529976
1772093635433177300,9.54117724609375,0.0007526869885623455,-0.0011563757434487343,0.0007200064137578011
1772093635443126500,9.55112646484375,-0.0001517222262918949,-0.00012040603905916214,-0.002988178748637438
1772093635453076500,9.561076416015625,0.00002668052911758423,0.0002590753138065338,0.0026406506076455116
1772093635463026400,9.5710263671875,-0.0012950461823493242,-0.00026796432211995125,0.002704566577449441
1772093635472976400,9.580976318359374,-0.000979559263214469,-0.00047281011939048767,-0.0013170675374567509
1772093635482925300,9.59092529296875,0.0002913014031946659,0.0017288252711296082,0.0003290325403213501
1772093635492875500,9.60087548828125,-0.000779434572905302,-0.0017818897031247616,-0.0004575229249894619
1772093635502825500,9.610825439453125,-0.0003735688515007496,-0.000847918912768364,-0.00031557632610201836
1772093635512774400,9.6207744140625,-0.0022622044198215008,0.001582561293616891,-0.0008075195364654064
1772093635522724400,9.630724365234375,0.0003729932941496372,0.00011089863255620003,0.00040075695142149925
1772093635532674600,9.640674560546875,0.0013725529424846172,0.0010597510263323784,0.00024739140644669533
1772093635542624500,9.65062451171875,0.001443925779312849,-0.0004888768307864666,-0.0027169729582965374
1772093635552573400,9.660573486328126,0.000799515750259161,0.0000749523751437664,0.000017181504517793655
1772093635562523600,9.670523681640624,-0.0019262295681983232,-0.002767705824226141,-0.0009620627388358116
1772093635572473600,9.6804736328125,0.0012394408695399761,0.0006781890988349915,0.00034187501296401024
1772093635582423600,9.690423583984375,-0.0010000115726143122,-0.0006448696367442608,0.002738187089562416
1772093635592372500,9.70037255859375,0.0009279660880565643,-0.0019384357146918774,0.002906291512772441
1772093635602322700,9.71032275390625,0.0006635142490267754,0.0033127854112535715,-0.0013086935505270958
1772093635612272400,9.7202724609375,-0.0004808991216123104,-0.0006500035524368286,0.0005561313591897488
1772093635622221600,9.7302216796875,0.0005641253665089607,-0.000817516352981329,0.00003468431532382965
1772093635632171500,9.740171630859376,-0.00019887229427695274,-0.0003999103792011738,0.0004224875010550022
1772093635642121500,9.75012158203125,0.0005393559113144875,-0.0003615608438849449,0.000058167148381471634
1772093635652071400,9.760071533203124,0.0009720409289002419,0.0005081496201455593,-0.0003793523646891117
1772093635662020400,9.770020263671874,-0.0011531615164130926,-0.00100772175937891,0.00020814081653952599
1772093635671970600,9.779970458984375,-0.0010244695004075766,-0.0027916119433939457,-0.0011928570456802845
1772093635681920500,9.78992041015625,-0.0011136853136122227,0.0011205715127289295,-0.00011827191337943077
1772093635691870500,9.799870361328125,0.0015839380212128162,0.0006361643318086863,0.0007078875787556171
1772093635701819400,9.8098193359375,0.000027053989470005035,0.0016039570327848196,-0.0000612335279583931
1772093635711769600,9.81976953125,0.0030459887348115444,-0.000359970610588789,0.00029277149587869644
1772093635721719600,9.829719482421876,-0.0006243798416107893,0.0007178108207881451,-0.0016819625161588192
1772093635731669500,9.83966943359375,-0.002594684949144721,-0.0009655384346842766,-0.0025778822600841522
1772093635741618400,9.849618408203124,-0.0013302161823958158,-0.0003916271962225437,-0.003329159691929817
1772093635751568600,9.859568603515624,-0.002645410131663084,-0.0023911348544061184,0.08572515845298767
1772093635761518600,9.8695185546875,0.006454611662775278,0.15254119038581848,0.1782020926475525
1772093635771468300,9.87946826171875,-0.002942523919045925,0.0517711266875267,-0.04906575009226799
1772093635781417700,9.889417724609375,-0.0001520640216767788,-0.17105795443058014,-0.018566962331533432
1772093635791367400,9.899367431640625,-0.0015108517836779356,0.02517578937113285,-0.01888716034591198
1772093635801317400,9.9093173828125,-0.0009782195556908846,0.05470625311136246,0.027404703199863434
1772093635811266300,9.919266357421876,0.0005381116643548012,-0.0548456571996212,-0.022434774786233902
1772093635821216500,9.929216552734376,-0.0014832275919616222,-0.011900322511792183,-0.04377308487892151
1772093635831166500,9.93916650390625,0.002245098352432251,0.017680278047919273,-0.00412346888333559
1772093635841116400,9.949116455078125,0.0009231050498783588,0.0028419438749551773,-0.016987334936857224
1772093635851065300,9.9590654296875,0.0011315364390611649,-0.016133833676576614,-0.04976091906428337
1772093635861015600,9.969015625,0.0023664440959692,-0.022811708971858025,-0.043227918446063995
1772093635870965500,9.978965576171875,-0.008802264928817749,-0.022306259721517563,-0.006510679144412279
1772093635880915500,9.98891552734375,-0.0008764308877289295,-0.00008457759395241737,0.008224591612815857
