time,seconds_elapsed,z,y,x
1772048250292563500,0.0845634765625,0.06926584392786025,-0.018615122490376234,0.0487387138037011
1772048250302514400,0.094514404296875,0.06462006394863128,-0.030210648542270062,0.05723888592245057
1772048250312465400,0.10446533203125,0.06447451799809932,-0.017463102911040185,0.06201306892116554
1772048250322417400,0.11441748046875,0.08976678016483783,-0.020031126768141984,0.056350494848517695
1772048250332368400,0.124368408203125,0.09066460578739642,-0.014013985370472073,0.053499060073308645
1772048250342319600,0.134319580078125,0.07660334720909595,-0.01635017323307693,0.0594280482634902
1772048250352271400,0.144271240234375,0.07796236060261726,-0.024056144500523804,0.05063895793445408
1772048250362222300,0.154222412109375,0.08230828085243702,-0.017453604430332777,0.04448767789625562
1772048250372173300,0.16417333984375,0.0713940881282091,-0.020715674966201185,0.04590619379151612
1772048250382125300,0.174125244140625,0.06871697787344455,-0.015588760406523941,0.046877915767347435
1772048250392076500,0.18407666015625,0.08113865255117415,-0.020178718545287848,0.05949727757479995
1772048250402027300,0.19402734375,0.08368950607776642,-0.018832199307158588,0.05296433214209974
1772048250411978500,0.203978515625,0.0727805740505457,-0.023231457179412246,0.042255178736988454
1772048250421930200,0.21393017578125,0.08355798865258693,-0.013979498578980565,0.04378491818807088
1772048250431881500,0.223881591796875,0.07923077310323715,-0.010898045307025313,0.04571479027210734
1772048250441832200,0.233832275390625,0.08000234199762343,-0.0201115715932101,0.04598820951916277
1772048250451784400,0.243784423828125,0.07492927651703357,-0.014353227262198924,0.056344795760093255
1772048250461735400,0.2537353515625,0.07540157020390033,-0.01085245259962976,0.05171642357339151
1772048250471686400,0.263686279296875,0.085907766649127,-0.03215250332504511,0.04987790130092762
1772048250481638400,0.273638427734375,0.09415069433748721,-0.02417385259605944,0.04860729684322141
1772048250491589400,0.28358935546875,0.07875204967558383,-0.00692161595672369,0.04793464001235552
1772048250501540400,0.293540283203125,0.06635258682966232,-0.014605667653307317,0.03823435312253423
1772048250511492600,0.30349267578125,0.08506956225931644,-0.013797420010343193,0.04236851205150596
1772048250521443300,0.313443359375,0.10782967559993266,-0.020194719832018017,0.03067448492804542
1772048250531394600,0.32339453125,0.07835399026870728,-0.005269172574579715,0.07419558281446807
1772048250541346300,0.33334619140625,0.047830841711163516,0.012414222023636103,0.047312781786965206
1772048250551297500,0.343297607421875,0.09407178388237952,-0.020889058771729467,0.0554185294943396
1772048250561248300,0.353248291015625,0.09226561124324797,-0.002387479658424854,0.045100804825918744
1772048250571200300,0.3632001953125,0.08239069843888282,-0.025758345308527348,0.0316760357865598
1772048250581151500,0.3731513671875,0.05499708007872104,-0.013115940552204847,0.0408633316529449
1772048250591102500,0.3831025390625,0.07325345225930213,-0.03188990686610341,0.054605642208876086
1772048250601054500,0.393054443359375,0.10481821882426738,-0.022031726000830528,0.04728260584441013
1772048250611005200,0.403005126953125,0.07444120073914527,-0.01541281931772828,0.05388130998970009
1772048250620956400,0.412956298828125,0.058743280869722365,-0.020680165261402726,0.04701648398782126
1772048250630908400,0.422908447265625,0.08867781588435172,-0.025586715068668126,0.04929571749879978
1772048250640859400,0.432859375,0.10438508810400962,-0.013445830093696712,0.05012354662506841
1772048250650810400,0.442810302734375,0.06997311541438102,-0.007696911178156733,0.05886297999294474
1772048250660762400,0.452762451171875,0.05785539211928844,-0.018088614398241044,0.048793001274205744
1772048250670713300,0.46271337890625,0.08554302498996258,-0.013849077132344245,0.044755060128169134
1772048250680664300,0.472664306640625,0.08151391560435295,-0.012562836714088916,0.046424299381487066
1772048250690615300,0.482615234375,0.07389525729417801,-0.022220380440726877,0.045078675192501395
1772048250700567600,0.492567626953125,0.07434300106167793,-0.02012048555202782,0.047506989184813574
1772048250710518300,0.502518310546875,0.08063304111659526,-0.02097688318565488,0.0603735306863673
1772048250720469500,0.512469482421875,0.07705635167360306,-0.023898323590308426,0.06356706603066996
1772048250730421200,0.522421142578125,0.08185410734415054,-0.023308687134087083,0.05657977355974726
1772048250740372500,0.53237255859375,0.08080898220539093,-0.01649301576986909,0.05344763128017075
1772048250750323200,0.5423232421875,0.07631693148314952,-0.03352254956923425,0.05426620852090418
1772048250760275500,0.552275390625,0.08648527427613735,-0.02568023857101798,0.04951772621902637
1772048250770226400,0.562226318359375,0.07077566396892071,-0.018402502653002736,0.04779772489285096
1772048250780177400,0.572177490234375,0.06090659638345241,-0.023181992014497516,0.05396182788000442
1772048250790129400,0.58212939453125,0.08710019130408764,-0.015375921373441815,0.0413173042318318
1772048250800080400,0.592080322265625,0.0770762254178524,-0.013475932971015571,0.030026085755601523
1772048250810031400,0.60203125,0.06286182210445404,-0.01777684503532946,0.012574262290401383
1772048250819983400,0.6119833984375,0.07857143241167068,-0.005271145335957407,0.031782482702564445
1772048250829934300,0.621934326171875,0.0751285984814167,-0.0025660510957241055,0.06905790026560425
1772048250839885600,0.631885498046875,0.09293839593827724,-0.006092763917148113,0.07357665633168071
1772048250849837300,0.64183740234375,0.09369184465408324,-0.002980477115511894,0.07374218562431634
1772048250859788500,0.65178857421875,0.09774082778394222,-0.009923428121209143,0.051046150495857
1772048250869739300,0.6617392578125,0.09850012171864508,-0.03396554409638047,0.03718517286316492
1772048250879691300,0.671691162109375,0.06781973677277564,-0.027229806100577115,0.045415578996669495
1772048250889642500,0.681642578125,0.056880994129180906,-0.01846321986429393,0.04521891478025354
1772048250899593500,0.691593505859375,0.05089256736934185,-0.01382277364730835,0.05649033257747069
1772048250909544400,0.70154443359375,0.08667115223705768,-0.020155702995881437,0.055522757053794336
1772048250919496200,0.71149609375,0.09580489128530024,-0.016276742670685053,0.05446195028871297
1772048250929447400,0.721447509765625,0.07920096248686313,-0.007263269001245499,0.03493385027241893
1772048250939399400,0.7313994140625,0.07411971369981765,-0.0044725423041731115,0.036951473705144594
1772048250949350400,0.741350341796875,0.08265899398624897,-0.02069317087344825,0.06025189533438533
1772048250959301400,0.75130126953125,0.06037701955139636,-0.02097089183628559,0.05649571200548671
1772048250969252400,0.76125244140625,0.06099135205745697,-0.02951901301629841,0.03281045577712357
1772048250979204400,0.771204345703125,0.05561024354100227,-0.018784049316495657,0.04054747063680552
1772048250989155300,0.7811552734375,0.0686409900277853,-0.025719766863808034,0.058869966856157405
1772048250999106300,0.791106201171875,0.0879471635222435,-0.021182854086533188,0.061488387459935616
1772048251009058600,0.80105859375,0.09916939928233623,-0.018644421650096773,0.06037202371587045
1772048251019009300,0.81100927734375,0.09706336691379547,-0.007123349073901772,0.06016605281499214
1772048251028960500,0.82096044921875,0.08913783461153507,-0.0072027709856629365,0.056843986587040124
1772048251038912300,0.830912353515625,0.08583294784724711,-0.0058415656350553034,0.03635559930438176
1772048251048863500,0.840863525390625,0.07550561510026454,-0.006277326703816652,0.027633235802315175
1772048251058814200,0.850814208984375,0.07147066049575805,-0.010368979931622743,0.04021171761010773
1772048251068766500,0.860766357421875,0.08343640809953212,-0.016022110322490332,0.04670705271246843
1772048251078717400,0.870717529296875,0.08238660678565501,-0.00720569359511137,0.04844273566496558
1772048251088668400,0.88066845703125,0.09794716401100158,-0.014060016469284892,0.043787329340865835
1772048251098620400,0.890620361328125,0.08551964411437511,-0.013306494688242673,0.031917854318954046
1772048251108571400,0.9005712890625,0.07040799970030784,-0.009990428942814468,0.045940927178179845
1772048251118522400,0.9105224609375,0.06711889502704144,-0.023378026043251156,0.05455066061862744
1772048251128474400,0.920474365234375,0.08238777582943439,-0.026919351911917327,0.05669536276343278
1772048251138425300,0.93042529296875,0.0807446847975254,-0.028310440944135186,0.060896403783001
1772048251148376600,0.94037646484375,0.07551730553805827,-0.020389292556047437,0.0558215573372785
1772048251158327300,0.950327392578125,0.08359130640029906,-0.017943214578181505,0.050803555645328013
1772048251168279300,0.960279296875,0.0683271017730236,-0.015980243942141533,0.06156274960408918
1772048251178230300,0.970230224609375,0.08076397401988505,-0.01621441802419722,0.05697661825707182
1772048251188182300,0.980182373046875,0.07763327477872371,-0.01862557081915438,0.05708301950730383
1772048251198133500,0.990133544921875,0.07330313661992549,-0.014292802311852574,0.05684724712320603
1772048251208081200,1.0000810546875,0.0755512078076601,-0.015818112182989716,0.0576330180728808
1772048251218032400,1.010032470703125,0.06913081937134266,-0.023338059359043834,0.04299166718483902
1772048251227984100,1.019984130859375,0.0670505059659481,-0.020576485691219566,0.04586226331824436
1772048251237935400,1.029935302734375,0.08307751165926457,-0.014367767244204879,0.050590205155592406
1772048251247886000,1.039885986328125,0.097597619920969,-0.026326208324357867,0.04596142197693698
1772048251257838300,1.04983837890625,0.08966098170280457,-0.02629902805648744,0.05501614097221754
1772048251267789300,1.059789306640625,0.0811368989855051,-0.019552111079543827,0.052671687604766336
1772048251277740300,1.069740234375,0.0776993257522583,-0.024520474076643584,0.05686523030446842
1772048251287692300,1.0796923828125,0.0829454097121954,-0.025142697628214954,0.05940306908586062
1772048251297643300,1.089643310546875,0.07487257789373397,-0.02128236893825233,0.06059375844146125
1772048251307594200,1.09959423828125,0.0792237588405609,-0.02429353345297277,0.052005615778313946
1772048251317546200,1.109546142578125,0.08625088099837303,-0.015588979602232574,0.028009868828672915
1772048251327497200,1.119497314453125,0.07113689849674701,-0.023747882268950343,0.03278816174692474
1772048251337448400,1.129448486328125,0.06845043589174747,-0.026523849788308143,0.03956374769592658
1772048251347400200,1.139400146484375,0.07174129413068295,-0.01585566771440208,0.058023213833710174
1772048251357351400,1.149351318359375,0.10316519092023373,-0.016105843083187937,0.04179127841913141
1772048251367302100,1.15930224609375,0.10840484513938427,-0.016189721974357963,0.05599814688004553
1772048251377254100,1.169254150390625,0.07188976269066333,-0.005521539900451899,0.0654549256038852
1772048251387205400,1.179205322265625,0.06007189912497997,-0.011019260533899069,0.06033686107094399
1772048251397156400,1.18915625,0.09987667076885699,-0.003865370191261172,0.046928988367458804
1772048251407108400,1.1991083984375,0.10405307967066764,-0.013207125966995954,0.044989088079752396
1772048251417059000,1.20905908203125,0.06259469560086726,-0.010231471157073974,0.046507292356668034
1772048251427010300,1.21901025390625,0.06574000788927079,-0.023950784429907796,0.05273839616542682
1772048251436961300,1.228961181640625,0.09088029436469078,-0.02653444424755871,0.04071473522880115
1772048251446913300,1.238913330078125,0.09237374779284,-0.008614391349256038,0.05312022595671005
1772048251456864300,1.2488642578125,0.04898410339951515,-0.009838014860078691,0.041216894330969076
1772048251466815200,1.258815185546875,0.08085866656601429,-0.021982845357805487,0.0620013419507537
1772048251476767200,1.268767333984375,0.10494915172755717,-0.00807312407940626,0.06225968235968612
1772048251486718200,1.27871826171875,0.08057283536195754,-0.01800042465813458,0.04526089989161119
1772048251496669200,1.288669189453125,0.06456979506611824,-0.027705826114490628,0.03418549785683863
1772048251506621400,1.298621337890625,0.07010755544900894,-0.015954671109467744,0.06285070705539547
1772048251516572200,1.308572265625,0.10212532647848128,-0.03240362854190171,0.05130919447937049
1772048251526523400,1.3185234375,0.06381868443787098,-0.026985622081160544,0.05763598634810187
1772048251536475100,1.32847509765625,0.06396598395407199,-0.024180574597790837,0.06005175138609484
1772048251546426400,1.33842626953125,0.07653904980123043,-0.014291194876655935,0.059613542631920424
1772048251556377000,1.348377197265625,0.09151157800555229,-0.025721666559949515,0.05088274922822602
1772048251566329300,1.358329345703125,0.07775368628799915,-0.005756809961050748,0.06279049216760323
1772048251576280300,1.3682802734375,0.07985562700331211,-0.012402458520606159,0.05688519538026303
1772048251586231300,1.378231201171875,0.09152911366224288,-0.0182004042096436,0.062133379965741184
1772048251596183300,1.388183349609375,0.07775777794122696,-0.016682766188308596,0.06042880453756079
1772048251606134300,1.39813427734375,0.0726759446322918,-0.021924904625490307,0.06058295391965657
1772048251616085200,1.408085205078125,0.0666886869162321,-0.028068741142749785,0.06251029611988924
1772048251626037200,1.418037353515625,0.08734802858531475,-0.015338073581084608,0.05262264256495982
1772048251635988200,1.42798828125,0.08436229077279567,-0.018566314912587402,0.04804282222772017
1772048251645939500,1.437939453125,0.08541326113045215,-0.02524637719839811,0.04621802708650939
1772048251655890200,1.44789013671875,0.07913666507899761,-0.022345468125119804,0.04890448969150893
1772048251665842200,1.45784228515625,0.09603285482227801,-0.02052497469969094,0.060851240333868184
1772048251675793200,1.467793212890625,0.08899638031423092,-0.02019238174445927,0.04837209984785877
1772048251685744400,1.477744384765625,0.07777472907602787,-0.011254603659734129,0.039765782207204024
1772048251695696400,1.4876962890625,0.07313537883758545,-0.008253156821429729,0.03183624958326108
1772048251705647000,1.497647216796875,0.07747662291228771,-0.015588687341287731,0.0300900543699041
1772048251715598300,1.507598388671875,0.06835048264861106,-0.02020049198567867,0.03496075654565357
1772048251725550000,1.517550048828125,0.07493219912648201,-0.014858546435832976,0.03433524505845271
1772048251735501300,1.527501220703125,0.09364859003424644,-0.02170402841642499,0.03209437079648487
1772048251745452300,1.537452392578125,0.09932605114877223,-0.015218611919879912,0.046328291661106046
1772048251755404300,1.547404296875,0.06909107188284397,-0.008356836391612887,0.05093095401781611
1772048251765355300,1.557355224609375,0.07298398766815661,-0.023395123308524488,0.05694937405711971
1772048251775306200,1.56730615234375,0.09378069198131561,-0.022315584443509576,0.04294719785545021
1772048251785258200,1.57725830078125,0.09362287107110023,-0.005074234524369239,0.04073107444224879
1772048251795209200,1.587209228515625,0.06921265243589877,-0.020142332057654855,0.05591945562064647
1772048251805160200,1.59716015625,0.08655775499045848,-0.01856521893404424,0.050218019975489005
1772048251815112400,1.607112548828125,0.07412263630926609,-0.009051759853214025,0.061004403335275126
1772048251825063200,1.617063232421875,0.09236088831126689,-0.019813830755650998,0.056182536136778066
1772048251835014400,1.627014404296875,0.08560790691971779,-0.01838584377914667,0.050834243044536556
1772048251844966100,1.636966064453125,0.07901391548216342,-0.015151976424455642,0.04043640234461054
1772048251854917400,1.64691748046875,0.06389291871786117,-0.025960516817122695,0.05734538763738237
1772048251864868000,1.6568681640625,0.08303893321454525,-0.01633775214292109,0.05408319837050512
1772048251874820400,1.6668203125,0.0813812291353941,-0.019681655743345617,0.059359394340915604
1772048251884771300,1.676771240234375,0.09556874444186687,-0.009472615613788366,0.04401298218974843
1772048251894722300,1.686722412109375,0.2698679112493992,-0.02660349089577794,0.04135767277483828
1772048251904673300,1.69667333984375,0.11116378845870495,-0.011105404447391628,0.056976225531427185
1772048251914625300,1.706625244140625,-0.04398059602379799,-0.030265958926081655,0.05349474009121768
1772048251924576300,1.716576171875,0.0241162041246891,-0.0015584814883768557,0.04898968375693075
1772048251934527200,1.72652734375,0.036872225323319435,-0.015483619531616567,0.03830393862687051
1772048251944479200,1.736479248046875,-0.045106969705224036,0.03259206378608942,0.039590754433861
1772048251954430500,1.746430419921875,0.010310381612181663,-0.030895269805565475,0.06420100741949863
1772048251964381200,1.756381103515625,0.1188514203518629,-0.08466448858976364,0.09431058847378007
1772048251974333200,1.766333251953125,0.12964110991358757,0.02197590416036546,0.04914487431864254
1772048251984284200,1.7762841796875,0.1591319928139448,-0.014666384864598512,-0.006037079074000939
1772048251994235400,1.7862353515625,0.14115619114041328,-0.008538549634069205,0.036495208704471586
1772048252004187400,1.7961875,0.07833294748067855,-0.021976269486546515,0.05995508607858792
1772048252014138000,1.80613818359375,0.010105214428901672,-0.021385756247490645,0.06944331938661634
1772048252024089300,1.81608935546875,0.09733400054872035,-0.01435724585019052,0.03945779397026635
1772048252034041000,1.826041015625,0.11618658505678177,-0.0132911509886384,0.02405710348174907
1772048252043992300,1.835992431640625,0.05931845040917396,-0.023469430653750897,0.059250773734133684
1772048252053943000,1.845943115234375,0.07323533208072185,-0.008329948384687305,0.06318300774968229
1772048252063895300,1.855895263671875,0.0858078134059906,-0.015605127019435167,0.0543520601734519
1772048252073846300,1.86584619140625,0.0992751977443695,-0.016636515893787146,0.02113559001185931
1772048252083797200,1.87579736328125,0.08623568342924118,-0.009337664122506976,0.04015890057748183
1772048252093749200,1.885749267578125,0.0634907676577568,-0.02232917457744479,0.0673693169909995
1772048252103700200,1.8957001953125,0.08594634509384631,-0.022366145586967468,0.055399833927024154
1772048252113651200,1.905651123046875,0.09926876800358295,-0.0068434361539781085,0.029702936482150107
1772048252123602200,1.915602294921875,0.08040624662339686,-0.0009302665874361991,0.041730634273076425
1772048252133554200,1.92555419921875,0.07411971369981765,-0.018862009923532604,0.0682227828820236
1772048252143505400,1.93550537109375,0.0777034174054861,-0.023212679413706062,0.06341932812305166
1772048252153456000,1.9454560546875,0.09385843339264392,-0.012074322544783352,0.04676746852966025
1772048252163408400,1.955408447265625,0.07843757689893245,-0.02375394668355584,0.043720520315505565
1772048252173359000,1.965359130859375,0.07319383102655411,-0.014886165095120668,0.04233577882568352
1772048252183310300,1.975310302734375,0.08186696682572364,-0.014016031197085976,0.056789342923508956
1772048252193262300,1.985262451171875,0.08127016997635364,-0.015687325410172342,0.04828362697996199
1772048252203213300,1.99521337890625,0.0875455969840288,-0.015035145111754536,0.03633169783898629
1772048252213167600,2.005167724609375,0.07332301036417484,-0.024159312614053487,0.04540011656605638
1772048252223119600,2.01511962890625,0.06329086117148398,-0.016162541706487534,0.050188711682613935
1772048252233070600,2.025070556640625,0.08109539793133735,-0.025162132981047032,0.042812109366850926
1772048252243021600,2.035021484375,0.07211363457441329,-0.00967098773010075,0.04120180635969154
1772048252252973600,2.0449736328125,0.06508242076337337,-0.008548997962847351,0.046051100421231235
1772048252262924500,2.054924560546875,0.07735621140301227,-0.017808190021663905,0.05373731667543761
1772048252272875500,2.06487548828125,0.09351824165284633,-0.023241613247245548,0.045339435887383296
1772048252282827500,2.07482763671875,0.06703823100626469,-0.0068810647506266824,0.0536206223600544
1772048252292778500,2.084778564453125,0.07317045015096664,-0.0217405610345304,0.04451958000501618
1772048252302729700,2.094729736328125,0.08664075709879397,-0.01756802459023893,0.04648969276789575
1772048252312681700,2.104681640625,0.09323533305823803,-0.012506576482206582,0.052259051683265716
1772048252322632400,2.114632568359375,0.08247545411288738,-0.014367474983260034,0.053886114028980955
1772048252332583700,2.124583740234375,0.06301438231766224,-0.019037512620911003,0.04645700520784594
1772048252342535400,2.134535400390625,0.07648527378737927,-0.0075672203838825225,0.0568825193659868
1772048252352486700,2.144486572265625,0.10042261421382427,-0.018144728499650955,0.054344927179766814
1772048252362437400,2.154437255859375,0.08276362340450287,-0.020566256558150052,0.05771646770578809
1772048252372389600,2.1643896484375,0.07153612694740295,-0.020756299237534404,0.050520921045355494
1772048252382340600,2.174340576171875,0.08275953175127505,-0.01908281306736171,0.046883121665427456
1772048252392291600,2.18429150390625,0.09293956498205662,-0.022308350985124705,0.051576549311820416
1772048252402243600,2.19424365234375,0.07933540252149104,-0.022971271873265503,0.058245779676362866
1772048252412194600,2.204194580078125,0.0627373189419508,-0.02673741947375238,0.05326854838621802
1772048252422145500,2.2141455078125,0.06693067897856235,-0.01826419016085565,0.057924155639717353
1772048252432096500,2.224096435546875,0.07965455147325992,-0.015327040730416774,0.05563303076154552
1772048252442048500,2.234048583984375,0.09357786288559436,-0.025020094161853194,0.044584936858806754
1772048252451999700,2.243999755859375,0.07681435961127281,-0.010277867582067847,0.035684504242939875
1772048252461950500,2.253950439453125,0.07217910102605819,0.001486146904528141,0.041666528661455954
1772048252471902700,2.26390283203125,0.0780173056602478,-0.013508885392546653,0.042128090891754254
1772048252481853400,2.273853515625,0.08519581898748874,-0.006731427146866917,0.037118884427612645
1772048252491804700,2.2838046875,0.07307400403916835,-0.00013078677281737328,0.043708172290585934
1772048252501756700,2.293756591796875,0.0922252792328596,-0.011325476938858627,0.04060741152996197
1772048252511707600,2.303707763671875,0.09118541479110717,-0.012039762688055634,0.03309367489898577
1772048252521658600,2.31365869140625,0.09328326385319233,-0.013272227092459798,0.042660279806004835
1772048252531610400,2.3236103515625,0.081319854336977,-0.013376929575949907,0.045569289987348015
1772048252541561600,2.3335615234375,0.08461071257591248,-0.0073722823336720466,0.04349491313239559
1772048252551512600,2.3435126953125,0.08850362836122512,-0.012807532190158963,0.04862828483232297
1772048252561464600,2.353464599609375,0.08775777842998504,-0.010128595304489136,0.04581206750096753
1772048252571415600,2.36341552734375,0.08146540028750895,-0.01972885588593781,0.04442954536769539
1772048252581366500,2.373366455078125,0.07426876678168773,-0.01802614362128079,0.0497398536702618
1772048252591318500,2.383318603515625,0.08848609270453453,-0.0185473910164088,0.04991207756516523
1772048252601269500,2.39326953125,0.09357552479803562,-0.031145152913406488,0.03976610186761245
1772048252611220500,2.403220458984375,0.0732242261648178,-0.014369813070818782,0.04902284624101594
1772048252621171700,2.413171630859375,0.06259001942574978,-0.015544702069088815,0.05339563623145222
1772048252631123500,2.42312353515625,0.09356383436024189,-0.026296032381802795,0.062366248006699605
1772048252641074700,2.43307470703125,0.0990963340461254,-0.027467414248734712,0.054001246574940154
1772048252651025400,2.443025390625,0.08188976317942143,-0.03048931935317814,0.05938989907703362
1772048252660977700,2.452977783203125,0.06527472846508026,-0.04138553802929818,0.05667622880470007
1772048252670928400,2.462928466796875,0.07679448586702346,-0.024012451489269733,0.05689651135872118
1772048252680879600,2.472879638671875,0.08801555258333682,-0.018146628195792436,0.04864498023879714
1772048252690831600,2.48283154296875,0.07409925543367862,-0.01829078590683639,0.04459082774347625
1772048252700782600,2.492782470703125,0.06287058993279934,-0.007282850484549999,0.051072837573383004
1772048252710733600,2.502733642578125,0.0799386291116476,-0.016116948999091982,0.048555995914246884
1772048252720685600,2.512685546875,0.08458090195953845,-0.01734700225070119,0.0393492646950297
1772048252730636500,2.522636474609375,0.07380348735749721,-0.008014818020910024,0.04562515749358572
1772048252740587800,2.532587890625,0.07634615757763386,-0.007845525868609548,0.04963777240212075
1772048252750539500,2.54253955078125,0.08293021214306354,-0.015197715262323616,0.04719669025978073
1772048252760490800,2.55249072265625,0.07963117059767245,-0.007467997793108225,0.04427030881852843
1772048252770441500,2.56244140625,0.06467091735303401,-0.0075232351116836065,0.048582482062373304
1772048252780393700,2.572393798828125,0.07993746006786823,-0.01310030459165573,0.04599030101154931
1772048252790344400,2.582344482421875,0.08097673998773097,-0.013138883036375046,0.049951761121582235
1772048252800295700,2.592295654296875,0.08081424290239811,-0.0003723404437303543,0.04861516962242313
1772048252810247700,2.60224755859375,0.08216624203324317,-0.011818155826628207,0.03763316322583705
1772048252820198700,2.61219873046875,0.07991524823606014,-0.014137538684904574,0.047338098891312255
1772048252830149600,2.622149658203125,0.07408113525509834,-0.011011807879805564,0.038315053675929085
1772048252840101400,2.632101318359375,0.0704834030240774,-0.024172318226099013,0.03715884197866544
1772048252850052600,2.642052490234375,0.080958035287261,-0.018300211322307587,0.0384721256674733
1772048252860003600,2.652003662109375,0.07691606642007827,-0.010316665222495794,0.04884131566165015
1772048252869955600,2.66195556640625,0.08798983362019061,-0.022870076521113513,0.050657205977197736
1772048252879906600,2.671906494140625,0.09307458953857421,-0.011579232504218816,0.050995945545425636
1772048252889857500,2.681857421875,0.0855938783943653,-0.022639044244214892,0.060907043908024205
1772048252899809500,2.6918095703125,0.08634206641316414,-0.022600173538550733,0.048295399616146456
1772048252909760500,2.701760498046875,0.07915712334513664,-0.015503127949684857,0.049192896445142104
1772048252919711500,2.71171142578125,0.08529109605550765,-0.017762378118559716,0.051745256942231206
1772048252929662700,2.721662841796875,0.07840835080444812,-0.019582652348279952,0.04851712520858273
1772048252939614500,2.731614501953125,0.0857382553011179,-0.02151493558511138,0.043866532056918366
1772048252949565700,2.741565673828125,0.07886077074706555,-0.024145868610590693,0.045488808629661794
1772048252959516400,2.751516357421875,0.06929916167557239,-0.02695500774718821,0.0451709017869085
1772048252969468700,2.76146875,0.08530278649330139,-0.023240298072993753,0.043050831759860735
1772048252979419600,2.771419677734375,0.08111351810991764,-0.018177753986418247,0.052239086607471105
1772048252989370600,2.78137060546875,0.07259294252395629,-0.015633476331084965,0.05337548849256709
1772048252999322600,2.791322509765625,0.07438567115962505,-0.025194427815452218,0.051104611817980185
1772048253009273600,2.801273681640625,0.0856114140510559,-0.020592852304130792,0.0418038547729142
1772048253019224600,2.811224609375,0.07334989837110042,-0.016820859484747052,0.04292362518361769
1772048253029176800,2.8211767578125,0.0793418322622776,-0.02048193927556276,0.0475708025354892
1772048253039127600,2.83112744140625,0.08308218783438205,-0.014954042699560521,0.04302972503975033
1772048253049078800,2.841078857421875,0.07903612731397151,-0.01831475130431354,0.04711511292355135
1772048253059030500,2.851030517578125,0.07887772188186645,-0.01562675432935357,0.043312706699594854
1772048253068981800,2.860981689453125,0.07662906617224216,-0.012153817521780729,0.051104821880534286
1772048253078932500,2.870932373046875,0.07154021860063076,-0.0100723350726068,0.04031052007577382
1772048253088884500,2.880884521484375,0.0893500160574913,-0.010994126092642545,0.03513418601695448
1772048253098835700,2.890835693359375,0.09638181439042091,-0.010506488706171511,0.03905680282078683
1772048253108786700,2.90078662109375,0.07288403442502021,-0.005906593695282936,0.049948290522862225
1772048253118738700,2.91073876953125,0.0709457598388195,-0.02573701025955379,0.04325329552940093
1772048253128689400,2.920689453125,0.08859598281979561,-0.0175442053232342,0.04294466797164641
1772048253138640600,2.930640625,0.061650108227133744,-0.0067241936884820455,0.05223718691132962
1772048253148592600,2.940592529296875,0.07048106493651866,-0.01947502725534141,0.04355131949475035
1772048253158543600,2.950543701171875,0.08454232351481913,-0.014177578434348106,0.04821468992959708
1772048253168494600,2.96049462890625,0.0960638344824314,-0.021773878782242535,0.05290001646792516
1772048253178445600,2.970445556640625,0.07256020929813385,-0.016962094586342572,0.048974294391553846
1772048253188397600,2.9803974609375,0.06850479642748833,-0.02842873356156051,0.05255218027778901
1772048253198348500,2.9903486328125,0.08945406095385551,-0.02535626731365919,0.06167762642172165
1772048253208299500,3.000299560546875,0.08586568107306956,-0.01758329522460699,0.045514372329181055
1772048253218251000,3.0102509765625,0.07809037089645862,-0.02002192054837942,0.04799486403330229
1772048253228202000,3.020201904296875,0.06596621786057949,-0.016217486764118074,0.04332561184694059
1772048253238153000,3.030153076171875,0.08273205922245978,-0.018740356305241585,0.03969163012560457
1772048253248105000,3.04010498046875,0.10158347468674182,-0.0156836721483618,0.03827976316683925
1772048253258056200,3.05005615234375,0.06746493198573589,-0.020400471537187694,0.043108434565458445
1772048253268007200,3.060007080078125,0.06552607287764549,-0.01386646665856242,0.05079836801355704
1772048253277959200,3.069959228515625,0.09844166952967644,-0.015739128662645815,0.050961486153397705
1772048253287910000,3.079909912109375,0.09498539159595966,-0.006562061929330229,0.040892776943137865
1772048253297861000,3.089861083984375,0.07493745982348919,-0.003447510105371475,0.04676315768072381
1772048253307813000,3.099813232421875,0.07178864040374755,-0.0060200640071183436,0.04770031979982741
1772048253317764000,3.10976416015625,0.0856903245061636,-0.00939582405053079,0.048614795163087546
1772048253327715000,3.119715087890625,0.08435527651011944,-0.018846812354400753,0.040841841340344395
1772048253337667000,3.1296669921875,0.08089958309829234,-0.015795315829291938,0.0401183767708484
1772048253347618000,3.1396181640625,0.07685586066544055,-0.015144889096543192,0.052699242331972346
1772048253357569000,3.149569091796875,0.08583937758803367,-0.0214955002322793,0.05185585031039081
1772048253367521000,3.15952099609375,0.07686229040622711,-0.019545389077812433,0.04203345314455218
1772048253377472300,3.16947216796875,0.07073065578341484,-0.015722469788789748,0.04943983867722563
1772048253387423000,3.179423095703125,0.08344400688409805,-0.010859759123250842,0.05382436477122828
1772048253397375200,3.189375244140625,0.09333119464814663,-0.021929507735371587,0.04059526443444192
1772048253407326000,3.199325927734375,0.07537526671886444,-0.01729666030295193,0.04070824155593291
1772048253417277200,3.209277099609375,0.07387187641859054,-0.013915566497296094,0.05618687438517809
1772048253427229200,3.219229248046875,0.08943009555637836,-0.018026801208406686,0.04477072348818183
1772048253437180200,3.22918017578125,0.0735597417294979,-0.015501374384015798,0.03610399003033526
1772048253447131100,3.239131103515625,0.07281681440770625,-0.015841858384758233,0.04414708429765887
1772048253457082000,3.24908203125,0.07326222008764743,-0.01897277682162821,0.04148831341718323
1772048253467034000,3.2590341796875,0.09854629894793034,-0.016379326262325047,0.039489686945872376
1772048253476985000,3.268985107421875,0.07475041281878948,-0.016781477322429416,0.05419376433920115
1772048253486936000,3.27893603515625,0.04872749828994274,-0.016973931154608726,0.043783877008454875
1772048253496888000,3.28888818359375,0.08060206145644187,-0.018451894752681254,0.04983347763731144
1772048253506839000,3.298839111328125,0.08959142359793186,-0.01692643875107169,0.04994503911985084
1772048253516790300,3.308790283203125,0.0767407098531723,-0.009061988986283541,0.04199786124136299
1772048253526742000,3.318741943359375,0.05594166745245456,-0.008901026270911097,0.04415366016891785
1772048253536693000,3.32869287109375,0.07913549603521823,-0.016537658629193902,0.04897144484734162
1772048253546644200,3.338644287109375,0.09694470897018909,-0.015508461711928247,0.052932229103939604
1772048253556596000,3.348595947265625,0.08213818498253822,-0.012169380417093634,0.04898364674178883
1772048253566547200,3.358547119140625,0.06283668766319751,-0.020610241830348968,0.04760752694983966
1772048253576498000,3.368497802734375,0.0734597884863615,-0.021380349420011043,0.04944359240373596
1772048253586450200,3.3784501953125,0.10607377184331417,-0.01579524276405573,0.048229914898192505
1772048253596401000,3.38840087890625,0.09559154079556464,-0.012411883936077355,0.04822892851750366
1772048253606352100,3.39835205078125,0.07388882755339145,-0.016232026746124027,0.04614955582702532
1772048253616304000,3.40830419921875,0.07536006914973259,-0.02499941670000553,0.04043300481112674
1772048253626255000,3.418255126953125,0.09210136059224605,-0.028501141210645436,0.040594670779397705
1772048253636206000,3.4282060546875,0.10706044479310511,-0.007733882187679409,0.04535179304545745
1772048253646158000,3.438157958984375,0.07084463755190372,-0.03310330124385655,0.04868432586849667
1772048253656109000,3.448109130859375,0.040620764201879496,-0.021476430205628276,0.0386739683825057
1772048253666060300,3.458060302734375,0.06337152519226073,-0.012090323831513523,0.035148150610225276
1772048253676012000,3.468011962890625,0.08028115893900394,-0.022513225907459855,0.039234415276860814
1772048253685963300,3.47796337890625,0.07235445759296417,-0.00879383956938982,0.046173064566776154
1772048253695914000,3.4879140625,0.0639829350888729,-0.0024761077899485826,0.0383626100115478
1772048253705866000,3.497865966796875,0.09032090691626071,-0.005914338610321283,0.04074613501406275
1772048253715817200,3.507817138671875,0.09435878413021564,-0.009297405177354811,0.03782232912238687
1772048253725768200,3.517768310546875,0.07984627465307712,-0.015923764514550565,0.04382041875971481
1772048253735720200,3.52772021484375,0.07295183896422386,-0.020407558865100144,0.04538132966719567
1772048253745671000,3.5376708984375,0.08999941987693309,-0.015607611237466335,0.04588801881400868
1772048253755622100,3.5476220703125,0.09792553670108317,-0.0009855039060115813,0.05228635068214498
1772048253765574000,3.557573974609375,0.10840016896426677,-0.04922441496141255,0.03763726401221938
1772048253775525000,3.567525146484375,0.07560381477773188,-0.009868629194051027,0.04620652844496071
1772048253785476000,3.57747607421875,0.06002864450514316,-0.02704122472591698,0.06303125125407241
1772048253795427000,3.587427001953125,0.09442249701619147,-0.016959829564020038,0.04954620339483954
1772048253805379000,3.597379150390625,0.09649754972457886,-0.019502938175573945,0.04714256718605756
1772048253815330000,3.607330078125,0.08571779703497887,-0.01668137794882059,0.04086296632676385
1772048253825281000,3.617281005859375,0.07702654105722903,-0.016795651978254316,0.05160381177808158
1772048253835233300,3.6272333984375,0.08388882804214953,-0.01572510013729334,0.04668390929889865
1772048253845184000,3.63718408203125,0.0720522597759962,-0.009691738257184624,0.05553513247817755
1772048253855135200,3.64713525390625,0.06860182706117629,-0.008194193175807595,0.04857425309014506
1772048253865087000,3.6570869140625,0.06500234126448631,-0.004781754383817315,0.05069233208950609
1772048253875038200,3.6670380859375,0.05961714109480381,-0.004663388701155781,0.04648371968483552
1772048253884989000,3.676989013671875,0.07084054589867592,-0.010355024471506475,0.035859440684737634
1772048253894941200,3.686941162109375,0.06768705030381679,-0.018464169712364673,0.03805975460745394
1772048253904892200,3.69689208984375,0.09236965613961219,-0.03107669078707695,0.035532172358594835
1772048253914843100,3.706843017578125,0.0938590179145336,-0.01270261051096022,0.03983674681787379
1772048253924795100,3.716795166015625,0.10177812047600746,-0.02374159865863621,0.046236348194489255
1772048253934746000,3.72674609375,0.06958908453285693,0.00014021218828856943,0.05365589460283517
1772048253944697000,3.736697021484375,0.06255027193725109,-0.005444894467666745,0.0570402763441205
1772048253954649000,3.746649169921875,0.08723813847005367,-0.009731997202336787,0.04411858885553665
1772048253964600000,3.75660009765625,0.06658639558553696,-0.0059612464919686315,0.05305312467040494
1772048253974551300,3.76655126953125,0.06988485260903834,-0.014702844417467713,0.04513193061654456
1772048253984503000,3.7765029296875,0.06748305216431617,0.0011324380960315466,0.04836831872188486
1772048253994454300,3.786454345703125,0.08124854266643523,-0.0052802054252475495,0.04880804357971064
1772048254004405000,3.796405029296875,0.09711597388386725,-0.007627937595173716,0.030151173439994454
1772048254014356200,3.806356201171875,0.09008534459471702,-0.014823036731034517,0.03094394038603641
1772048254024308200,3.81630810546875,0.0938157632946968,0.0015056553225964307,0.03823997914572246
1772048254034259200,3.82625927734375,0.08393792788088321,-0.01287745562121272,0.042341395715717225
1772048254044210200,3.836210205078125,0.06986614790856838,-0.01681274924352765,0.04002541039092466
1772048254054162000,3.846161865234375,0.06013035131394863,-0.011133461498096584,0.0376002564700786
1772048254064113200,3.856113037109375,0.0724012193441391,-0.02714154329523444,0.04787724726931192
1772048254074064100,3.866064208984375,0.06355915671885014,-0.015847265212237834,0.04782693272102624
1772048254084016000,3.87601611328125,0.0668546911329031,-0.018121493754535912,0.04037819675081409
1772048254093967000,3.885967041015625,0.08601005797982215,-0.02470985916890204,0.049524493886530394
1772048254103918000,3.89591796875,0.08885784862637519,-0.010830898354947566,0.05130321226315573
1772048254113870000,3.9058701171875,0.07598609209358692,-0.015999094773083925,0.04536590376920067
1772048254123821000,3.915821044921875,0.07793254998624324,-0.019552622536197304,0.04691681387247518
1772048254133772000,3.92577197265625,0.08422375908493995,-0.0102275986995548,0.05200288496511057
1772048254143724300,3.935724365234375,0.085271806833148,-0.016236045334115625,0.04338070303504355
1772048254153675000,3.945675048828125,0.08766016327440738,-0.007467413271218538,0.041756115774204954
1772048254163626200,3.955626220703125,0.08855448176562786,-0.013687237634137272,0.04511524434322491
1772048254173578000,3.965577880859375,0.08496551736295223,-0.009229673703387379,0.04480853474792093
1772048254183529200,3.975529296875,0.0755424399793148,-0.011506167268007994,0.04244120282838121
1772048254193480000,3.98547998046875,0.08601473415493964,-0.01846409664712846,0.04926113937576301
1772048254203432200,3.99543212890625,0.09109072224497794,-0.012289353534951806,0.044566442220890894
1772048254213379300,4.00537939453125,0.0825572871774435,-0.007857727763056755,0.047597023822134356
1772048254223330300,4.015330322265625,0.08046002263724804,-0.01902947544492781,0.047205832547461614
1772048254233282300,4.0252822265625,0.07207564065158367,-0.009713000240921973,0.0516871700794436
1772048254243233500,4.035233642578125,0.07296937462091445,-0.013699001137167214,0.050242277633910995
1772048254253184300,4.045184326171875,0.08090425927340984,-0.009533478955551981,0.03795337162353098
1772048254263136500,4.055136474609375,0.06877893719375133,-0.013199381051957606,0.044942289795959364
1772048254273087200,4.065087158203125,0.06564297725558281,-0.014064838774874806,0.040692623861692846
1772048254283038500,4.07503857421875,0.07581950335502624,-0.008237447795644401,0.04127720968346111
1772048254292989200,4.0849892578125,0.0889841053545475,-0.006394888668879866,0.04144056528531946
1772048254302941400,4.09494140625,0.0874807150542736,-0.015876710502430797,0.049140928795887155
1772048254312892400,4.104892333984375,0.0801473034262657,-0.02107026055753231,0.04392343160961754
1772048254322843400,4.114843505859375,0.07311901222467422,-0.018123393450677393,0.043952237578993664
1772048254332795400,4.12479541015625,0.07595160530209541,-0.014362360416725277,0.04676250009359791
1772048254342746400,4.134746337890625,0.07250234163105487,-0.01125723400823772,0.04722936868667602
1772048254352697300,4.144697265625,0.08087386413514613,-0.024300182389467954,0.04136650453526526
1772048254362649300,4.1546494140625,0.0865524942934513,-0.030449060408025978,0.04230445210565813
1772048254372600300,4.164600341796875,0.0765185915350914,-0.01220189444720745,0.04417661178624257
1772048254382551600,4.174551513671875,0.07979308316111564,-0.008818097227811813,0.037743236004188656
1772048254392503300,4.18450341796875,0.07394961782991885,-0.015116905111074446,0.037488338794512674
1772048254402454300,4.194454345703125,0.07275660865306854,-0.020123700422421096,0.04244218920907005
1772048254412405200,4.2044052734375,0.08727320978343486,-0.01790010608881712,0.03283227488328703
1772048254422357200,4.214357177734375,0.0783002142548561,-0.01886880499050021,0.04178662051032297
1772048254432308500,4.22430859375,0.08397825989127158,-0.017410422875732183,0.045127382305590436
1772048254442259200,4.23425927734375,0.08846271182894706,-0.013733560993894934,0.039831641384493556
1772048254452211500,4.24421142578125,0.07245382631421089,-0.010327625007927417,0.04671050504487939
1772048254462162200,4.254162109375,0.0649719461262226,-0.015259090060740709,0.04654922266909852
1772048254472113400,4.264113525390625,0.08636427824497223,-0.01847206075787544,0.04584968696446158
1772048254482065400,4.2740654296875,0.08052373552322387,-0.01810607698969543,0.051400087633216754
1772048254492016400,4.284016357421875,0.07842588646113872,-0.006270604702085256,0.04478399396170862
1772048254501967400,4.29396728515625,0.07079203058183192,-0.008314970011264085,0.04801697540041059
1772048254511919400,4.30391943359375,0.07692951042354107,-0.005521320704743266,0.05080048690540716
1772048254521870300,4.313870361328125,0.07438917829096317,-0.015749942317605018,0.048703386761993164
1772048254531821300,4.3238212890625,0.07513093656897545,-0.01909508802704513,0.03955456887562759
1772048254541773300,4.333773193359375,0.08141396236121654,-0.008740428881719707,0.03714215570534579
1772048254551724500,4.343724609375,0.07527765156328678,-0.015146131205558777,0.03696309107770212
1772048254561675300,4.35367529296875,0.07033493446409701,-0.012129632928594945,0.03909275091700256
1772048254571627300,4.363627197265625,0.06509644928872585,-0.0009204758457839489,0.04103112596790306
1772048254581578200,4.373578125,0.07990881849527358,-0.001172331715002656,0.04766420730683021
1772048254591529500,4.383529541015625,0.08440262278318404,-0.014373904724046586,0.04168031972479075
1772048254601480200,4.393480224609375,0.08396130875647068,-0.012799129687994718,0.03803540561748668
1772048254611432200,4.40343212890625,0.07573299411535263,-0.009662219901755451,0.04060921076140366
1772048254621383400,4.413383544921875,0.07693067946732043,-0.01414075355529785,0.045601383892353624
1772048254631334400,4.42333447265625,0.08486205698847771,-0.01712802573777735,0.0427221660610754
1772048254641286400,4.433286376953125,0.07393675834834575,-0.02054572522677481,0.04150768483793363
1772048254651237400,4.4432373046875,0.0824655172407627,-0.012141031105443834,0.0402577304426115
1772048254661188400,4.453188232421875,0.09249357478022575,-0.016790829672664404,0.04160952864405699
1772048254671140400,4.463140380859375,0.07992810771763324,-0.021740999425947666,0.04706537376400083
1772048254681091300,4.47309130859375,0.06496902351677418,-0.014764219215884803,0.040846727578015996
1772048254691042300,4.483042236328125,0.07723638441562652,-0.015321853098645805,0.03730873531075194
1772048254700994300,4.492994384765625,0.079324296605587,-0.013705796204134821,0.033944072050089015
1772048254710945300,4.5029453125,0.0830669902652502,-0.020896146099641917,0.043853124586073676
1772048254720896300,4.512896240234375,0.07976502611041068,-0.021204773657396436,0.04526183147337287
1772048254730848300,4.52284814453125,0.06869008986651896,-0.012386822560057043,0.04692413866240531
1772048254740799500,4.532799560546875,0.07497311565876007,-0.012794672708585858,0.04444118100656196
1772048254750750200,4.542750244140625,0.08469429920613765,-0.022443594737350938,0.035362460081186146
1772048254760702500,4.552702392578125,0.08064473155438899,-0.009454276239499449,0.04203771832771599
1772048254770653200,4.562653076171875,0.07854337536096573,-0.01460771347992122,0.04448138515278697
1772048254780604400,4.5726044921875,0.08139058148562908,-0.018571137218177318,0.037042156796436757
1772048254790555100,4.58255517578125,0.09545651623904705,-0.019638766449689864,0.04030738740377128
1772048254800507400,4.59250732421875,0.06882569894492625,-0.006084726741164922,0.04475655796551145
1772048254810458400,4.602458251953125,0.06702946317791939,0.00005582184046506881,0.039986411821097134
1772048254820409300,4.612409423828125,0.06882219181358813,-0.009487082530558109,0.04228108036322519
1772048254830361300,4.622361328125,0.09485036703944205,-0.016674144490435718,0.03503253400707617
1772048254840312300,4.632312255859375,0.07928864077031612,-0.014564751121029257,0.02906930562057532
1772048254850263300,4.64226318359375,0.0673205550789833,-0.009524857257679105,0.0437894299664069
1772048254860215600,4.652215576171875,0.07974865949749946,-0.009075944446399807,0.044059314682660625
1772048254870166300,4.662166259765625,0.10772153905034064,-0.009547288285195826,0.030658821568032724
1772048254880117500,4.672117431640625,0.09409633380174637,-0.01857318304479122,0.03552194322552532
1772048254890069200,4.6820693359375,0.06745324154794216,-0.008760667952150105,0.047660015188902616
1772048254900020500,4.6920205078125,0.08465338267385959,-0.006985328842699527,0.03956165620354004
1772048254909971200,4.70197119140625,0.09572130465507507,-0.0040814240947365755,0.04845910227787681
1772048254919923200,4.711923095703125,0.07881576256155967,-0.018050547410175203,0.04264683580254204
1772048254929874400,4.72187451171875,0.06549158608615398,-0.022720950374007225,0.03565979905994609
1772048254939825400,4.731825439453125,0.06472586241066455,-0.024430165444687006,0.0395426501089707
1772048254949777400,4.74177734375,0.06861234845519065,-0.015081249275803565,0.03874120666612871
1772048254959728000,4.75172802734375,0.07354805129170418,-0.014743322558328508,0.039174273454304784
1772048254969679400,4.761679443359375,0.07564063965678215,-0.0066100657895207405,0.040283001881185915
1772048254979631400,4.77163134765625,0.07190379121601581,-0.008437719608098268,0.04582964882343076
1772048254989582300,4.781582275390625,0.08298807981014251,-0.026678748089075086,0.04236503231963142
1772048254999533300,4.791533203125,0.0925607947975397,-0.007566781992465257,0.0322660010363441
1772048255009485300,4.8014853515625,0.06218436123430728,-0.006003989655151963,0.03972961491527967
1772048255019436300,4.811436279296875,0.04903495680391788,-0.008199600003287197,0.04391162244081497
1772048255029387300,4.82138720703125,0.07090542782843112,-0.016645575983077286,0.049950044088531285
1772048255039338200,4.831338134765625,0.0673421823889017,-0.008086787278577685,0.05217874385551549
1772048255049290500,4.84129052734375,0.08023556623160838,-0.023377368456125258,0.05706434220629744
1772048255059241200,4.8512412109375,0.08025017927885054,-0.02179820950590074,0.049245585613604634
1772048255069192400,4.8611923828125,0.10331073687076568,-0.027094708478823303,0.04920862373723648
1772048255079144200,4.871144287109375,0.12307517552673816,-0.008847031061351299,0.04247324193445966
1772048255089095400,4.881095458984375,0.09570493804216385,-0.002390840659290552,0.055410611049365247
1772048255099046100,4.891046142578125,0.07745791821181773,-0.005556903474777937,0.06532250399640761
1772048255108998400,4.900998291015625,0.07912088298797607,-0.01274615739174187,0.0490988706192933
1772048255118949400,4.910949462890625,0.09019991088509559,-0.006127104578167199,0.036974087395751844
1772048255128900400,4.920900390625,0.07629705773890018,-0.007675722259655594,0.038605561055103314
1772048255138852400,4.930852294921875,0.07031739880740642,-0.00789732912108302,0.025947492938768118
1772048255148803300,4.94080322265625,0.08872750024497508,-0.01800780424699187,0.020637796557554974
1772048255158754300,4.95075439453125,0.1045867481559515,-0.008836874993517995,0.027023287210427224
1772048255168706300,4.960706298828125,0.07855214318931102,-0.007785100918263197,0.036429294728254895
1772048255178657300,4.9706572265625,0.05505260965824127,-0.01938537621051073,0.03937409774218686
1772048255188608500,4.9806083984375,0.08752046254277229,-0.018479513411968945,0.038698563967645164
1772048255198560300,4.990560302734375,0.1048825162321329,0.0024178017314523455,0.034162683236831796
1772048255208511200,5.00051123046875,0.06151040749549865,-0.014963321984559297,0.03180599144231528
1772048255218463000,5.010462890625,0.06599369038939476,-0.030315570221468805,0.019952490307670087
1772048255228414700,5.020414794921875,0.0810977360188961,0.01245842649154365,0.03428596255662851
1772048255238366000,5.030365966796875,0.06688800888061523,-0.023815906003862616,0.028336899692798033
1772048255248317000,5.04031689453125,0.07212357144653797,-0.02145575274378061,0.044334597093239426
1772048255258269000,5.05026904296875,0.07780746230185032,-0.0075479311615228644,0.054714125818340106
1772048255268220000,5.060219970703125,0.08529109605550765,-0.006719736709073185,0.024269905982213093
1772048255278171000,5.0701708984375,0.07166647532880306,-0.013821166212111711,0.024595850000949576
1772048255288121900,5.080121826171875,0.08542904322147368,0.0025290070209652185,0.051945492222066965
1772048255298073900,5.090073974609375,0.07869535105228423,-0.013387670165672898,0.06506627334617078
1772048255308024800,5.10002490234375,0.0776473033040762,-0.013175050328299402,0.039390099028917026
1772048255317976000,5.10997607421875,0.07539806307256221,0.0008832856405526399,0.05219958571414463
1772048255327927800,5.119927734375,0.09770400290489197,-0.027708456462994215,0.04505049941078759
1772048255337879000,5.129879150390625,0.0881342105269432,-0.015125526808947324,0.043871308696735646
1772048255347829800,5.139829833984375,0.07602116340696811,-0.004781608253344893,0.04961330468114465
1772048255357781800,5.14978173828125,0.07601999436318874,-0.012792407686263323,0.04205694361799396
1772048255367733000,5.15973291015625,0.0876812060624361,-0.009023556672036647,0.05902393357516266
1772048255377684000,5.16968408203125,0.09515198033452034,-0.008448094871640204,0.051408846328407524
1772048255387636000,5.179635986328125,0.08258359066247939,-0.013111410507559776,0.044126169373793524
1772048255397587000,5.1895869140625,0.08632277719080447,-0.01533639308065176,0.037413035935442894
1772048255407538000,5.199537841796875,0.09528408228158951,-0.019111381574720143,0.039944289712421595
1772048255417489700,5.20948974609375,0.06744155111014842,-0.026125790381431577,0.02758281165617518
1772048255427441000,5.21944091796875,0.06998012967705726,-0.02959419714435935,0.04698360463152639
1772048255437392000,5.229391845703125,0.06637713674902916,-0.009964417718723416,0.03979609514707699
1772048255447343900,5.23934375,0.07040683065652847,-0.015519129236415028,0.03139308152617887
1772048255457294800,5.249294921875,0.07983283064961433,-0.02058905291184783,0.033652550890762356
1772048255467245800,5.259245849609375,0.07848726125955581,-0.017790873560681937,0.034812936439644546
1772048255477197800,5.26919775390625,0.07472703194320202,-0.013985709124058485,0.027902599928760898
1772048255487149000,5.279149169921875,0.0906833104878664,-0.023684242448210716,0.010524727615760638
1772048255497099800,5.289099853515625,0.1875742434442043,-0.002938902996107936,0.005352229481842368
1772048255507052000,5.299052001953125,0.14609949276149273,-0.0002466682374477386,0.02911333655854687
1772048255517002800,5.309002685546875,-0.03838730606138706,-0.05724924291968345,0.07076232956331223
1772048255526954000,5.3189541015625,-0.08220540499985217,-0.046619785420969125,0.0851129721427802
1772048255536904700,5.32890478515625,0.03275368408858776,-0.010569763200730085,0.04790794380167499
1772048255546857000,5.33885693359375,0.1340881524503231,-0.026312910451367497,0.01694666868834756
1772048255556808000,5.348807861328125,0.0904085851997137,0.00968501625545323,0.027546991424122824
1772048255566759000,5.358759033203125,0.04177461041212081,0.01125299622453749,0.06754190621208399
1772048255576711000,5.3687109375,0.11194295613765716,-0.010282909083366393,0.0632740196345374
1772048255586662000,5.378661865234375,0.17147475703656673,-0.008784925610572099,0.05193839576099999
1772048255596612900,5.38861279296875,0.11878478485643863,0.013584800172969699,0.062329879785375665
1772048255606565000,5.398565185546875,0.033629297879338264,-0.013031696334853767,0.049346899696765464
1772048255616515800,5.408515869140625,0.0596434445798397,-0.005499985655769706,0.032412195440847426
1772048255626467000,5.418467041015625,0.11603051771223545,0.0006342793155461549,0.03349874856853857
1772048255636418800,5.428418701171875,0.10927636727690695,-0.007535656201839446,0.040758391707437114
1772048255646370000,5.4383701171875,0.05853109942376613,-0.0011119798298925162,0.05293410140061751
1772048255656320800,5.44832080078125,0.0681008918017149,0.000771349698677659,0.047045436087669805
1772048255666272800,5.458272705078125,0.10101356584429741,-0.004009162576124072,0.037227413702849294
1772048255676224000,5.46822412109375,0.08484978202879428,-0.00930778044089675,0.02908796465527266
1772048255686175000,5.478175048828125,0.028128946897387503,-0.010096884991973637,0.039503487142361696
1772048255696127000,5.488126953125,0.021404022556543348,-0.021954276850447058,0.037813862688140944
1772048255706077700,5.49807763671875,0.0935240868717432,-0.016052432395517825,0.02441888599884696
1772048255716029000,5.50802880859375,0.11806816101968287,-0.00412350967079401,0.032572089577140285
1772048255725980000,5.51797998046875,0.08619827402830123,-0.0037301264390349385,0.035336330126086245
1772048255735932000,5.527931884765625,0.06629471916258335,0.0027049481097608805,0.03665895703197457
1772048255745883000,5.5378828125,0.0668938540995121,-0.009710589088127016,0.03570740106133744
1772048255755833900,5.547833740234375,0.08231471059322357,-0.02159925286769867,0.023583165827067567
1772048255765785900,5.557785888671875,0.07783084317743778,-0.020924787672236562,0.028361486144782972
1772048255775736800,5.56773681640625,0.05195464364290237,-0.0210641230776906,0.04738326234044507
1772048255785687800,5.577687744140625,0.06768354317247867,-0.018767244312167166,0.05527598835164681
1772048255795640000,5.58764013671875,0.10749532907903193,-0.02188084628805518,0.050895343848317856
1772048255805590800,5.5975908203125,0.09971592724919319,-0.01530183322392404,0.053799577389843756
1772048255815542000,5.6075419921875,0.08565408414900302,-0.01592588340640068,0.056144049023604016
1772048255825493800,5.61749365234375,0.094486794424057,-0.019867095312848686,0.04547474357169121
1772048255835445000,5.627445068359375,0.090133859911561,-0.013671017151698469,0.04272314330860972
1772048255845395700,5.637395751953125,0.08160100936591624,-0.005369637274369597,0.044295543724484736
1772048255855348000,5.647347900390625,0.06828034002184867,-0.016264833037182687,0.04630388787221163
1772048255865299000,5.657298828125,0.08563304136097431,-0.01979286103285849,0.04356880035251379
1772048255875250000,5.66725,0.09431552951037883,-0.014587766670435666,0.04077987288688309
1772048255885202000,5.677201904296875,0.0943038390725851,-0.009902896789833903,0.03616188509687781
1772048255895153000,5.68715283203125,0.066754153367877,0.00005750234089791774,0.04443676969292573
1772048255905104000,5.697103759765625,0.06629822629392147,-0.0037441549643874167,0.04020222826255485
1772048255915055900,5.707055908203125,0.09757482356727122,-0.003495513965561986,0.03981421532565728
1772048255925006800,5.7170068359375,0.09771393977701663,-0.009307707375660538,0.040046425779489796
1772048255934958000,5.7269580078125,0.06687748748660087,-0.01317052028365433,0.0432909241260495
1772048255944908800,5.73690869140625,0.0670113429993391,-0.008150719360262156,0.048709469442907716
1772048255954860800,5.74686083984375,0.0804658678561449,-0.015176307148113846,0.04892726777889766
1772048255964811800,5.756811767578125,0.07268354341685772,-0.012016016486287116,0.037838394341198726
1772048255974763000,5.766762939453125,0.07102759290337562,-0.003893134981021285,0.02745955973584205
1772048255984715000,5.776715087890625,0.06488426784276961,-0.006324526846408844,0.03721736723287031
1772048255994666000,5.786666015625,0.07297755792737007,-0.018171543441340327,0.03281560687627643
1772048256004617000,5.796616943359375,0.08136077086925506,-0.010303878806158899,0.04215028445725329
1772048256014568700,5.806568603515625,0.08166764486134052,-0.0008319207794964313,0.041492067143693565
1772048256024520000,5.81652001953125,0.05848258410692215,-0.016210618631914257,0.043326296833530065
1772048256034471000,5.826470947265625,0.07733926026821136,-0.006937909504398703,0.04258973532044329
1772048256044423000,5.8364228515625,0.0929009865373373,-0.018592837593331933,0.03582014985396526
1772048256054374000,5.846373779296875,0.07719079170823097,-0.01593114410340786,0.048548862920561806
1772048256064324900,5.856324951171875,0.07538461906909942,-0.0040939913153648375,0.04315936103509739
1772048256074276900,5.86627685546875,0.08494798170626162,-0.00987337843440473,0.04596954135131091
1772048256084227800,5.876227783203125,0.07642039185762405,-0.01915931236967444,0.04872482227566652
1772048256094178800,5.8861787109375,0.0825660550057888,-0.016628624848276374,0.046920366669585926
1772048256104131000,5.896131103515625,0.08839958346486092,-0.020916312104836104,0.033261889339052136
1772048256114081800,5.906081787109375,0.07358312260508537,0.0014348551087081433,0.041054424645099785
1772048256124033000,5.916032958984375,0.07642799064218997,-0.0017158640071749686,0.04395527891945094
1772048256133983700,5.925983642578125,0.08241524835824966,-0.003986658483371138,0.03902238909453153
1772048256143936000,5.93593603515625,0.07433949393033981,-0.0011873831536620854,0.0376863090520259
1772048256153886700,5.94588671875,0.08631517840623855,-0.00843077841065824,0.042121935145603494
1772048256163838000,5.955837890625,0.08152735960781574,-0.013697174506261943,0.03998360794265754
1772048256173790000,5.9657900390625,0.08347498654425144,-0.010159648029878735,0.04517229002639651
1772048256183741000,5.975740966796875,0.07089958260953426,-0.013800634880736469,0.03808076999601908
1772048256193692000,5.98569189453125,0.080322075471282,-0.014165449605137109,0.03713244716208428
1772048256203644000,5.995643798828125,0.07866787852346897,-0.0035535277631133792,0.04317294203587808
1772048256213594000,6.005593994140625,0.07956921127736567,-0.014060454860702155,0.042193201150372624
1772048256223545300,6.01554541015625,0.0874982507109642,-0.015528919978067279,0.04039221614301204
1772048256233497000,6.0254970703125,0.07194003157317638,-0.0075306147005409,0.03973801741744391
1772048256243448300,6.0354482421875,0.07224515199959278,-0.011067118263617157,0.0411343488803599
1772048256253399300,6.0453994140625,0.07807984950244426,-0.01674545616097748,0.04281014573862776
1772048256263351300,6.055351318359375,0.081359017303586,-0.011721855845302344,0.036316701199254016
1772048256273302300,6.06530224609375,0.07177168926894664,-0.009468962351977825,0.043490620549768204
1772048256283253200,6.075253173828125,0.075059040376544,-0.01870280077382922,0.04154848263920285
1772048256293205200,6.085205322265625,0.08702887963354587,-0.007463102422282099,0.03944236807227135
1772048256303156500,6.095156494140625,0.07281330727636813,-0.007001257064193487,0.03713501357850618
1772048256313107200,6.105107177734375,0.07819675388038158,-0.013539499726518987,0.036444327900605276
1772048256323059200,6.11505908203125,0.08043722628355025,-0.006891293883696198,0.040150635072635485
1772048256333010200,6.12501025390625,0.0757996296107769,-0.013936170893907546,0.04014781292788684
1772048256342961400,6.13496142578125,0.08103343861103057,-0.012096022919937967,0.040901964896591377
1772048256352912100,6.144912109375,0.07803776392638682,-0.00473155856654048,0.040693071386264636
1772048256362864000,6.154864013671875,0.07908639619648457,-0.0052251873023808,0.04440435612751171
1772048256372815400,6.1648154296875,0.08402677520811558,-0.0094640669811517,0.047305292600253596
1772048256382766300,6.174766357421875,0.08133622094988822,-0.005741758522391319,0.05185491872862912
1772048256392718300,6.18471826171875,0.0793850868821144,-0.014603037304803728,0.04542461168649606
1772048256402669300,6.19466943359375,0.07534487158060073,-0.009813684136420487,0.04494730389779433
1772048256412620300,6.204620361328125,0.07968202400207519,-0.0055724663700908415,0.04874062263299711
1772048256422572300,6.214572265625,0.06725742671489715,-0.0060796852398663755,0.04687026218385435
1772048256432523300,6.224523193359375,0.07324117729961872,-0.014566504686698317,0.04977224896936677
1772048256442474200,6.23447412109375,0.09240122032165526,-0.006858049201220274,0.037392047946341336
1772048256452426200,6.24442626953125,0.0759346541672945,-0.005557853322848677,0.03571782199065201
1772048256462377200,6.254377197265625,0.06680500677227974,-0.005076426481455564,0.04675981494616717
1772048256472328200,6.264328125,0.08955167610943317,-0.015596066930145024,0.04339961779806763
1772048256482280200,6.2742802734375,0.08595920457541942,-0.014966682985424995,0.03837492150384932
1772048256492231400,6.2842314453125,0.06276654503643513,-0.016936740949377416,0.040656885828031224
1772048256502182100,6.29418212890625,0.07653495814800262,-0.01130005023665726,0.0424421344101429
1772048256512134400,6.304134521484375,0.09419745608866215,-0.00887633022107184,0.03591717135449871
1772048256522085000,6.314085205078125,0.07744155159890652,-0.004432064163312315,0.04003454354545101
1772048256532036400,6.324036376953125,0.06800795282125473,-0.01572992244288325,0.03746155125228688
1772048256541987000,6.333987060546875,0.07907295219302177,-0.00871931302845478,0.0358011711588595
1772048256551939300,6.343939208984375,0.07996610164046287,-0.01088810843490064,0.03832255199579522
1772048256561890300,6.353890380859375,0.07922258979678154,-0.010178937252238392,0.0393686361157801
1772048256571841300,6.36384130859375,0.07861760964095592,-0.005745265653729438,0.04459591491054743
1772048256581793300,6.373793212890625,0.07637538367211819,-0.007561521295458078,0.040785252314899115
1772048256591744300,6.383744140625,0.08400631694197654,-0.0050205315757542845,0.04042810944030061
1772048256601695200,6.3936953125,0.0769715959995985,-0.015933336060494182,0.03808439585836604
1772048256611647500,6.4036474609375,0.06828618524074553,0.0014038754485547543,0.037467688732128586
1772048256621598200,6.41359814453125,0.07006430082917213,-0.006221358732879162,0.029469072927348315
1772048256631549400,6.423549560546875,0.08083002499341964,-0.003243000509217381,0.04048593144160695
1772048256641501200,6.433501220703125,0.07843523881137371,-0.0042846185166388745,0.04575032737636939
1772048256651452400,6.443452392578125,0.08367021685540675,-0.011439824033528567,0.04336342310667969
1772048256661403100,6.453403076171875,0.07170154664218426,-0.0032489187933504578,0.04564922335576266
1772048256671355100,6.463355224609375,0.07155424712598324,-0.006866743964329362,0.03872711420869455
1772048256681306400,6.473306396484375,0.08113222281038761,-0.004949292970448732,0.0351916883578524
1772048256691257300,6.48325732421875,0.07978840698599815,-0.009632409285381435,0.04488843158371746
1772048256701209300,6.493209228515625,0.07738777558505534,-0.005061594238504767,0.046609620219981295
1772048256711160000,6.50316015625,0.08411386896967887,-0.008079846081137657,0.04072479996508918
1772048256721111300,6.513111328125,0.08141279331743717,-0.014835603951662777,0.0420374443330802
1772048256731062300,6.523062255859375,0.06704290718138217,-0.01386376324482262,0.0421592623481527
1772048256741014300,6.53301416015625,0.05820552073121071,-0.0017719781085848807,0.03578961771838367
1772048256750965200,6.54296533203125,0.07376315534710884,-0.005312938651069999,0.03962161536300555
1772048256760916200,6.552916259765625,0.07660743886232375,0.0005098492182791232,0.03975706917778589
1772048256770868200,6.5628681640625,0.0861953514188528,-0.01339417297169566,0.04095555824735202
1772048256780819200,6.572819091796875,0.08634498902261256,-0.002777867215499282,0.025416600932460277
1772048256790770200,6.582770263671875,0.07317571084797382,-0.009329334685578942,0.0393951496633701
1772048256800722400,6.592722412109375,0.07182721884846686,-0.011666253200545906,0.04241452488400973
1772048256810673200,6.602673095703125,0.08843991547524929,-0.0033251258347183465,0.03967624076022766
1772048256820624400,6.612624267578125,0.08200199138224125,-0.0006059300038963556,0.04368238026220351
1772048256830576000,6.622576171875,0.0667366177111864,-0.010282689887657761,0.035712342097936195
1772048256840527400,6.63252734375,0.07689853076338768,-0.006937398047745227,0.0252105021674186
1772048256850478000,6.64247802734375,0.09396130924522876,-0.006843290023505687,0.03803881228412501
1772048256860430300,6.652430419921875,0.07090893495976924,-0.009536401565000414,0.03896685951501131
1772048256870381300,6.66238134765625,0.07313479431569576,-0.008959113133698701,0.04229168395563029
1772048256880332300,6.672332275390625,0.07732406269907952,-0.013910305800288915,0.0364011189465411
1772048256890284300,6.6822841796875,0.0933452231734991,-0.014357611176371573,0.03535789350392297
1772048256900235300,6.6922353515625,0.09079787677824497,-0.0011010931096971034,0.04280969821405597
1772048256910186200,6.702186279296875,0.08031447668671607,0.003517287405952811,0.05027712061842903
1772048256920137200,6.71213720703125,0.07866963208913802,-0.0024716508105397223,0.04362411073632538
1772048256930089200,6.722089111328125,0.08645429461598396,-0.008479293727502226,0.04151880902014673
1772048256940040400,6.73204052734375,0.08151625369191169,-0.005634791016578674,0.043468837976222856
1772048256949991200,6.7419912109375,0.06401800640225411,-0.005753448960185051,0.04023529028194025
1772048256959943200,6.751943115234375,0.07972294053435325,-0.006853226895630359,0.03410717192362062
1772048256969894100,6.76189404296875,0.08271043191254139,-0.000631356706097722,0.03858189705172554
1772048256979845400,6.771845458984375,0.0692465547055006,0.0012844868525862692,0.038008051819680255
1772048256989797400,6.78179736328125,0.07562485756576061,-0.013439911809563635,0.033203866408346216
1772048256999748400,6.791748291015625,0.20307927109003066,0.031465909300372005,0.02217566451616585
1772048257009699300,6.80169921875,0.27400281909704205,-0.02172813994437456,-0.05121945210299454
1772048257019651000,6.811651123046875,-0.22446400442421435,-0.04070953846387565,0.09061598087269812
1772048257029602300,6.821602294921875,0.016893267133831977,0.002527180390059948,0.09303813911885954
1772048257039553300,6.83155322265625,0.12677812169790267,-0.018831980111449955,0.03071803180882707
1772048257049505300,6.84150537109375,-0.05016834474802017,-0.012415756393596529,0.04561527542038821
1772048257059456300,6.851456298828125,0.0752805741727352,-0.015179741214215755,0.04394294002768583
1772048257069407200,6.8614072265625,0.0983908161252737,-0.027072496647015214,0.0774055395706091
1772048257079358500,6.8713583984375,0.0945394013941288,-0.018102935184538364,0.0827539331275504
1772048257089310200,6.881310302734375,0.1865337944805622,0.025514161289110777,-0.013215446270769461
