time,seconds_elapsed,z,y,x
1772048250292563500,0.0845634765625,0.0005966047756373882,-0.001988708972930908,-0.0005708471871912479
1772048250302514400,0.094514404296875,-0.00041451514698565006,-0.0012556794099509716,0.0008766790851950645
1772048250312465400,0.10446533203125,0.0004904270172119141,0.00003249151632189751,-0.0015204320661723614
1772048250322417400,0.11441748046875,0.000044469255954027176,0.0020566838793456554,0.0010730917565524578
1772048250332368400,0.124368408203125,-0.0016098865307867527,0.0011706503573805094,0.0003694850020110607
1772048250342319600,0.134319580078125,0.0008086818270385265,-0.002652030438184738,-0.0016438867896795273
1772048250352271400,0.144271240234375,-0.002480322029441595,-0.0035391291603446007,-0.0029072905890643597
1772048250362222300,0.154222412109375,0.00011991988867521286,-0.00013129948638379574,-0.000745630357414484
1772048250372173300,0.16417333984375,0.00002298085018992424,0.0013483526417985559,-0.0033432780764997005
1772048250382125300,0.174125244140625,0.00019898591563105583,-0.0004095518961548805,-0.0009895218536257744
1772048250392076500,0.18407666015625,-0.001591990003362298,-0.003291092347353697,-0.0035624015145003796
1772048250402027300,0.19402734375,0.001669540535658598,-0.0014342390932142735,-0.0035362769849598408
1772048250411978500,0.203978515625,0.0013238624669611454,0.0011218630243092775,-0.0019405107013881207
1772048250421930200,0.21393017578125,-0.002452162094414234,-0.0018491833470761776,-0.0012827892787754536
1772048250431881500,0.223881591796875,0.0007966281846165657,-0.0017021768726408482,-0.00576169416308403
1772048250441832200,0.233832275390625,-0.002376045100390911,-0.0015588914975523949,-0.0032739383168518543
1772048250451784400,0.243784423828125,0.0006256038323044777,-0.00294293649494648,-0.004978893790394068
1772048250461735400,0.2537353515625,-0.00005606655031442642,-0.001629907637834549,-0.005748167634010315
1772048250471686400,0.263686279296875,-0.0015831231139600277,-0.0024988967925310135,-0.007078416645526886
1772048250481638400,0.273638427734375,-0.0012527105864137411,-0.005139879882335663,-0.001729695126414299
1772048250491589400,0.28358935546875,-0.0007035667076706886,-0.0016394215635955334,-0.003291372675448656
1772048250501540400,0.293540283203125,-0.0023654401302337646,-0.003170013427734375,-0.0023827310651540756
1772048250511492600,0.30349267578125,-0.003877849318087101,-0.004538079258054495,-0.0010969568975269794
1772048250521443300,0.313443359375,-0.0003934719134122133,0.0015335637144744396,-0.000656413845717907
1772048250531394600,0.32339453125,-0.0016576745547354221,-0.0075139934197068214,-0.0009562857449054718
1772048250541346300,0.33334619140625,-0.0007212944328784943,-0.0012112348340451717,-0.0027335751801729202
1772048250551297500,0.343297607421875,0.00021134456619620323,-0.0056392727419734,0.0009282715618610382
1772048250561248300,0.353248291015625,-0.0018688659183681011,0.0004147118888795376,0.0018463598098605871
1772048250571200300,0.3632001953125,0.0008896361105144024,-0.0030772248283028603,-0.0013398462906479836
1772048250581151500,0.3731513671875,-0.0019127433188259602,-0.004647436551749706,-0.002174447290599346
1772048250591102500,0.3831025390625,-0.0008253746200352907,-0.0010164822451770306,0.000029851216822862625
1772048250601054500,0.393054443359375,0.0014951038174331188,-0.0010335305705666542,0.00034658610820770264
1772048250611005200,0.403005126953125,-0.001495626289397478,0.0008791517466306686,-0.0010971138253808022
1772048250620956400,0.412956298828125,-0.00010227877646684647,-0.0006880946457386017,-0.0014458280056715012
1772048250630908400,0.422908447265625,0.00010544806718826294,-0.0030806786380708218,-0.0015851114876568317
1772048250640859400,0.432859375,-0.000611158087849617,-0.0019818823784589767,-0.0014379983767867088
1772048250650810400,0.442810302734375,0.0015020603314042091,0.0006056451238691807,-0.0008560977876186371
1772048250660762400,0.452762451171875,-4.936009645462036e-7,-0.002942602150142193,-0.0015565133653581142
1772048250670713300,0.46271337890625,0.0012727640569210052,-0.0025247521698474884,-0.0016521206125617027
1772048250680664300,0.472664306640625,-0.0013915076851844788,-0.004742441698908806,-0.0021911938674747944
1772048250690615300,0.482615234375,-0.0002567349001765251,-0.002053447999060154,-0.0010974332690238953
1772048250700567600,0.492567626953125,-0.0016901949420571327,-0.0019376007840037346,-0.0019119088537991047
1772048250710518300,0.502518310546875,0.001103727612644434,-0.0007921750657260418,-0.0019513238221406937
1772048250720469500,0.512469482421875,-0.0010198689997196198,0.00020089372992515564,-0.002337027806788683
1772048250730421200,0.522421142578125,-0.00020254496484994888,-0.004557376261800528,-0.0017543281428515911
1772048250740372500,0.53237255859375,-0.0010167162399739027,-0.0022826441563665867,-0.00004671374335885048
1772048250750323200,0.5423232421875,-0.0005003293044865131,-0.0019393623806536198,0.003437499748542905
1772048250760275500,0.552275390625,-0.0028289046604186296,-0.0007071942090988159,-0.00015664566308259964
1772048250770226400,0.562226318359375,-0.0007055662572383881,-0.002806297969073057,-0.0011534667573869228
1772048250780177400,0.572177490234375,0.001685161143541336,-0.004402201157063246,-0.0013039419427514076
1772048250790129400,0.58212939453125,0.002511539962142706,-0.0006745746359229088,0.00006811879575252533
1772048250800080400,0.592080322265625,-0.0002697200980037451,-0.0011222856119275093,-0.00025302451103925705
1772048250810031400,0.60203125,0.0013002133928239346,0.005488212686032057,0.0016852240078151226
1772048250819983400,0.6119833984375,-0.002190831582993269,0.00010002474300563335,-0.001708997879177332
1772048250829934300,0.621934326171875,-0.0008960026316344738,-0.0012043914757668972,-0.0014072614721953869
1772048250839885600,0.631885498046875,-0.0017033282201737165,-0.0035607609897851944,-0.0018273061141371727
1772048250849837300,0.64183740234375,-0.0024551386013627052,-0.0064987605437636375,-0.0028997608460485935
1772048250859788500,0.65178857421875,-0.00043798284605145454,-0.0036617557052522898,-0.002297313418239355
1772048250869739300,0.6617392578125,-0.001129872165620327,-0.003634591354057193,-0.0037484699860215187
1772048250879691300,0.671691162109375,0.0005033528432250023,-0.0030133125837892294,0.0010657026432454586
1772048250889642500,0.681642578125,-0.0012082606554031372,0.00013241334818303585,0.00013146549463272095
1772048250899593500,0.691593505859375,-0.0006517663132399321,-0.005385993979871273,-0.00147967878729105
1772048250909544400,0.70154443359375,0.0014846217818558216,-0.008572465740144253,-0.004479463677853346
1772048250919496200,0.71149609375,-0.0012463917955756187,-0.0007290712092071772,-0.00012669339776039124
1772048250929447400,0.721447509765625,0.001433014404028654,0.004004697315394878,-0.0010433532297611237
1772048250939399400,0.7313994140625,-0.0016882638446986675,-0.0010679061524569988,-0.00047305645421147346
1772048250949350400,0.741350341796875,0.001585293561220169,-0.005928974132984877,-0.002741537056863308
1772048250959301400,0.75130126953125,0.0005320152267813683,0.001119879074394703,-0.0023729936219751835
1772048250969252400,0.76125244140625,-0.0020318098831921816,0.003554008202627301,0.0011943108402192593
1772048250979204400,0.771204345703125,-0.000986762810498476,0.0015450739301741123,-0.001459081657230854
1772048250989155300,0.7811552734375,-0.0017212624661624432,0.0003455863334238529,-0.0012747910805046558
1772048250999106300,0.791106201171875,-0.0007502352818846703,-0.003060166025534272,-0.0028420300222933292
1772048251009058600,0.80105859375,-0.002168901264667511,0.0001859606709331274,-0.00035144202411174774
1772048251019009300,0.81100927734375,-0.0007276402320712805,-0.0033569445367902517,0.0013678304385393858
1772048251028960500,0.82096044921875,-0.000449339859187603,-0.0014969927724450827,0.0005305325612425804
1772048251038912300,0.830912353515625,0.0012589646503329277,-0.0017932674381881952,0.0016346874181181192
1772048251048863500,0.840863525390625,-0.0004135004710406065,0.001548733445815742,-0.00023298757150769234
1772048251058814200,0.850814208984375,-0.002484207507222891,0.0009967756923288107,-0.0005279742181301117
1772048251068766500,0.860766357421875,-0.0008349120616912842,-0.0034810632932931185,-0.0005130604840815067
1772048251078717400,0.870717529296875,0.0007597180083394051,-0.0018147756345570087,-0.0014243284240365028
1772048251088668400,0.88066845703125,-0.0011353874579071999,0.0014976642560213804,0.002071336843073368
1772048251098620400,0.890620361328125,0.0006055317353457212,0.0024610788095742464,0.0016806244384497404
1772048251108571400,0.9005712890625,0.0014755863230675459,0.0014826334081590176,-0.0011124988086521626
1772048251118522400,0.9105224609375,-0.0017600639257580042,-0.0027599260210990906,0.0005809017457067966
1772048251128474400,0.920474365234375,0.0005829851143062115,-0.001077873632311821,0.00038036564365029335
1772048251138425300,0.93042529296875,-0.0005300801713019609,-0.00009732739999890327,-0.0016700942069292068
1772048251148376600,0.94037646484375,0.000905896071344614,-0.0033077681437134743,-0.0026461430825293064
1772048251158327300,0.950327392578125,0.0007074293680489063,-0.0016916196327656507,-0.00023201527073979378
1772048251168279300,0.960279296875,0.002688288688659668,0.0013467809185385704,-0.001030697487294674
1772048251178230300,0.970230224609375,-0.0003332155756652355,0.0007432915735989809,-0.0024408535100519657
1772048251188182300,0.980182373046875,-0.0006826224271208048,-0.0018474315293133259,-0.0017276587896049023
1772048251198133500,0.990133544921875,-0.000980370445176959,0.0008317651227116585,-0.000899516511708498
1772048251208081200,1.0000810546875,0.0016388485673815012,0.002036313060671091,-0.0007735490798950195
1772048251218032400,1.010032470703125,-0.0015601457562297583,-0.00025779101997613907,-0.0016266563907265663
1772048251227984100,1.019984130859375,-0.0006437520496547222,-0.0008095982484519482,-0.001450355164706707
1772048251237935400,1.029935302734375,0.0034277192316949368,0.0005875572096556425,-0.0023530693724751472
1772048251247886000,1.039885986328125,-0.00018965243361890316,0.003548725973814726,0.0020272978581488132
1772048251257838300,1.04983837890625,0.000014511635527014732,0.0034626242704689503,0.0023879744112491608
1772048251267789300,1.059789306640625,0.0008004102855920792,0.0027433044742792845,-0.000616603996604681
1772048251277740300,1.069740234375,-0.000741306459531188,-0.0016144970431923866,-0.0003730887547135353
1772048251287692300,1.0796923828125,0.0017367652617394924,-0.0020075798965990543,-0.002483909949660301
1772048251297643300,1.089643310546875,0.0013176752254366875,-0.0030970871448516846,-0.0006533139385282993
1772048251307594200,1.09959423828125,0.0004047434777021408,0.002290221629664302,-0.00031642382964491844
1772048251317546200,1.109546142578125,0.0038009232375770807,0.0028472822159528732,-0.001471413765102625
1772048251327497200,1.119497314453125,0.0017231248784810305,-0.0004121602978557348,-0.00042239483445882797
1772048251337448400,1.129448486328125,0.0014620772562921047,0.0017190948128700256,0.0004360196180641651
1772048251347400200,1.139400146484375,0.000584831926971674,0.0016858053859323263,0.001287166029214859
1772048251357351400,1.149351318359375,0.0018421870190650225,0.002973604714497924,-0.00037712370976805687
1772048251367302100,1.15930224609375,-0.000005514128133654594,0.001206863671541214,0.0003773495554924011
1772048251377254100,1.169254150390625,-0.0012089870870113373,-0.00403749430552125,-0.000024352222681045532
1772048251387205400,1.179205322265625,-0.0016164507251232862,-0.0018739420920610428,-0.0016725827008485794
1772048251397156400,1.18915625,-0.002181527204811573,0.0014224844053387642,0.0004160190001130104
1772048251407108400,1.1991083984375,0.0013801846653223038,0.0012951851822435856,0.0021814287174493074
1772048251417059000,1.20905908203125,0.002530524041503668,-0.0013846189249306917,-0.00018185609951615334
1772048251427010300,1.21901025390625,0.0012756423093378544,-0.006336234509944916,-0.0022969390265643597
1772048251436961300,1.228961181640625,0.002713429043069482,0.0031252314802259207,0.0008172644302248955
1772048251446913300,1.238913330078125,0.0019757335539907217,0.0025736908428370953,0.0015187407843768597
1772048251456864300,1.2488642578125,-0.0004670203197747469,0.0027069547213613987,-0.00007397215813398361
1772048251466815200,1.258815185546875,0.0015758904628455639,0.0001274168025702238,-0.0006215181201696396
1772048251476767200,1.268767333984375,-0.000058088451623916626,-0.000399942509829998,-0.00021131942048668861
1772048251486718200,1.27871826171875,-0.00017153914086520672,0.001569465035572648,-0.004998618271201849
1772048251496669200,1.288669189453125,-0.0018559126183390617,-0.0038774674758315086,0.0021278955973684788
1772048251506621400,1.298621337890625,0.002252546139061451,-0.001646537333726883,-0.0007824068889021873
1772048251516572200,1.308572265625,-0.0001384480856359005,-0.004921231418848038,0.0008607185445725918
1772048251526523400,1.3185234375,-0.0006590960547327995,-0.004658644087612629,-0.0014378558844327927
1772048251536475100,1.32847509765625,0.0005311749409884214,-0.0013128581922501326,-0.00044661015272140503
1772048251546426400,1.33842626953125,-0.0003021282609552145,0.0026416699402034283,-0.0010985517874360085
1772048251556377000,1.348377197265625,0.0027676799800246954,0.0016338687855750322,-0.0006036628037691116
1772048251566329300,1.358329345703125,-0.0014550283085554838,0.002606987953186035,-0.001827917993068695
1772048251576280300,1.3682802734375,-0.0003784508444368839,0.0006547882221639156,-0.0017213081009685993
1772048251586231300,1.378231201171875,-0.001589390216395259,0.0007501295767724514,0.0002339845523238182
1772048251596183300,1.388183349609375,-0.0004306246992200613,-0.004101645201444626,-0.0009060041047632694
1772048251606134300,1.39813427734375,0.0005462230183184147,-0.0021514117252081633,0.00027404259890317917
1772048251616085200,1.408085205078125,-0.0017332092393189669,-0.0007025313097983599,-0.0026997835375368595
1772048251626037200,1.418037353515625,0.00048227421939373016,0.000620260601863265,-0.0005729831755161285
1772048251635988200,1.42798828125,-0.0029196764808148146,0.0027765012346208096,0.0010103462263941765
1772048251645939500,1.437939453125,-0.000024021370336413383,0.004196232184767723,-0.0021665384992957115
1772048251655890200,1.44789013671875,-0.001534388167783618,-0.000497420085594058,0.0007394766435027122
1772048251665842200,1.45784228515625,-0.0006163965445011854,-0.0017871891614049673,-0.0007202019914984703
1772048251675793200,1.467793212890625,0.0011076144874095917,-0.0016253511421382427,0.0003593261353671551
1772048251685744400,1.477744384765625,-0.0005249031819403172,-0.0005576894618570805,0.0002780999056994915
1772048251695696400,1.4876962890625,0.0019606617279350758,-0.00034122331999242306,-0.000550959724932909
1772048251705647000,1.497647216796875,0.0014309589751064777,-0.0012810530606657267,0.0002535814419388771
1772048251715598300,1.507598388671875,-0.0006381678394973278,0.00254837516695261,0.0012950124219059944
1772048251725550000,1.517550048828125,-0.001010477775707841,0.003133737947791815,-0.000022985972464084625
1772048251735501300,1.527501220703125,0.0005313148722052574,0.0029117483645677567,0.00044930120930075645
1772048251745452300,1.537452392578125,0.0006887074559926987,0.0023671318776905537,0.0007755383849143982
1772048251755404300,1.547404296875,0.001566748134791851,-0.0016416965518146753,0.0007617650553584099
1772048251765355300,1.557355224609375,0.00006312737241387367,-0.003823091508820653,-0.000564222689718008
1772048251775306200,1.56730615234375,0.00008664233610033989,0.0029666400514543056,0.0009011877700686455
1772048251785258200,1.57725830078125,-0.001521374098956585,0.0032681096345186234,0.003232785267755389
1772048251795209200,1.587209228515625,0.0004607662558555603,0.0022018991876393557,0.0032530713360756636
1772048251805160200,1.59716015625,0.0019489405676722527,-0.0004929534625262022,0.001153967808932066
1772048251815112400,1.607112548828125,0.0013168593868613243,0.0005273234564810991,0.002019740641117096
1772048251825063200,1.617063232421875,-0.0004187228623777628,0.0026794238947331905,0.006161488592624664
1772048251835014400,1.627014404296875,-0.0015476662665605545,0.0068269092589616776,0.0028762933798134327
1772048251844966100,1.636966064453125,0.00043479073792696,-0.0011215612757951021,0.0009620129130780697
1772048251854917400,1.64691748046875,-0.001725686015561223,-0.0024038415867835283,0.0006440007127821445
1772048251864868000,1.6568681640625,0.002205139957368374,-0.005367407575249672,0.00017981184646487236
1772048251874820400,1.6668203125,0.0007824222557246685,-0.002058386104181409,0.00034144241362810135
1772048251884771300,1.676771240234375,-0.0027902082074433565,0.00597716961055994,0.008147434331476688
1772048251894722300,1.686722412109375,-0.0019059204496443272,0.001302206888794899,-0.0018541193567216396
1772048251904673300,1.69667333984375,-0.0011477184016257524,0.004417572636157274,-0.009040659293532372
1772048251914625300,1.706625244140625,0.0006993566639721394,-0.0046068597584962845,-0.0009692898020148277
1772048251924576300,1.716576171875,-0.0029571636114269495,0.005716617684811354,-0.004076133016496897
1772048251934527200,1.72652734375,-0.0010545675177127123,0.0022559091448783875,-0.005542172119021416
1772048251944479200,1.736479248046875,0.0007768883369863033,0.001433791359886527,-0.004716858267784119
1772048251954430500,1.746430419921875,-0.0010787444189190865,-0.01932395063340664,-0.01907324232161045
1772048251964381200,1.756381103515625,0.0013274215161800385,-0.02703912928700447,-0.007982240989804268
1772048251974333200,1.766333251953125,-0.0007755870465189219,0.010507497936487198,-0.0024589793756604195
1772048251984284200,1.7762841796875,-0.001272266497835517,0.018435196951031685,0.006373926997184753
1772048251994235400,1.7862353515625,-0.0010976509656757116,0.009153472259640694,0.000603711698204279
1772048252004187400,1.7961875,-0.0007650223560631275,0.0000617064069956541,-0.004768682643771172
1772048252014138000,1.80613818359375,0.0005661435425281525,-0.00014981930144131184,0.0033575522247701883
1772048252024089300,1.81608935546875,0.000391440000385046,0.012672768905758858,0.0038989728782325983
1772048252034041000,1.826041015625,-0.00026825862005352974,0.010629987344145775,0.002845951123163104
1772048252043992300,1.835992431640625,-0.0006980926264077425,-0.00780840776860714,-0.001499794889241457
1772048252053943000,1.845943115234375,0.003220220562070608,-0.018018929287791252,-0.003058641217648983
1772048252063895300,1.855895263671875,-0.0004578712396323681,0.0020394662860780954,-0.00009001558646559715
1772048252073846300,1.86584619140625,-0.0011586975306272507,0.008279737085103989,0.004728920757770538
1772048252083797200,1.87579736328125,-0.0006273968610912561,0.0009661642834544182,0.0023334072902798653
1772048252093749200,1.885749267578125,0.0018099285662174225,-0.009690232574939728,-0.002691790461540222
1772048252103700200,1.8957001953125,-0.0021962644532322884,0.004247154574841261,-0.0006022746674716473
1772048252113651200,1.905651123046875,0.0006941827014088631,0.012778009288012981,0.0031641810201108456
1772048252123602200,1.915602294921875,-0.0018517991993576288,0.007494297809898853,0.003115178784355521
1772048252133554200,1.92555419921875,0.0016341698355972767,-0.005468177609145641,-0.000520436093211174
1772048252143505400,1.93550537109375,-0.0037960156332701445,-0.004832481034100056,-0.0013281726278364658
1772048252153456000,1.9454560546875,0.0003040083684027195,0.0009592401329427958,-0.00029486650601029396
1772048252163408400,1.955408447265625,-0.00030771992169320583,-0.0007704829331487417,0.0017094288486987352
1772048252173359000,1.965359130859375,0.0009784125722944736,-0.006252957507967949,-0.0002266610972583294
1772048252183310300,1.975310302734375,0.0009232852607965469,-0.003712035482749343,0.001313445158302784
1772048252193262300,1.985262451171875,0.0005146218463778496,0.0002925319131463766,0.00017427559942007065
1772048252203213300,1.99521337890625,0.0007694861851632595,0.0027985665947198868,0.003115737112239003
1772048252213167600,2.005167724609375,-0.003921210300177336,-0.0028113850858062506,0.00028019025921821594
1772048252223119600,2.01511962890625,0.0004700757563114166,-0.004131247289478779,-0.0022183875553309917
1772048252233070600,2.025070556640625,-0.0020327677484601736,-0.0019170709419995546,-0.0014839936047792435
1772048252243021600,2.035021484375,0.000586983747780323,0.0016592878382652998,0.00022602220997214317
1772048252252973600,2.0449736328125,0.002947862260043621,-0.0024936452973634005,-0.0012810607440769672
1772048252262924500,2.054924560546875,-0.0037289487663656473,-0.005119522102177143,-0.0013263346627354622
1772048252272875500,2.06487548828125,0.00005251169204711914,0.00019896007142961025,0.0010980982333421707
1772048252282827500,2.07482763671875,0.0008751619607210159,0.0007563596591353416,0.00007677637040615082
1772048252292778500,2.084778564453125,-0.00025111855939030647,0.0034532228019088507,-0.000502915121614933
1772048252302729700,2.094729736328125,0.00030707987025380135,-0.0007716158870607615,-0.0000035725533962249756
1772048252312681700,2.104681640625,-0.001006917329505086,-0.0007218446116894484,-0.0046701994724571705
1772048252322632400,2.114632568359375,-0.0009635079186409712,-0.00030319555662572384,0.0003911377862095833
1772048252332583700,2.124583740234375,-0.0006633060984313488,0.0002722183708101511,-0.00009286776185035706
1772048252342535400,2.134535400390625,0.001117016887292266,-0.0016263492871075869,0.0011409744620323181
1772048252352486700,2.144486572265625,-0.001771680312231183,-0.001554032089188695,-0.00038014305755496025
1772048252362437400,2.154437255859375,0.0018030807841569185,-0.00021126656793057919,-0.0013820240274071693
1772048252372389600,2.1643896484375,-0.00007772794924676418,0.0006815693341195583,0.0009673130698502064
1772048252382340600,2.174340576171875,-0.0008588330820202827,0.001445097615942359,-0.0014620227739214897
1772048252392291600,2.18429150390625,0.0009950981475412846,-0.0021092018578201532,-0.003176008816808462
1772048252402243600,2.19424365234375,-0.0013175909407436848,-0.0006223588716238737,-0.0020729275420308113
1772048252412194600,2.204194580078125,-0.0025479597970843315,-0.0008427479770034552,-0.0014654365368187428
1772048252422145500,2.2141455078125,-0.002249685814604163,-0.0006861540023237467,-0.0008971178904175758
1772048252432096500,2.224096435546875,-0.001703873509541154,-0.00023884396068751812,-0.0008059791289269924
1772048252442048500,2.234048583984375,0.0009510316886007786,-0.0006487041246145964,-0.0012366119772195816
1772048252451999700,2.243999755859375,0.0005715431179851294,0.0004341865424066782,-0.0013622608967125416
1772048252461950500,2.253950439453125,0.000638654688373208,-0.0007735572289675474,-0.0016988846473395824
1772048252471902700,2.26390283203125,-0.0011082848068326712,-0.00040751812048256397,0.0004978771321475506
1772048252481853400,2.273853515625,0.0003330179024487734,-0.00066957320086658,0.00010772421956062317
1772048252491804700,2.2838046875,0.0007498082704842091,-0.0015114957932382822,-0.0008111731149256229
1772048252501756700,2.293756591796875,0.000033684540539979935,-0.001305367099121213,-0.0016138497740030289
1772048252511707600,2.303707763671875,-0.0003806317690759897,0.00023970543406903744,-0.0009015649557113647
1772048252521658600,2.31365869140625,0.0014960980042815208,0.0014735478907823563,-0.0006032907404005527
1772048252531610400,2.3236103515625,-0.0001243839506059885,0.0026298468001186848,0.0008715111762285233
1772048252541561600,2.3335615234375,-0.0008311867713928223,-0.000986459432169795,0.0002171723172068596
1772048252551512600,2.3435126953125,0.0013505835086107254,0.001362248556688428,-0.0015045260079205036
1772048252561464600,2.353464599609375,0.0029287729412317276,0.0006032476667314768,-0.0001031709834933281
1772048252571415600,2.36341552734375,-0.001155143603682518,0.0007621177937835455,0.005313778296113014
1772048252581366500,2.373366455078125,0.003495001932606101,-0.0008056850638240576,-0.0011608987115323544
1772048252591318500,2.383318603515625,-0.0006034825928509235,-0.0007639869581907988,-0.0003716382198035717
1772048252601269500,2.39326953125,0.0007802958134561777,-0.0005157801788300276,-0.00034900102764368057
1772048252611220500,2.403220458984375,0.00036939606070518494,-0.0006282220128923655,0.002225124277174473
1772048252621171700,2.413171630859375,0.00018510548397898674,0.0028695734217762947,-0.0005741245113313198
1772048252631123500,2.42312353515625,0.0024938220158219337,0.00018229871056973934,0.00009538885205984116
1772048252641074700,2.43307470703125,-0.0018359452951699495,-0.0014422296080738306,0.0003073764964938164
1772048252651025400,2.443025390625,-0.0013341018930077553,-0.00216087163425982,0.0005105831660330296
1772048252660977700,2.452977783203125,-0.0006328916642814875,-0.0030647481326013803,-0.0013600210659205914
1772048252670928400,2.462928466796875,0.0017074791248887777,0.0009700856171548367,-0.0004423423670232296
1772048252680879600,2.472879638671875,0.0025796645786613226,0.0006331957411020994,-0.0025036288425326347
1772048252690831600,2.48283154296875,-0.0036841537803411484,-0.0016296650283038616,0.001402469351887703
1772048252700782600,2.492782470703125,0.002772147534415126,-0.000778252724558115,-0.000690508633852005
1772048252710733600,2.502733642578125,0.000037183286622166634,0.0017833767924457788,-0.0016696127131581306
1772048252720685600,2.512685546875,-0.0018499328289180994,0.0017410323489457369,0.0003013927489519119
1772048252730636500,2.522636474609375,0.000292112585157156,-0.00019473000429570675,0.0010109483264386654
1772048252740587800,2.532587890625,-0.00047514401376247406,-0.0020237888675183058,-0.000231150072067976
1772048252750539500,2.54253955078125,0.0013411825057119131,-0.0008826884441077709,0.00026183342561125755
1772048252760490800,2.55249072265625,-0.001712664496153593,-0.0004142383113503456,0.0013894159346818924
1772048252770441500,2.56244140625,0.002229539677500725,-0.001224171370267868,0.000186252873390913
1772048252780393700,2.572393798828125,-0.0006911491509526968,-0.001970388926565647,0.0027399579994380474
1772048252790344400,2.582344482421875,-0.0009946892969310284,-0.000042833853513002396,0.0010496899485588074
1772048252800295700,2.592295654296875,0.00240989588201046,0.002250413876026869,0.0015948389191180468
1772048252810247700,2.60224755859375,-0.001801308011636138,-0.00023164646700024605,0.0009307172149419785
1772048252820198700,2.61219873046875,-0.000036431243643164635,-0.000812215730547905,-0.00030232639983296394
1772048252830149600,2.622149658203125,0.0004289355129003525,0.0020140581764280796,0.0010482221841812134
1772048252840101400,2.632101318359375,-0.0017364805098623037,-0.00030848453752696514,-0.0021667457185685635
1772048252850052600,2.642052490234375,0.00098454300314188,-0.0001604524441063404,0.0014555095694959164
1772048252860003600,2.652003662109375,-0.0006754053756594658,0.0031599767971783876,0.0012621642090380192
1772048252869955600,2.66195556640625,0.0008016522042453289,0.0012230612337589264,0.00031099142506718636
1772048252879906600,2.671906494140625,0.0008602417074143887,0.0006587372627109289,0.0005397568456828594
1772048252889857500,2.681857421875,0.002332293661311269,0.00042955391108989716,0.00024544354528188705
1772048252899809500,2.6918095703125,0.0003793977666646242,0.0012364916037768126,-0.0003729425370693207
1772048252909760500,2.701760498046875,-0.0001552714966237545,0.0015936209820210934,0.0006795641966164112
1772048252919711500,2.71171142578125,-0.0007243889849632978,-0.002464770106598735,-0.0009002229198813438
1772048252929662700,2.721662841796875,0.000053261639550328255,-0.0012617353349924088,0.0013879700563848019
1772048252939614500,2.731614501953125,0.001409076852723956,-0.0003256341442465782,0.0010446887463331223
1772048252949565700,2.741565673828125,-0.00010259519331157207,0.00020108255557715893,-0.004111481364816427
1772048252959516400,2.751516357421875,0.000387958949431777,-0.0024636765010654926,-0.0008975784294307232
1772048252969468700,2.76146875,0.00010644574649631977,-0.00039201555773615837,0.0008519589900970459
1772048252979419600,2.771419677734375,0.0019586740527302027,-0.0005829641595482826,-0.0001733582466840744
1772048252989370600,2.78137060546875,0.0007762713357806206,-0.0022087600082159042,-0.003510662354528904
1772048252999322600,2.791322509765625,-0.0008874053601175547,-0.0012404345907270908,0.0000025792978703975677
1772048253009273600,2.801273681640625,-0.0017457178328186274,0.0007074584718793631,-0.0011829906143248081
1772048253019224600,2.811224609375,0.0013366248458623886,0.0014036085922271013,-0.0015848618932068348
1772048253029176800,2.8211767578125,-0.0013274250086396933,-0.0013416374567896128,-0.0007642805576324463
1772048253039127600,2.83112744140625,0.0007884565275162458,-0.001031379448249936,0.0007457318715751171
1772048253049078800,2.841078857421875,-0.0008170206565409899,0.0012919243890792131,0.0010993247851729393
1772048253059030500,2.851030517578125,0.0015691719017922878,-0.0011288891546428204,-0.0007742089219391346
1772048253068981800,2.860981689453125,0.0006903361063450575,-0.0017702369950711727,0.0024496614933013916
1772048253078932500,2.870932373046875,0.0019774415995925665,-0.0015097795985639095,-0.0009368141181766987
1772048253088884500,2.880884521484375,0.0018643052317202091,0.0013726635370403528,0.0007604118436574936
1772048253098835700,2.890835693359375,0.00038332119584083557,0.001575330039486289,0.0018341985996812582
1772048253108786700,2.90078662109375,0.0009721468668431044,0.00013031833805143833,-0.00025986088439822197
1772048253118738700,2.91073876953125,0.0007811982650309801,-0.0028689338359981775,-0.0009560110047459602
1772048253128689400,2.920689453125,-0.0011436145287007093,0.002976094139739871,0.00300325034186244
1772048253138640600,2.930640625,0.0007043527439236641,0.0004476888570934534,0.0010173311457037926
1772048253148592600,2.940592529296875,0.0013732947409152985,-0.00043419143185019493,0.000011418014764785767
1772048253158543600,2.950543701171875,0.0007157605141401291,-0.000718084629625082,0.0023201124276965857
1772048253168494600,2.96049462890625,0.0009248680435121059,0.0013008920941501856,0.0000073160044848918915
1772048253178445600,2.970445556640625,-0.001067708944901824,0.0004966175183653831,0.0031770102214068174
1772048253188397600,2.9803974609375,0.00022485642693936825,-0.0023567003663629293,0.0006677554920315742
1772048253198348500,2.9903486328125,-0.0004643695428967476,-0.001660283887758851,-0.002996754366904497
1772048253208299500,3.000299560546875,-0.00017119594849646091,0.0015196558088064194,0.0006406833417713642
1772048253218251000,3.0102509765625,0.0017686504870653152,-0.000790636520832777,-0.0008070110343396664
1772048253228202000,3.020201904296875,-0.00007141148671507835,-0.0011939683463424444,-0.0003899349831044674
1772048253238153000,3.030153076171875,0.00026920693926513195,0.0010761104058474302,-0.0009209690615534782
1772048253248105000,3.04010498046875,-0.0026717903092503548,0.0011801556684076786,-0.0008304514922201633
1772048253258056200,3.05005615234375,0.001349582802504301,0.0032624814193695784,0.0005322881042957306
1772048253268007200,3.060007080078125,-0.0005076592788100243,0.000653877155855298,0.0005184328183531761
1772048253277959200,3.069959228515625,0.0008510856423527002,-0.0038037216290831566,0.0016936860047280788
1772048253287910000,3.079909912109375,0.001930520636960864,0.0017903733532875776,0.002782953204587102
1772048253297861000,3.089861083984375,-0.000009326031431555748,0.0019823871552944183,-0.0007675732485949993
1772048253307813000,3.099813232421875,0.0007036293391138315,0.000593466917052865,0.0014172419905662537
1772048253317764000,3.10976416015625,0.0009534338023513556,-0.0011546318419277668,-0.0010752100497484207
1772048253327715000,3.119715087890625,0.0001390613615512848,0.0012486351188272238,-0.0007627098821103573
1772048253337667000,3.1296669921875,0.001990757416933775,-0.0004781584721058607,0.0017350686248391867
1772048253347618000,3.1396181640625,0.0010165995918214321,-0.0007123858667910099,0.0004941597580909729
1772048253357569000,3.149569091796875,0.0017849216237664223,0.001696443185210228,-0.0012291721068322659
1772048253367521000,3.15952099609375,-0.0006167814135551453,0.0005551776848733425,0.00011988403275609016
1772048253377472300,3.16947216796875,0.001591245410963893,0.00013652886264026165,0.0005089719779789448
1772048253387423000,3.179423095703125,-0.000900232931599021,0.00015734112821519375,-0.0006575314328074455
1772048253397375200,3.189375244140625,-0.0020304785575717688,0.002124085556715727,-0.000988295767456293
1772048253407326000,3.199325927734375,0.0015508371870964766,0.0002361629158258438,0.0021341186948120594
1772048253417277200,3.209277099609375,-0.0018886353354901075,-0.00009433552622795105,-0.0014800573699176311
1772048253427229200,3.219229248046875,0.00008976738899946213,-0.0007993960753083229,0.0017738300375640392
1772048253437180200,3.22918017578125,0.0007483670487999916,0.0011689462698996067,0.0008262773044407368
1772048253447131100,3.239131103515625,0.0009171599522233009,0.0012061099987477064,-0.000050527043640613556
1772048253457082000,3.24908203125,0.0005333987064659595,-0.0017886145506054163,0.0005438905209302902
1772048253467034000,3.2590341796875,-0.00039356877095997334,-0.0002641240134835243,0.0009463680908083916
1772048253476985000,3.268985107421875,0.0002836731728166342,0.000198467168956995,-0.003212690819054842
1772048253486936000,3.27893603515625,-0.0009588699322193861,0.001039579976350069,-0.00007649650797247887
1772048253496888000,3.28888818359375,0.0014659380540251732,0.0015825985465198755,-0.0006054001860320568
1772048253506839000,3.298839111328125,0.0006619866471737623,0.003919655457139015,-0.0012807175517082214
1772048253516790300,3.308790283203125,-0.0002837018109858036,0.00015181535854935646,-0.003048257902264595
1772048253526742000,3.318741943359375,0.000013099052011966705,-0.0013494878076016903,0.002531152917072177
1772048253536693000,3.32869287109375,-0.0003759888932108879,0.001406351337209344,0.0009327237494289875
1772048253546644200,3.338644287109375,0.0015063881874084473,-0.00011183507740497589,-0.00441186735406518
1772048253556596000,3.348595947265625,-0.0001173410564661026,-0.0010535288602113724,-0.00037984130904078484
1772048253566547200,3.358547119140625,-0.00007247948087751865,-0.002317513804882765,-0.000983615405857563
1772048253576498000,3.368497802734375,0.0003637464251369238,-0.0014141695573925972,-0.0021708523854613304
1772048253586450200,3.3784501953125,-0.0017704837955534458,-0.003538707038387656,0.0009595663286745548
1772048253596401000,3.38840087890625,0.0003270218148827553,-0.00047127832658588886,-0.00038133515045046806
1772048253606352100,3.39835205078125,-0.0011917904485017061,0.00011097732931375504,0.003063322976231575
1772048253616304000,3.40830419921875,0.0007637685630470514,-0.0016483068466186523,0.003554143477231264
1772048253626255000,3.418255126953125,-0.0010551875457167625,0.0008565802127122879,0.0018635466694831848
1772048253636206000,3.4282060546875,0.00003777374513447285,0.0010501921642571688,0.000745551660656929
1772048253646158000,3.438157958984375,0.00142363877967,-0.0015995374415069818,-0.0006582089699804783
1772048253656109000,3.448109130859375,0.002364533953368664,0.0021866783499717712,-0.00012717489153146744
1772048253666060300,3.458060302734375,-0.0002094777300953865,0.0015376715455204248,-0.001001112163066864
1772048253676012000,3.468011962890625,-0.0018065753392875195,0.0030199869070202112,0.0023917548824101686
1772048253685963300,3.47796337890625,0.0024702774826437235,-0.0018405558075755835,-0.0018100561574101448
1772048253695914000,3.4879140625,0.0005144521128386259,0.0009429799392819405,-0.00023506255820393562
1772048253705866000,3.497865966796875,0.0009086309000849724,0.001511130016297102,0.0008222619071602821
1772048253715817200,3.507817138671875,0.0005704094655811787,0.0020307127851992846,0.0010156072676181793
1772048253725768200,3.517768310546875,-0.0005300301127135754,-0.003637520130723715,0.0005669821985065937
1772048253735720200,3.52772021484375,0.0017198086716234684,0.000030185561627149582,0.005604351405054331
1772048253745671000,3.5376708984375,0.002080586040392518,0.00009383517317473888,-0.0001151268370449543
1772048253755622100,3.5476220703125,-0.0011258600279688835,0.006610324140638113,0.0014076689258217812
1772048253765574000,3.557573974609375,0.001120731933042407,0.00394261023029685,0.0021163581404834986
1772048253775525000,3.567525146484375,-0.000741616589948535,0.001748964423313737,0.00472199497744441
1772048253785476000,3.57747607421875,0.002779426984488964,-0.0019859522581100464,0.001296232920140028
1772048253795427000,3.587427001953125,0.0037232516333460808,0.0010503176599740982,0.0019745398312807083
1772048253805379000,3.597379150390625,0.0017577542457729578,0.0008449966553598642,0.0031686928123235703
1772048253815330000,3.607330078125,0.0032901375088840723,-0.0004873827565461397,-0.0008313753642141819
1772048253825281000,3.617281005859375,0.002025473862886429,-0.0009903623722493649,0.0032805230002850294
1772048253835233300,3.6272333984375,0.0024491827934980392,-0.0021056942641735077,0.0025782473385334015
1772048253845184000,3.63718408203125,0.00006619235500693321,-0.0002686907537281513,0.0021297468338161707
1772048253855135200,3.64713525390625,-0.0007508653216063976,-0.00028413673862814903,0.00030920980498194695
1772048253865087000,3.6570869140625,0.0013195362407714128,-0.0006598089821636677,-0.0009013433009386063
1772048253875038200,3.6670380859375,0.001844711834564805,-0.0005042804405093193,-0.001519995741546154
1772048253884989000,3.676989013671875,0.003179471241310239,-0.001583376433700323,0.0004155733622610569
1772048253894941200,3.686941162109375,0.00004413188435137272,-0.00034980010241270065,0.0019234553910791874
1772048253904892200,3.69689208984375,0.000604631844907999,-0.0003482711035758257,-0.0001500304788351059
1772048253914843100,3.706843017578125,0.0009806705638766289,0.0010088756680488586,0.001459051389247179
1772048253924795100,3.716795166015625,-0.00010157329961657524,-0.00029915105551481247,0.004083591513335705
1772048253934746000,3.72674609375,0.0010755439288914204,-0.001701305154711008,0.001968508819118142
1772048253944697000,3.736697021484375,0.0005040280520915985,0.001162766944617033,0.001459027174860239
1772048253954649000,3.746649169921875,-0.00041556148789823055,0.0010836708825081587,0.0014638211578130722
1772048253964600000,3.75660009765625,0.00045698508620262146,0.0013710064813494682,0.0007041986100375652
1772048253974551300,3.76655126953125,-0.0010216017253696918,-0.0005864170379936695,-0.0009964960627257824
1772048253984503000,3.7765029296875,0.001852185931056738,0.0021143166813999414,0.0009987442754209042
1772048253994454300,3.786454345703125,-0.0021689210552722216,-0.003015996888279915,-0.0007235221564769745
1772048254004405000,3.796405029296875,0.0005532470531761646,0.0006602948997169733,-0.0019284207373857498
1772048254014356200,3.806356201171875,0.0017580613493919373,0.002327699912711978,0.001061243936419487
1772048254024308200,3.81630810546875,0.0007777269929647446,-0.0034358156844973564,0.0005582310259342194
1772048254034259200,3.82625927734375,0.00023177871480584145,-0.003908527083694935,0.00011960836127400398
1772048254044210200,3.836210205078125,-0.0010938390623778105,0.0008095724042505026,0.002701303455978632
1772048254054162000,3.846161865234375,0.0006438735872507095,-0.00040695955976843834,-0.0007719909772276878
1772048254064113200,3.856113037109375,0.001793472096323967,-0.0029412084259092808,0.0024800992105156183
1772048254074064100,3.866064208984375,0.0007585678249597549,0.0005664411000907421,0.0030183240305632353
1772048254084016000,3.87601611328125,0.0015277662314474583,0.0013783660251647234,0.00016373302787542343
1772048254093967000,3.885967041015625,0.0012992671690881252,0.00039832270704209805,-0.0008392133750021458
1772048254103918000,3.89591796875,0.0013491464778780937,0.0010530268773436546,-0.0012057381682097912
1772048254113870000,3.9058701171875,0.0012974813580513,0.002337203361093998,0.0018254718743264675
1772048254123821000,3.915821044921875,-0.0001298773568123579,0.003500813851132989,-0.001426533330231905
1772048254133772000,3.92577197265625,0.0018073059618473053,-0.0027147377841174603,-0.0005697943270206451
1772048254143724300,3.935724365234375,-0.0003922733012586832,-0.0019475738517940044,0.001262756995856762
1772048254153675000,3.945675048828125,0.0013707391917705536,-0.00018402840942144394,0.001671552425250411
1772048254163626200,3.955626220703125,0.000465981662273407,-0.001623478950932622,-0.000027515459805727005
1772048254173578000,3.965577880859375,-0.000006197020411491394,0.0003943981137126684,0.00046490272507071495
1772048254183529200,3.975529296875,-0.0001539981458336115,0.0013610743917524815,0.000416693277657032
1772048254193480000,3.98547998046875,0.0015959651209414005,0.0024681503418833017,0.0012428057380020618
1772048254203432200,3.99543212890625,-0.0001425843220204115,0.002128324005752802,0.000858185812830925
1772048254213379300,4.00537939453125,0.0006640870124101639,-0.0015361856203526258,-0.0024507916532456875
1772048254223330300,4.015330322265625,-0.0005986150354146957,0.0010821621399372816,-0.0007997797802090645
1772048254233282300,4.0252822265625,0.000762260053306818,-0.001574074849486351,0.0016636443324387074
1772048254243233500,4.035233642578125,0.0016735633835196495,0.0013210142496973276,-0.0000947294756770134
1772048254253184300,4.045184326171875,0.0007097655907273293,0.0008975716773420572,0.0012919786386191845
1772048254263136500,4.055136474609375,0.0000066640786826610565,0.00048614712432026863,0.0014852695167064667
1772048254273087200,4.065087158203125,0.00047404877841472626,0.00009412993676960468,-0.0007951953448355198
1772048254283038500,4.07503857421875,-0.00038940575905144215,-0.0008923185523599386,0.000690957996994257
1772048254292989200,4.0849892578125,-0.0019705244340002537,-0.001121617155149579,0.0021232059225440025
1772048254302941400,4.09494140625,-0.0011488283053040504,0.0011281189508736134,0.00025227339938282967
1772048254312892400,4.104892333984375,-0.0012447021435946226,0.0005448865704238415,0.00019208574667572975
1772048254322843400,4.114843505859375,0.0028792149387300014,0.0010029312688857317,0.002084929496049881
1772048254332795400,4.12479541015625,0.0002773064188659191,-0.00014116265811026096,-0.0002464018762111664
1772048254342746400,4.134746337890625,0.00023516220971941948,-0.0007644568104296923,0.0014637666754424572
1772048254352697300,4.144697265625,0.0003882939927279949,-0.00002276664599776268,0.002689886139705777
1772048254362649300,4.1546494140625,0.0011408394202589989,0.0013137869536876678,0.0013299258425831795
1772048254372600300,4.164600341796875,0.002396786119788885,-0.0006433699745684862,0.002292125951498747
1772048254382551600,4.174551513671875,-0.002264064736664295,-0.001361634349450469,0.0027184216305613518
1772048254392503300,4.18450341796875,-0.0016795007977634668,0.00014891033060848713,-0.0011879028752446175
1772048254402454300,4.194454345703125,0.0027390429750084877,-0.0011285196524113417,-0.002225383184850216
1772048254412405200,4.2044052734375,0.00006576208397746086,0.00005818484351038933,0.0004356470890343189
1772048254422357200,4.214357177734375,0.000004968605935573578,-0.0019512721337378025,-0.00010701734572649002
1772048254432308500,4.22430859375,-0.00195698207244277,0.00008125253953039646,0.0015356203075498343
1772048254442259200,4.23425927734375,0.0018754806369543076,0.0023842446971684694,-0.0009052827954292297
1772048254452211500,4.24421142578125,-0.0007003289647400379,-0.0014094284269958735,-0.0024717538617551327
1772048254462162200,4.254162109375,-0.00040413904935121536,-0.0015435207169502974,-0.0008571739308536053
1772048254472113400,4.264113525390625,0.000838225707411766,-0.002966713858768344,-0.0009828750044107437
1772048254482065400,4.2740654296875,-0.0009653561282902956,-0.0012732245959341526,0.0003260662779211998
1772048254492016400,4.284016357421875,0.00028686225414276123,-0.0008266125805675983,-0.0006345356814563274
1772048254501967400,4.29396728515625,-0.0024077091366052628,0.0014758955221623182,0.0008060834370553493
1772048254511919400,4.30391943359375,-0.00013736402615904808,0.00060690613463521,-0.00013907207176089287
1772048254521870300,4.313870361328125,0.0009814193472266197,-0.0006425082683563232,-0.00021610083058476448
1772048254531821300,4.3238212890625,-0.0027981391176581383,-0.001744257751852274,-0.0003599114716053009
1772048254541773300,4.333773193359375,0.000782468356192112,0.00012024841271340847,0.0008659861050546169
1772048254551724500,4.343724609375,-0.0033715302124619484,-0.0005138502456247807,0.001896096859127283
1772048254561675300,4.35367529296875,0.0019878088496625423,-0.003258177312090993,0.0007712827064096928
1772048254571627300,4.363627197265625,0.0007558302022516727,-0.0024685498792678118,-0.00011714780703186989
1772048254581578200,4.373578125,-0.00188209000043571,0.00024496554397046566,-0.0009749582968652248
1772048254591529500,4.383529541015625,0.0004321970045566559,0.0022561848163604736,0.001835741801187396
1772048254601480200,4.393480224609375,-0.0018551566172391176,0.001971593126654625,0.0014281217008829117
1772048254611432200,4.40343212890625,0.0011486229486763477,-0.00042818160727620125,0.00014554336667060852
1772048254621383400,4.413383544921875,-0.0012844353914260864,0.0009125932119786739,0.0009045018814504147
1772048254631334400,4.42333447265625,0.0003635287284851074,-0.0018887862097471952,-0.001012174878269434
1772048254641286400,4.433286376953125,-0.0009783408604562283,0.0027627781964838505,0.000920537393540144
1772048254651237400,4.4432373046875,-0.00019483896903693676,0.0008197356946766376,-0.00035857874900102615
1772048254661188400,4.453188232421875,0.0003797854296863079,0.0006971522234380245,0.000043435487896203995
1772048254671140400,4.463140380859375,-0.0013888198882341385,0.0027408620808273554,-0.00097256014123559
1772048254681091300,4.47309130859375,-0.0019562155939638615,0.000056073302403092384,-0.0002971906214952469
1772048254691042300,4.483042236328125,-0.003266757121309638,0.00034768925979733467,0.0009361193515360355
1772048254700994300,4.492994384765625,0.0015934854745864868,0.00130578619427979,0.001037184614688158
1772048254710945300,4.5029453125,0.00045338599011301994,0.0018402826972305775,0.0024989936500787735
1772048254720896300,4.512896240234375,0.000763304065912962,-0.00047712051309645176,0.0013913800939917564
1772048254730848300,4.52284814453125,0.0013310899958014488,-0.0019421253819018602,-0.00016523757949471474
1772048254740799500,4.532799560546875,0.0002397843636572361,0.0016033404972404242,0.0011472566984593868
1772048254750750200,4.542750244140625,-0.00025236792862415314,-0.0008012275211513042,0.002118511591106653
1772048254760702500,4.552702392578125,-0.00036649894900619984,-0.0033291897270828485,0.002353274030610919
1772048254770653200,4.562653076171875,-0.0002184270415455103,-0.0002130249049514532,0.00014604628086090088
1772048254780604400,4.5726044921875,0.0004440336488187313,-0.0032595854718238115,-0.0011853952892124653
1772048254790555100,4.58255517578125,-0.002337637823075056,-0.000670992536470294,-0.0004189377650618553
1772048254800507400,4.59250732421875,-0.0010989373549818993,0.0011600430589169264,0.00039778370410203934
1772048254810458400,4.602458251953125,0.0017772768624126911,-0.0021598534658551216,-0.0015955925919115543
1772048254820409300,4.612409423828125,0.001780268270522356,-0.0007474655285477638,0.0005453531630337238
1772048254830361300,4.622361328125,0.0018292702734470367,-0.0007647760212421417,-0.0006557325832545757
1772048254840312300,4.632312255859375,-0.001883055316284299,-0.00022900267504155636,0.001316244713962078
1772048254850263300,4.64226318359375,-0.0015078159049153328,0.0006730102468281984,-0.002334949094802141
1772048254860215600,4.652215576171875,0.001227368600666523,-0.0015498576685786247,0.0016601062379777431
1772048254870166300,4.662166259765625,-0.0008200695738196373,0.0005524419248104095,0.0007245377637445927
1772048254880117500,4.672117431640625,0.0004456941969692707,-0.0013704297598451376,-0.0006147301755845547
1772048254890069200,4.6820693359375,0.0006784545257687569,-0.0008372648153454065,0.0038015900645405054
1772048254900020500,4.6920205078125,0.0007270839996635914,-0.001392723061144352,0.001787377055734396
1772048254909971200,4.70197119140625,-0.0019435340072959661,-0.00039457017555832863,0.00047550396993756294
1772048254919923200,4.711923095703125,-0.00014789076521992683,-0.0012595849111676216,0.0014372402802109718
1772048254929874400,4.72187451171875,0.0005128397606313229,0.0008166155312210321,0.0008412250317633152
1772048254939825400,4.731825439453125,-0.0006649182178080082,-0.002203454030677676,0.0026804055087268353
1772048254949777400,4.74177734375,0.0002056690864264965,0.00022082170471549034,0.00042603956535458565
1772048254959728000,4.75172802734375,-0.00035848398692905903,0.0007325038313865662,0.0027178179007023573
1772048254969679400,4.761679443359375,0.002413866575807333,0.003364772303029895,0.0017305843066424131
1772048254979631400,4.77163134765625,-0.0004094706382602453,0.0008137740660458803,-0.000279358122497797
1772048254989582300,4.781582275390625,0.0006384830921888351,0.0025429646484553814,-0.0006130523979663849
1772048254999533300,4.791533203125,-0.0023624966852366924,-0.00001671840436756611,0.00006461981683969498
1772048255009485300,4.8014853515625,-0.0006993527058511972,0.0052898963913321495,-0.002383890561759472
1772048255019436300,4.811436279296875,-0.0009138949681073427,-0.0014099376276135445,-0.003841929603368044
1772048255029387300,4.82138720703125,0.0007465858943760395,-0.0006024669855833054,-0.004431820008903742
1772048255039338200,4.831338134765625,-0.001304291421547532,0.003703189082443714,-0.005857246462255716
1772048255049290500,4.84129052734375,-0.0005958906840533018,-0.0018803945276886225,-0.003755745943635702
1772048255059241200,4.8512412109375,-0.00043421657755970955,0.0004847669042646885,-0.0027072387747466564
1772048255069192400,4.8611923828125,-0.00353440223261714,0.0008032810874283314,-0.0025799390859901905
1772048255079144200,4.871144287109375,-0.002087886445224285,0.0036249945405870676,-0.002580053173005581
1772048255089095400,4.881095458984375,-0.0030484884046018124,0.0004963129758834839,-0.00020584464073181152
1772048255099046100,4.891046142578125,-0.0017461215611547232,-0.0028702986892312765,-0.003171912394464016
1772048255108998400,4.900998291015625,0.0011327555403113365,-0.0019246104639023542,-0.003490426577627659
1772048255118949400,4.910949462890625,-0.0019166935235261917,-0.0007910446729511023,-0.0017074570059776306
1772048255128900400,4.920900390625,-0.0032344255596399307,0.0007045865058898926,-0.0016094525344669819
1772048255138852400,4.930852294921875,-0.000217182794585824,-0.0005549851339310408,-0.0010417355224490166
1772048255148803300,4.94080322265625,-0.0028345375321805477,-0.0018639292102307081,-0.00006115948781371117
1772048255158754300,4.95075439453125,-0.002167669590562582,0.0038534007035195827,0.0009417184628546238
1772048255168706300,4.960706298828125,0.0017860596999526024,-0.0008856942877173424,0.0009702141396701336
1772048255178657300,4.9706572265625,0.0028823227621614933,-0.002796450862661004,0.001280676107853651
1772048255188608500,4.9806083984375,0.00003247428685426712,0.0008174583781510592,0.0012066401541233063
1772048255198560300,4.990560302734375,0.0006900657899677753,0.0020887700375169516,-0.001260101329535246
1772048255208511200,5.00051123046875,0.0008610407821834087,-0.0025861430913209915,-0.002016705460846424
1772048255218463000,5.010462890625,0.0015185857191681862,0.0004075488541275263,0.0008578929118812084
1772048255228414700,5.020414794921875,-0.0021770827006548643,0.011068714782595634,0.002602529479190707
1772048255238366000,5.030365966796875,0.000763758085668087,0.0023411950096488,-0.0021074078977108
1772048255248317000,5.04031689453125,0.001549124252051115,-0.005426979623734951,-0.0011614533141255379
1772048255258269000,5.05026904296875,-0.00002657948061823845,0.0023032082244753838,-0.0002226363867521286
1772048255268220000,5.060219970703125,-0.00030514621175825596,0.006476115435361862,0.0033598479349166155
1772048255278171000,5.0701708984375,-0.0012347965966910124,0.0034792358055710793,0.0013897479511797428
1772048255288121900,5.080121826171875,0.0015876214019954205,-0.005453539080917835,-0.0018603736534714699
1772048255298073900,5.090073974609375,0.00016658613458275795,-0.002553541911765933,-0.001311208587139845
1772048255308024800,5.10002490234375,-0.0021998989395797253,0.002928575035184622,0.0024784693960100412
1772048255317976000,5.10997607421875,-0.0008925804868340492,0.0018666917458176613,-0.0028265686705708504
1772048255327927800,5.119927734375,0.0015759035013616085,-0.002793041290715337,-0.001827350351959467
1772048255337879000,5.129879150390625,0.00016143685206770897,-0.0009396972600370646,-0.0024702674709260464
1772048255347829800,5.139829833984375,0.001732169184833765,0.0009679249487817287,0.0002829087898135185
1772048255357781800,5.14978173828125,-0.00003246869891881943,0.003503086743876338,0.0010610055178403854
1772048255367733000,5.15973291015625,-0.00029319245368242264,-0.000011753290891647339,0.0018109518568962812
1772048255377684000,5.16968408203125,0.0007600234821438789,-0.0008048305753618479,-0.000001259148120880127
1772048255387636000,5.179635986328125,-0.0037106249947100878,0.0008884069975465536,-0.0002595861442387104
1772048255397587000,5.1895869140625,-0.00034908903762698174,-0.0001839392352849245,0.003734739264473319
1772048255407538000,5.199537841796875,-0.0025525884702801704,0.000596899539232254,0.0016263145953416824
1772048255417489700,5.20948974609375,-0.000684231985360384,0.0031791706569492817,0.0002919402904808521
1772048255427441000,5.21944091796875,-0.0007380277384072542,-0.000789205776527524,0.0019135389011353254
1772048255437392000,5.229391845703125,0.001039655413478613,-0.0025920781772583723,0.0035197059623897076
1772048255447343900,5.23934375,-0.002133767120540142,-0.0006588895339518785,-0.00029766932129859924
1772048255457294800,5.249294921875,-0.00009357789531350136,-0.0029408421833068132,-0.0013400777243077755
1772048255467245800,5.259245849609375,0.0010129655711352825,-0.0018561368342489004,0.0018692975863814354
1772048255477197800,5.26919775390625,0.005116309970617294,-0.005303358659148216,0.005115962587296963
1772048255487149000,5.279149169921875,0.0039927223697304726,0.000038942089304327965,0.01054801233112812
1772048255497099800,5.289099853515625,0.002243557944893837,0.01347168255597353,0.01224559172987938
1772048255507052000,5.299052001953125,-0.0029895533807575703,0.0031668469309806824,-0.00011014426127076149
1772048255517002800,5.309002685546875,-0.00035743415355682373,-0.008967138826847076,-0.005151990335434675
1772048255526954000,5.3189541015625,-0.0006320059765130281,-0.008721062913537025,-0.007433254737406969
1772048255536904700,5.32890478515625,0.00046198489144444466,0.003094450104981661,-0.0038332026451826096
1772048255546857000,5.33885693359375,-0.0019391209352761507,0.0055954246781766415,-0.003470746800303459
1772048255556808000,5.348807861328125,-0.000933800358325243,-0.004590722732245922,-0.0005596592091023922
1772048255566759000,5.358759033203125,0.0021173832938075066,-0.003378717927262187,-0.0018334491178393364
1772048255576711000,5.3687109375,0.0006152377463877201,0.0017859849613159895,0.005919243674725294
1772048255586662000,5.378661865234375,0.0008392096497118473,0.006240122020244598,0.005530156195163727
1772048255596612900,5.38861279296875,0.0009595598094165325,0.0014753760769963264,0.0018363336566835642
1772048255606565000,5.398565185546875,0.0012200167402625084,-0.0018027087207883596,0.00020940881222486496
1772048255616515800,5.408515869140625,0.002655455842614174,0.0013551528099924326,0.00575559725984931
1772048255626467000,5.418467041015625,0.00021919608116149902,0.0031775538809597492,0.003434918588027358
1772048255636418800,5.428418701171875,-0.0011951355263590813,0.0022259042598307133,0.004922191612422466
1772048255646370000,5.4383701171875,0.0011007757857441902,-0.0038775282446295023,0.0005053388886153698
1772048255656320800,5.44832080078125,0.00031353021040558815,0.0014801460783928633,0.0001298864372074604
1772048255666272800,5.458272705078125,0.0007196622900664806,0.001984815113246441,0.002023926703259349
1772048255676224000,5.46822412109375,-0.0033711064606904984,0.0010928751435130835,0.001843390753492713
1772048255686175000,5.478175048828125,0.00010458473116159439,-0.003330369247123599,0.0004817163571715355
1772048255696127000,5.488126953125,0.0008336519822478294,-0.0016745540779083967,-0.0007806047797203064
1772048255706077700,5.49807763671875,0.000005409121513366699,0.001350797014310956,0.00004950258880853653
1772048255716029000,5.50802880859375,0.0012687621638178825,0.0006679808720946312,0.0006759404204785824
1772048255725980000,5.51797998046875,0.001957455649971962,-0.00103191495873034,-0.0007144957780838013
1772048255735932000,5.527931884765625,0.001342525240033865,-0.0014649478252977133,-0.00010931771248579025
1772048255745883000,5.5378828125,0.00029057683423161507,0.0012578682508319616,0.0002211807295680046
1772048255755833900,5.547833740234375,0.0009048841893672943,0.0007973844185471535,-0.0017901202663779259
1772048255765785900,5.557785888671875,-0.00030685425736010075,0.0018413437064737082,0.0012160558253526688
1772048255775736800,5.56773681640625,-0.00027921516448259354,0.0019323542946949601,-0.0021667457185685635
1772048255785687800,5.577687744140625,-0.00011463160626590252,0.0008319360204041004,-0.0012319758534431458
1772048255795640000,5.58764013671875,-0.0010096433106809855,0.0010906753595918417,-0.0006803558208048344
1772048255805590800,5.5975908203125,0.0019448674283921719,0.0020387605763971806,0.0016959828790277243
1772048255815542000,5.6075419921875,0.0002560960128903389,0.0020715175196528435,-0.001817791722714901
1772048255825493800,5.61749365234375,0.0014404039829969406,-0.001149043207988143,0.001782003091648221
1772048255835445000,5.627445068359375,0.000024351291358470917,-0.0002052446361631155,0.0012787720188498497
1772048255845395700,5.637395751953125,-0.000046222470700740814,0.0026709693484008312,-0.0003188583068549633
1772048255855348000,5.647347900390625,0.00024426495656371117,-0.0017036630306392908,-0.001318872906267643
1772048255865299000,5.657298828125,0.0003385408781468868,-0.00088660535402596,0.00036131544038653374
1772048255875250000,5.66725,0.0001358608715236187,0.0006759203970432281,-0.001426943577826023
1772048255885202000,5.677201904296875,0.00214548222720623,0.00036193360574543476,0.0042357356287539005
1772048255895153000,5.68715283203125,0.00035201525315642357,-0.0014262825716286898,0.0009211916476488113
1772048255905104000,5.697103759765625,-0.0007486692629754543,-0.0010574350599199533,-0.0014205262996256351
1772048255915055900,5.707055908203125,0.0014561787247657776,0.0009623554069548845,-0.00046226708218455315
1772048255925006800,5.7170068359375,0.00017706258222460747,0.0009373216889798641,0.002489048056304455
1772048255934958000,5.7269580078125,-0.0007737928535789251,-0.0019885131623595953,0.0007849354296922684
1772048255944908800,5.73690869140625,-0.0015173472929745913,-0.0002851553726941347,0.0020539318211376667
1772048255954860800,5.74686083984375,0.0022959280759096146,-0.003653047839179635,-0.00037046754732728004
1772048255964811800,5.756811767578125,-0.000058572739362716675,0.0009318501688539982,0.0010585845448076725
1772048255974763000,5.766762939453125,-0.0008915243670344353,-0.0004958955105394125,0.0016552386805415154
1772048255984715000,5.776715087890625,-0.0021021971479058266,-0.0014961787965148687,-0.00033946894109249115
1772048255994666000,5.786666015625,0.0026302216574549675,-0.0028597379568964243,-0.0036759586073458195
1772048256004617000,5.796616943359375,-0.00031550065614283085,-0.0003001738805323839,-0.00012942729517817497
1772048256014568700,5.806568603515625,-0.003326482605189085,-0.0004924337845295668,0.00006985897198319435
1772048256024520000,5.81652001953125,0.0011907713487744331,0.0022346433252096176,-0.0005930019542574883
1772048256034471000,5.826470947265625,-0.000202597351744771,0.00007486925460398197,-0.000347937922924757
1772048256044423000,5.8364228515625,0.0008118008263409138,-0.000759233022108674,-0.0018632765859365463
1772048256054374000,5.846373779296875,-0.00011169770732522011,-0.0014991054777055979,-0.00034461217001080513
1772048256064324900,5.856324951171875,-0.0005995889659970999,-0.00028923130594193935,0.0019832567777484655
1772048256074276900,5.86627685546875,0.0007653986103832722,0.0010251812636852264,0.001326951663941145
1772048256084227800,5.876227783203125,-0.00045992201194167137,0.00021611293777823448,-0.0007788101211190224
1772048256094178800,5.8861787109375,-0.0003302302211523056,-0.0008220837917178869,-0.001228459645062685
1772048256104131000,5.896131103515625,-0.000723312608897686,0.0019039278849959373,0.0018882376607507467
1772048256114081800,5.906081787109375,0.00047399476170539856,0.00033445795997977257,-0.0017762226052582264
1772048256124033000,5.916032958984375,-0.0012754357885569334,-0.0014229619409888983,-0.0014119022525846958
1772048256133983700,5.925983642578125,-0.0018186778761446476,0.001874100649729371,-0.0010664588771760464
1772048256143936000,5.93593603515625,-0.004086892120540142,0.0011776841711252928,-0.0010843020863831043
1772048256153886700,5.94588671875,-0.0011869212612509727,0.0009676148183643818,-0.0008185007609426975
1772048256163838000,5.955837890625,0.001804341096431017,-0.0019296379759907722,0.0005072210915386677
1772048256173790000,5.9657900390625,-0.00017338432371616364,0.00038263434544205666,-0.0006318665109574795
1772048256183741000,5.975740966796875,0.00004632631316781044,0.000996759394183755,0.0004994445480406284
1772048256193692000,5.98569189453125,0.0006683291867375374,0.0014116351958364248,0.0014637554995715618
1772048256203644000,5.995643798828125,0.0007309131324291229,0.00043265707790851593,0.0001990203745663166
1772048256213594000,6.005593994140625,-0.0019252619240432978,-0.00027092406526207924,-0.0006860559806227684
1772048256223545300,6.01554541015625,0.0013403063639998436,0.00008194474503397942,0.00010943040251731873
1772048256233497000,6.0254970703125,-0.001059465343132615,-0.001492305425927043,0.0001569562591612339
1772048256243448300,6.0354482421875,0.00044229114428162575,-0.00009068404324352741,-0.0000406499020755291
1772048256253399300,6.0453994140625,0.00006745802238583565,0.0015985765494406223,0.0012147137895226479
1772048256263351300,6.055351318359375,-0.000322162639349699,0.001114946324378252,0.0007926030084490776
1772048256273302300,6.06530224609375,0.000998783390969038,-0.0006811707280576229,0.000838977750390768
1772048256283253200,6.075253173828125,-0.0031288499012589455,-0.003089733887463808,-0.0009394809603691101
1772048256293205200,6.085205322265625,0.00005541462451219559,-0.00043903151527047157,-0.0006635161116719246
1772048256303156500,6.095156494140625,-0.0011089195031672716,-0.0014145472086966038,0.00003396579995751381
1772048256313107200,6.105107177734375,-0.0002235898282378912,0.00033916253596544266,-0.0005080914124846458
1772048256323059200,6.11505908203125,0.00024086562916636467,-0.0003663087263703346,0.001173162367194891
1772048256333010200,6.12501025390625,-0.0030585043132305145,0.0003273407928645611,0.00031307945027947426
1772048256342961400,6.13496142578125,-0.0004251706413924694,-0.00005056173540651798,-0.00020543811842799187
1772048256352912100,6.144912109375,0.0009387852624058723,-0.0019882197957485914,0.0009580357000231743
1772048256362864000,6.154864013671875,0.0015766122378408909,-0.002101403893902898,-0.0017892811447381973
1772048256372815400,6.1648154296875,-0.00038367509841918945,0.00014474056661128998,-0.0002085929736495018
1772048256382766300,6.174766357421875,-0.0002084390725940466,0.0006150547415018082,0.000687827356159687
1772048256392718300,6.18471826171875,-0.0004052931908518076,0.0022145910188555717,0.00238381652161479
1772048256402669300,6.19466943359375,-0.0000931709073483944,-0.0010650921612977982,-0.0010319538414478302
1772048256412620300,6.204620361328125,-0.000079362653195858,0.0021674279123544693,0.00031881825998425484
1772048256422572300,6.214572265625,0.00026125553995370865,-0.0005716332234442234,-0.0004164804704487324
1772048256432523300,6.224523193359375,0.0005776165053248405,0.0006039210129529238,0.0004130820743739605
1772048256442474200,6.23447412109375,0.000676153227686882,0.00094959931448102,0.0004426431842148304
1772048256452426200,6.24442626953125,0.0011354070156812668,-0.0016255739610642195,0.0027956324629485607
1772048256462377200,6.254377197265625,-0.0008308046963065863,-0.0016783045139163733,-0.0012539704330265522
1772048256472328200,6.264328125,0.0008569429628551006,-0.000939459539949894,-0.002536261919885874
1772048256482280200,6.2742802734375,0.0009956937283277512,0.0011236914433538914,0.00039587775245308876
1772048256492231400,6.2842314453125,-0.000345839885994792,-0.003538209479302168,-0.0009301616810262203
1772048256502182100,6.29418212890625,-0.0008467806037515402,-0.0018521621823310852,-0.0016252468340098858
1772048256512134400,6.304134521484375,-0.00032566371373832226,-0.00366866122931242,-0.00229656882584095
1772048256522085000,6.314085205078125,0.00024105701595544815,-0.0008052303455770016,-0.0016568773426115513
1772048256532036400,6.324036376953125,-0.0015017145778983831,-0.0015085390768945217,0.0008651493117213249
1772048256541987000,6.333987060546875,-0.00206923414953053,-0.0018648700788617134,-0.00010770373046398163
1772048256551939300,6.343939208984375,-0.002722216071560979,-0.00007277936674654484,0.000581810250878334
1772048256561890300,6.353890380859375,0.0017761294730007648,0.001560004660859704,0.0014950083568692207
1772048256571841300,6.36384130859375,-0.002337376121431589,0.0010979396756738424,-0.0011544441804289818
1772048256581793300,6.373793212890625,-0.0009597227908670902,0.0005306864622980356,0.000754243228584528
1772048256591744300,6.383744140625,-0.0006697701755911112,-0.00119298929348588,-0.00008367141708731651
1772048256601695200,6.3936953125,-0.000999203184619546,0.00040916865691542625,0.0027576549910008907
1772048256611647500,6.4036474609375,0.0010172449983656406,0.0032038609497249126,0.00104945944622159
1772048256621598200,6.41359814453125,-0.0006328497547656298,-0.000892347190529108,0.0044942582026124
1772048256631549400,6.423549560546875,-0.00023047160357236862,0.000025102170184254646,0.0012849965132772923
1772048256641501200,6.433501220703125,-0.0011394086759537458,-0.0007269748020917177,-0.0001736166886985302
1772048256651452400,6.443452392578125,0.0007043122313916683,-0.0014288921374827623,0.0015318049117922783
1772048256661403100,6.453403076171875,-0.0012658946216106415,-0.0013300885912030935,-0.000004839152097702026
1772048256671355100,6.463355224609375,-0.0001458548940718174,-0.0008021614048629999,-0.0003076056018471718
1772048256681306400,6.473306396484375,0.00040941406041383743,0.0017664572224020958,-0.0003851032815873623
1772048256691257300,6.48325732421875,0.002117512747645378,-0.0013975189067423344,-0.001165491994470358
1772048256701209300,6.493209228515625,0.00017233984544873238,-0.0015011155046522617,0.0021240445785224438
1772048256711160000,6.50316015625,-0.0018939271103590727,-0.00021307170391082764,0.002261382294818759
1772048256721111300,6.513111328125,0.00003340281546115875,0.00029958668164908886,0.00003284914419054985
1772048256731062300,6.523062255859375,-0.0018180678598582745,0.0006061445455998182,0.0006233090534806252
1772048256741014300,6.53301416015625,-0.0005535988602787256,-0.001231703208759427,0.001969004049897194
1772048256750965200,6.54296533203125,0.0013252967037260532,-0.0009408704936504364,0.0015067080967128277
1772048256760916200,6.552916259765625,-0.0010270734783262014,0.0015728871803730726,-0.0023932247422635555
1772048256770868200,6.5628681640625,0.0024311579763889313,0.0000312034972012043,0.0006188196130096912
1772048256780819200,6.572819091796875,0.0004905122332274914,0.001318575581535697,-0.0005247415974736214
1772048256790770200,6.582770263671875,-0.0006511949468404055,0.0007836876902729273,0.0009639998897910118
1772048256800722400,6.592722412109375,0.0007120771333575249,0.0019565438851714134,0.00010779360309243202
1772048256810673200,6.602673095703125,0.0009473348036408424,0.0009243136737495661,-0.0010234694927930832
1772048256820624400,6.612624267578125,0.002704222220927477,-0.002808905439451337,-0.0022754217498004436
1772048256830576000,6.622576171875,0.000582612119615078,-0.0004316624253988266,0.0010861661285161972
1772048256840527400,6.63252734375,0.0009868801571428776,0.0002620911691337824,-0.0003625932149589062
1772048256850478000,6.64247802734375,0.00016079237684607506,-0.00007782317698001862,-0.0001374920830130577
1772048256860430300,6.652430419921875,-0.0005468097515404224,-0.00010871561244130135,0.002890788484364748
1772048256870381300,6.66238134765625,0.0005608224309980869,-0.001835997449234128,0.0007095616310834885
1772048256880332300,6.672332275390625,-0.0007521158549934626,-0.0019230826292186975,-0.003090502694249153
1772048256890284300,6.6822841796875,-0.0009635009337216616,0.00225661089643836,0.00012956419959664345
1772048256900235300,6.6922353515625,-0.0014391415752470493,0.0011876181233674288,0.0007040076889097691
1772048256910186200,6.702186279296875,0.0030848924070596695,-0.0002696008887141943,-0.00022396119311451912
1772048256920137200,6.71213720703125,0.0003245258703827858,-0.0013292727526277304,-0.0013046720996499062
1772048256930089200,6.722089111328125,-0.002312200143933296,0.002499385504052043,0.002187892096117139
1772048256940040400,6.73204052734375,-0.0007814152631908655,0.0008551497012376785,-0.0005730069242417812
1772048256949991200,6.7419912109375,-0.0013016331940889359,-0.0001356508582830429,-0.0003152480348944664
1772048256959943200,6.751943115234375,0.0005585849285125732,-0.0025838948786258698,0.0021519046276807785
1772048256969894100,6.76189404296875,0.0005476968362927437,0.0008460429962724447,0.0008707009255886078
1772048256979845400,6.771845458984375,0.0001386352814733982,-0.00047674914821982384,0.00022408552467823029
1772048256989797400,6.78179736328125,-0.002184021519497037,0.023965192958712578,0.03152729570865631
1772048256999748400,6.791748291015625,-0.006025365088135004,0.0743604525923729,0.03006468527019024
1772048257009699300,6.80169921875,-0.0006776808295398951,0.03878529742360115,0.0027543152682483196
1772048257019651000,6.811651123046875,0.0002578878775238991,-0.0030308596324175596,0.0073365503922104836
1772048257029602300,6.821602294921875,0.002885843627154827,-0.013991003856062889,-0.00852787122130394
1772048257039553300,6.83155322265625,0.003167073242366314,-0.013304175809025764,-0.012489590793848038
1772048257049505300,6.84150537109375,-0.0016027449164539576,-0.018774844706058502,-0.012527485378086567
1772048257059456300,6.851456298828125,0.003966457210481167,-0.033051516860723495,-0.014374653808772564
1772048257069407200,6.8614072265625,0.0019976035691797733,-0.05323798954486847,-0.020036907866597176
1772048257079358500,6.8713583984375,-0.0018011291977018118,-0.01894712634384632,-0.0035833646543323994
1772048257089310200,6.881310302734375,-0.002760760486125946,0.034480735659599304,0.012103047221899033
