time,seconds_elapsed,z,y,x
1772045243087215400,0.07521533203125,-0.05173018723726272,1.7823574637800454,0.7144993188824504
1772045243097201400,0.085201416015625,0.20059096140563487,2.0046125599831344,0.5919306315731256
1772045243107187500,0.0951875,0.20998715078234673,1.4531339849814773,0.4458393221180886
1772045243117173500,0.105173583984375,0.40595512856245036,0.8829159304574131,0.6044727177601307
1772045243127158500,0.115158447265625,0.40847091077566144,0.8836576887354254,0.617730551001057
1772045243137144600,0.12514453125,0.2875648959815502,1.1103092663317917,0.3860119723387062
1772045243147130400,0.13513037109375,0.3191103733241558,1.6898256028160452,0.2289638731267303
1772045243157116400,0.145116455078125,0.5242646971225738,2.4317571915686127,0.20687859030775724
1772045243167102500,0.1551025390625,0.6725187375694512,2.262498357015848,-0.2875846235953271
1772045243177088500,0.165088623046875,0.8167980291664599,2.247081007653475,-0.33530484453886744
1772045243187073500,0.175073486328125,0.9839800574451685,2.2115414922386405,-0.1026141329087317
1772045243197059300,0.185059326171875,1.147971180728078,1.8610177435189486,-0.06949570716097951
1772045243207045600,0.195045654296875,1.2350953374296425,1.5207973621487616,-0.12559314969703556
1772045243217031400,0.205031494140625,1.504170052474737,1.3222700552746653,-0.14345862286388872
1772045243227017500,0.215017578125,1.9893828421473503,1.1794023840412498,-0.18968129872605202
1772045243237003500,0.22500341796875,2.5741081454515458,1.0433896932691336,-0.20242329139932988
1772045243246989600,0.234989501953125,3.127795920935273,0.8914265691712498,-0.009325316097587346
1772045243256974300,0.244974365234375,3.5527100169897077,0.7476672097951174,0.2667876270212233
1772045243266960400,0.25496044921875,3.8266812719047065,0.6863447260871529,0.5600783533036708
1772045243276946400,0.264946533203125,3.854236218306422,0.625045623254776,0.8622513280913233
1772045243286932500,0.274932373046875,3.7525194726288316,0.5622624193444847,0.9206877349689603
1772045243296918300,0.284918212890625,4.155146333551406,1.0728086799770593,1.1597957662954925
1772045243306904600,0.294904541015625,4.618959776842594,1.4477943775191902,1.6469354323774574
1772045243316890400,0.304890380859375,5.0240994973689315,1.3967244077563286,2.190323055382073
1772045243326875400,0.31487548828125,5.070774154782295,1.1882526299729943,2.7881556775406002
1772045243336861400,0.324861328125,4.654795060333609,0.763856128051877,3.124973556990921
1772045243346847500,0.334847412109375,4.074071978408098,1.1053227100908756,3.5216847641289233
1772045243356833500,0.34483349609375,3.85666490675807,1.665741255134344,3.5852319381490347
1772045243366819300,0.3548193359375,3.7076106558442112,1.3871496469423175,2.815723191162944
1772045243376805600,0.3648056640625,3.1801743429481983,1.1102999139815568,2.172826853919029
1772045243386790400,0.374790283203125,2.7497458673864603,1.4012176275223494,1.8797364725142716
1772045243396776400,0.3847763671875,2.7495225800245997,1.7502382782027124,1.6451894654929637
1772045243406762200,0.39476220703125,2.760893284344673,1.8284110666856168,1.4885586418449879
1772045243416748500,0.40474853515625,2.5915035168886185,1.63947532562986,1.4897919830322264
1772045243426734300,0.414734375,2.2513263901382685,1.3206532677277922,1.511042860853672
1772045243436720400,0.424720458984375,1.8414760077029466,1.2729535050503908,1.299758071476221
1772045243446706400,0.43470654296875,1.5012345835447312,1.425253313756734,1.048265774872899
1772045243456691500,0.44469140625,1.4031810365498065,1.669824871186167,0.8838029424250126
1772045243466677500,0.454677490234375,1.3859037385344504,1.9070118713222444,1.180062016993761
1772045243476663300,0.464663330078125,0.7905009738713502,2.416839462291449,1.784596182617545
1772045243486649600,0.474649658203125,0.9358756594896316,2.862372129613161,2.8174340867340564
1772045243496635400,0.484635498046875,1.0083274399772286,2.893991548974812,2.95316240760684
1772045243506621400,0.494621337890625,0.9477706799447536,2.99061155603528,2.821321157300472
1772045243516606500,0.5046064453125,0.9770864985391498,3.1576968459412456,2.1958196069717406
1772045243526592500,0.514592529296875,0.9692015905082225,3.20948870023787,1.4966303046196698
1772045243536578300,0.524578369140625,1.0730579785630106,3.2151889577060935,0.8134107248157262
1772045243546564400,0.534564453125,1.0012895041644572,3.2203686984315514,0.19990765531659124
1772045243556550400,0.54455029296875,0.66800315984115,3.088925799793005,-0.2201256829589605
1772045243566536400,0.554536376953125,0.4911193103026598,3.0728187146008015,-0.5678355433017015
1772045243576522200,0.564522216796875,0.5149439110696316,3.2764655564457175,-1.0551678093463182
1772045243586507500,0.574507568359375,0.541761775368452,3.414445455637574,-1.6817735215246676
1772045243596493600,0.58449365234375,0.6125835800340399,3.5351924804776904,-2.3460686206281185
1772045243606479400,0.594479248046875,0.6423368767302483,3.5869796585991978,-2.937138324522972
1772045243616465700,0.604465576171875,0.560398671299219,3.4229657389625907,-3.2905075258016585
1772045243626451500,0.614451416015625,0.5970632452212273,3.4047321631357073,-3.6946389460682867
1772045243636437500,0.6244375,0.6084245971910656,3.429606199890375,-4.21379375283122
1772045243646423300,0.63442333984375,0.5575286688208579,3.2525068809702993,-4.82904220469296
1772045243656408600,0.64440869140625,0.5041603589877486,3.060001318603754,-5.177489147138595
1772045243666394400,0.654394287109375,0.5774629110857844,2.80006384973824,-5.307637622052431
1772045243676380400,0.66438037109375,0.6923886824265122,2.722463308185339,-5.11285739275217
1772045243686366500,0.674366455078125,0.7888017687380313,2.7293074749916792,-4.6127539079397915
1772045243696352500,0.6843525390625,0.7380982942000031,2.6146307099759576,-4.043083550426363
1772045243706338300,0.69433837890625,0.6402804556570947,2.415202654869854,-3.6627497698545453
1772045243716323300,0.7043232421875,0.5502009562812745,2.12315096886307,-3.606969430443644
1772045243726309600,0.7143095703125,0.4288590342879295,1.8060893447622657,-3.816336988022923
1772045243736295400,0.72429541015625,0.23659020328670738,1.4946677723750472,-4.069712029632925
1772045243746281500,0.734281494140625,-0.05911635196581483,1.165343463550508,-4.308476362088323
1772045243756267500,0.744267578125,-0.4616606491714716,0.8216755720749497,-4.478200476065278
1772045243766253600,0.754253662109375,-0.8494307172238826,0.4321390788719058,-4.524638402113318
1772045243776240000,0.764240234375,-1.103317946139723,0.05086655614525079,-4.473194630602002
1772045243786225200,0.77422509765625,-1.2294905031599104,-0.20389964756220577,-4.30696946465671
1772045243796211200,0.784211181640625,-1.2544210924074053,-0.38142216033041476,-3.9752199745118615
1772045243806197200,0.794197265625,-1.1673378522381186,-0.567877336616814,-3.5051749433547257
1772045243816183000,0.80418310546875,-0.9730535897612571,-0.7737997221782803,-3.0310218923568724
1772045243826169300,0.81416943359375,-0.7084416993439198,-0.9126429602012037,-2.556369659665227
1772045243836155100,0.824155029296875,-0.44450639301389455,-1.0177163228303194,-2.0208429792940614
1772045243846140200,0.83414013671875,-0.2022317143499851,-1.1018553262412547,-1.5202198545217513
1772045243856126000,0.8441259765625,-0.05376227758675813,-1.1142436831712723,-1.1379992372900247
1772045243866112300,0.8541123046875,0.11520327310785651,-1.1627727362796663,-0.7779103723675013
1772045243876098000,0.86409814453125,0.34716274785399437,-1.2344380425646901,-0.3820470142304897
1772045243886084000,0.874083984375,0.6366846231222152,-1.2776973385766148,-0.012404139021039009
1772045243896070100,0.884070068359375,0.948559930626303,-1.2866574746236203,0.3150537914097309
1772045243906056200,0.89405615234375,1.2679799544215202,-1.1766226901948451,0.6153285313606262
1772045243916041200,0.904041259765625,1.5236404766201972,-1.1213578990906476,0.943722865858674
1772045243926027000,0.914027099609375,1.7259493478596208,-1.149537407131493,1.1952303600311278
1772045243936013300,0.924013427734375,1.8379153926119207,-1.2934613094195724,1.2407429879277945
1772045243945999000,0.9339990234375,1.8934091701664029,-1.4530588739186525,1.1512006641685961
1772045243955985200,0.943985107421875,1.906406598905474,-1.5791016670793294,0.9144126002222299
1772045243965971200,0.95397119140625,1.7922892213381827,-1.719703439207375,0.5471463910162448
1772045243975956200,0.963956298828125,1.5349030443906784,-1.8954899219632149,0.17091478506624697
1772045243985942000,0.97394189453125,1.307243312665075,-2.1024258684813977,-0.09929156435728073
1772045243995928000,0.983927978515625,1.150641861242056,-2.237304294526577,-0.30163842951953407
1772045244005914000,0.9939140625,1.0092810874402522,-2.3307646685123444,-0.4451110809087753
1772045244015900200,1.003900146484375,0.9362919852055609,-2.2977181389570234,-0.5852548801362514
1772045244025886000,1.013885986328125,0.9299604440964758,-2.120241511157155,-0.7330062317579984
1772045244035872300,1.023872314453125,0.9351146119892597,-1.79876090157032,-0.8971563449949026
1772045244045857300,1.033857177734375,0.9280873437009751,-1.4562012635976076,-1.0803116029530764
1772045244055843000,1.043843017578125,0.8936416148722172,-1.1942530394315718,-1.284612524792552
1772045244065829400,1.053829345703125,0.8477389647446573,-1.0248200173556805,-1.538484410008788
1772045244075815200,1.063815185546875,0.8288121459566056,-0.9859826294392346,-1.8022060735881327
1772045244085801200,1.07380126953125,0.821719703477621,-1.063898228290677,-2.06353645811677
1772045244095787000,1.083787109375,0.882117035164684,-1.1111743587285279,-2.410007132053375
1772045244105773300,1.093773193359375,1.1083904270984233,-0.7331389182269573,-2.9299697480678555
1772045244115758000,1.103758056640625,1.344117145423591,-0.060091188347339626,-3.4116286446511745
1772045244125744000,1.113744140625,1.4701874111130833,0.466603950792551,-3.6920676342755554
1772045244135730200,1.123730224609375,1.4283293602012097,0.6797790839612483,-3.8251796351701017
1772045244145716200,1.13371630859375,1.289183778230846,0.6984001978009938,-3.9062481450945135
1772045244155702000,1.143701904296875,1.11599169588238,0.5815221233487129,-3.9212019685983655
1772045244165688300,1.153688232421875,0.9852595758616923,0.21192016467154023,-3.9229198784321544
1772045244175673300,1.16367333984375,0.9095036392621696,-0.19098083701729773,-4.012464540278911
1772045244185659100,1.1736591796875,0.9202793002985418,-0.48053603003323075,-4.101075136145949
1772045244195645200,1.183645263671875,0.9370784594081342,-0.7879138799875974,-4.035770597064495
1772045244205631200,1.19363134765625,0.8588099554657935,-1.1101029301047325,-3.775780521228909
1772045244215617300,1.2036171875,0.6694036742888391,-1.3784160131275653,-3.3754689515113827
1772045244225603000,1.21360302734375,0.4502570654951036,-1.4523743987858295,-2.9377468118101357
1772045244235589400,1.22358935546875,0.272210674983263,-1.2939368179768322,-2.4610949297338722
1772045244245574100,1.23357421875,0.12959464042335747,-1.0800672728031873,-1.978338885563612
1772045244255560200,1.243560302734375,-0.04142448180019855,-0.9135165281653403,-1.5452759698450564
1772045244265546000,1.2535458984375,-0.2256672427341342,-0.7794003186643124,-1.1826584632277488
1772045244275532300,1.2635322265625,-0.3666124214723706,-0.6312941622555256,-0.9079413583815097
1772045244285518000,1.27351806640625,-0.43664837298989295,-0.5011778360456228,-0.689736998873949
1772045244295504100,1.283504150390625,-0.47678602984994645,-0.37348786019980906,-0.574649314969778
1772045244305489200,1.2934892578125,-0.4384627289354801,-0.21148878751695155,-0.513880081230402
1772045244315475200,1.30347509765625,-0.34778935531973837,-0.05120353301465511,-0.4225654871016741
1772045244325461200,1.313461181640625,-0.29642157165408134,0.06541384467482567,-0.34114567952156066
1772045244335447000,1.323447021484375,-0.26781360906809565,0.13948738114535808,-0.2613601951450109
1772045244345433300,1.333433349609375,-0.23887977552860973,0.22430384542644022,-0.20449381406307218
1772045244355419100,1.343419189453125,-0.22758973522931336,0.32382717271298167,-0.14375906711518763
1772045244365404200,1.353404052734375,-0.25041443823873993,0.3838564017400145,-0.06111936235129833
1772045244375390000,1.363389892578125,-0.27051468472033735,0.42779403540492056,0.02814998968541622
1772045244385376300,1.373376220703125,-0.24749986596629023,0.4884063250169158,0.11491057377159594
1772045244395362000,1.383362060546875,-0.19085925646424293,0.5992015724241733,0.21353519865274428
1772045244405348000,1.39334814453125,-0.12421645451635122,0.751556326188147,0.3295926043719053
1772045244415334100,1.403334228515625,-0.10415639391466974,0.8883972844779491,0.4752484450191259
1772045244425320200,1.4133203125,-0.09587488778159022,0.972499755270779,0.6638146221101283
1772045244435305200,1.42330517578125,-0.06315612887591124,0.9962360201671719,0.8290718198060989
1772045244445291300,1.433291259765625,-0.05823796169608831,1.0691937043502926,0.9634960723429917
1772045244455277300,1.44327734375,-0.03313303879499435,1.1703744434550405,1.1589695446044206
1772045244465263000,1.45326318359375,0.0031377135038375852,1.2733774295508862,1.3936679427951573
1772045244475249200,1.463249267578125,-0.01495557706952095,1.3924959764063358,1.6944482941806316
1772045244485235200,1.473235107421875,-0.06469488275051116,1.4534575178474187,2.049165987458825
1772045244495220200,1.48322021484375,-0.11758271559029818,1.5246215966120362,2.3721412195175886
1772045244505206000,1.4932060546875,-0.16773907763957976,1.6487524186715483,2.629904266953468
1772045244515192300,1.5031923828125,-0.1886710987702012,1.7972566344872116,2.8968291104882953
1772045244525178000,1.51317822265625,-0.25034151913300157,1.9003861695721744,3.1610721675932405
1772045244535164200,1.5231640625,-0.3081245766684413,2.0143606315374374,3.4108804566323756
1772045244545150200,1.533150146484375,-0.3930817645944655,2.0943024755194783,3.646401861643791
1772045244555135200,1.54313525390625,-0.4716112575605511,2.095214914189279,3.878561096745729
1772045244565121300,1.553121337890625,-0.512781472338736,2.041259452117979,4.04068467259109
1772045244575107000,1.563107177734375,-0.49531917314529417,1.98686530636847,4.133210980597138
1772045244585093400,1.57309326171875,-0.4330314976669848,1.9776164165079593,4.141125406983495
1772045244595079200,1.5830791015625,-0.3896962138094008,2.03597099032104,4.093462323054671
1772045244605065200,1.593065185546875,-0.3181599407315254,2.0988509326040745,4.037466879588365
1772045244615051300,1.60305126953125,-0.24794950942993163,2.226498530612886,3.9239550666987895
1772045244625036300,1.613036376953125,-0.20205986491441724,2.431538872642815,3.725596394389868
1772045244635022000,1.62302197265625,-0.15202011498212814,2.651902163749933,3.5104438236683606
1772045244645008100,1.633008056640625,-0.08712678705006838,2.8635554941788315,3.2521213887840505
1772045244654994200,1.642994140625,-0.048198652110248805,3.02849880362004,2.9286013823240995
1772045244664980200,1.652980224609375,-0.02792114936560392,3.1606656326189637,2.607294375738501
1772045244674966000,1.662966064453125,-0.022848668406903742,3.205653067597747,2.308044302660227
1772045244684951000,1.672950927734375,-0.06106777829453349,3.141499452117085,2.0059581293731927
1772045244694937300,1.682937255859375,-0.12686463093757627,3.133379566286504,1.621109501725435
1772045244704923100,1.692923095703125,-0.07108385313525796,3.408044648684561,1.1139917542368174
1772045244714909200,1.7029091796875,0.04510565453097224,3.6954280506193635,0.6046557461768388
1772045244724895200,1.712895263671875,0.1690387620612979,3.8428289813682435,0.21590601943731308
1772045244734881300,1.72288134765625,0.26676526905894277,3.9794779242172833,-0.13650924211740492
1772045244744866000,1.732865966796875,0.32898411708474157,4.100501135650277,-0.4913438397735357
1772045244754852000,1.74285205078125,0.34878888775110245,4.258834963823855,-0.8240870171308518
1772045244764838100,1.752838134765625,0.23395561699941753,4.343547675469518,-1.0863450378984212
1772045244774824000,1.762823974609375,-0.009276654650270938,4.090454957932233,-1.301022392323613
1772045244784809700,1.772809814453125,-0.30043519120961426,3.5894063012242317,-1.5765981598258016
1772045244794796000,1.782796142578125,-0.5229284800827503,2.9052848041445016,-1.910667032828927
1772045244804781000,1.792781005859375,-0.6323159065186977,2.004864488917589,-2.2893512926280497
1772045244814766800,1.802766845703125,-0.6920262788549065,0.986992975525558,-2.6487556824177503
1772045244824753000,1.8127529296875,-0.6938602162837981,0.032034137642383574,-2.9767887823879717
1772045244834739000,1.822739013671875,-0.6260382875539362,-0.7882587479025125,-3.267414234983921
1772045244844725000,1.83272509765625,-0.5562228469192981,-1.471808582574129,-3.451105499514937
1772045244854710800,1.842710693359375,-0.4729445519909262,-1.8984283135026692,-3.4781115798622366
1772045244864697000,1.852697021484375,-0.41255788782835007,-2.0717413918823,-3.364479355463385
1772045244874681900,1.862681884765625,-0.3271849587082863,-2.022839706069231,-3.157354608374834
1772045244884668000,1.87266796875,-0.2114567849434912,-1.8166227214753627,-2.7404280039429665
1772045244894653700,1.88265380859375,-0.09643091422915458,-1.4364081833690403,-2.1774831552922724
1772045244904640000,1.892639892578125,0.03681085052490234,-0.9663350951611995,-1.6221236472040415
1772045244914625800,1.902625732421875,0.22451383491531013,-0.5675877060204744,-1.1211638378232718
1772045244924611800,1.91261181640625,0.5122982188664377,-0.3184317434102297,-0.6234013631790876
1772045244934597000,1.92259716796875,0.9814997849367558,-0.17501345255672932,-0.14279285243153572
1772045244944583000,1.9325830078125,1.4978572160661219,-0.08416063072085381,0.32174189087152477
1772045244954569000,1.94256884765625,1.9722797316551208,-0.15183599058687686,0.7894517570793628
1772045244964555000,1.952554931640625,2.3380573097385464,-0.2952653873562813,1.2172118902146816
1772045244974541000,1.962541015625,2.5712112549662587,-0.45314679558724164,1.564144920966029
1772045244984526800,1.97252685546875,2.6738275798320768,-0.6166518889188766,1.849168315771222
1772045244994512000,1.982511962890625,2.7023297439560294,-0.766347652606666,2.0961498569518326
1772045245004498000,1.992497802734375,2.6471009009480473,-0.7947709062755107,2.271107195407152
1772045245014484000,2.00248388671875,2.5021301199555395,-0.7334028298601508,2.3920383446425197
1772045245024469800,2.0124697265625,2.298126135236025,-0.6749772366374731,2.481754271402955
1772045245034456000,2.0224560546875,2.036126911535114,-0.6102610188379883,2.5276041684299706
1772045245044441900,2.03244189453125,1.7743290556252003,-0.5526560943484305,2.4979922894984483
1772045245054428000,2.042427978515625,1.5400583813272415,-0.47078152873814105,2.4115321496635675
1772045245064413000,2.052412841796875,1.367730806853622,-0.39279081882387396,2.302856670889258
1772045245074399000,2.06239892578125,1.2707155168652533,-0.26935323972553016,2.1877491132408378
1772045245084385000,2.072385009765625,1.1552663061723112,-0.0838771376043558,2.0966297494232653
1772045245094370800,2.082370849609375,1.0349250856541097,0.12054682609289884,2.0430834526747463
1772045245104357000,2.092357177734375,0.9198784644126892,0.29963907239586113,1.9867355425089597
1772045245114343000,2.102343017578125,0.8033166163027287,0.4203305676564574,1.879054919990897
1772045245124328000,2.112327880859375,0.6648069941483438,0.5234472432598472,1.7545505884438752
1772045245134313700,2.122313720703125,0.534494853105396,0.5750193173259497,1.6471014365941286
1772045245144300000,2.132300048828125,0.43555897031798957,0.5672933992490172,1.543152401819825
1772045245154285800,2.142285888671875,0.33370690782293677,0.5087874342665076,1.4211778810113667
1772045245164271900,2.15227197265625,0.25288418935313817,0.3695712712779641,1.280436700412631
1772045245174258000,2.1622578125,0.15193112152442334,0.1792436374723911,1.1432067428052424
1772045245184243000,2.172242919921875,0.0763384126625955,-0.036304946829378605,1.028584338325262
1772045245194229000,2.18222900390625,-0.011333879441022873,-0.2848752185061574,0.9265846840530634
1772045245204214800,2.19221484375,-0.07019523373246192,-0.4896522334247827,0.7708715597718954
1772045245214201000,2.202201171875,-0.06718479987010359,-0.5849784012824296,0.554026213657856
1772045245224187000,2.212186767578125,0.008821604359149932,-0.5518313339620828,0.2503355277836323
1772045245234173000,2.2221728515625,0.1584359733738005,-0.44948739629685874,-0.05191255806684494
1772045245244159000,2.232158935546875,0.33585824063792824,-0.32911563450992104,-0.32507951086163517
1772045245254144000,2.24214404296875,0.5261246457755565,-0.22323066323697566,-0.5561375067234039
1772045245264129800,2.2521298828125,0.7539208633624017,-0.18655016109347342,-0.776553112539649
1772045245274115800,2.26211572265625,0.9452233335494995,-0.19844927320182323,-0.9851572845309973
1772045245284102000,2.272101806640625,1.1150279654167592,-0.18305881184637546,-1.2036702715963123
1772045245294088000,2.282087890625,1.3672021068044007,0.15019757573008535,-1.5834230374097824
1772045245304073700,2.29207373046875,1.5236603503644466,0.8279875317007303,-2.0563152746915816
1772045245314059000,2.30205908203125,1.6243617815196514,1.3732657907575367,-2.225256129336357
1772045245324045000,2.312045166015625,1.593943116249889,1.6339847653895616,-2.1723919696331024
1772045245334030800,2.32203076171875,1.365403532949835,1.703335949513316,-2.059628929284215
1772045245344017200,2.33201708984375,1.012983449089527,1.5631518182754516,-1.8591005117207764
1772045245354003000,2.3420029296875,0.6186183666862547,1.0903051737010478,-1.608340036523342
1772045245363989000,2.351989013671875,0.31895006819590926,0.5032371066629886,-1.4760299996614454
1772045245373974800,2.361974853515625,0.13544424323439597,-0.012646131083369254,-1.4887076949268578
1772045245383960000,2.3719599609375,0.036476357873529194,-0.508303742402792,-1.5452128414809703
1772045245393945900,2.38194580078125,0.016285656629502772,-0.9873539177924394,-1.5862965470194816
1772045245403932000,2.391931884765625,0.04416194394007325,-1.3095897296607493,-1.648269895851612
1772045245413918000,2.40191796875,0.09301379926204681,-1.4119272375851868,-1.6630606377482413
1772045245423904000,2.411904052734375,0.17125439228415487,-1.3627379670023918,-1.552251654076576
1772045245433889800,2.421889892578125,0.24010171853899953,-1.167767768087983,-1.290654727566242
1772045245443876000,2.4318759765625,0.28760230538249015,-0.8557686880737543,-0.9785445883929729
1772045245453861000,2.441861083984375,0.3126138509117067,-0.47292555502951145,-0.7233627896219491
1772045245463847000,2.451846923828125,0.30548268385753036,-0.07439853064119815,-0.5854746603667735
1772045245473833000,2.4618330078125,0.2881915034472942,0.2928174096822738,-0.557920298486948
1772045245483819000,2.471819091796875,0.313541048759222,0.6055851359814405,-0.5865758996069431
1772045245493805000,2.48180517578125,0.40319983850494023,0.8538058635681867,-0.6633066725879907
1772045245503790800,2.491790771484375,0.5187174382589758,1.0175187544316053,-0.7707388733029366
1772045245513777000,2.50177685546875,0.6609117402754724,1.0758277355372905,-0.8703799817502498
1772045245523762000,2.511761962890625,0.8010460410222411,1.044798391023278,-0.9564087444305419
1772045245533748000,2.521748046875,0.906197145062685,0.936281317681074,-0.9998229387432336
1772045245543733800,2.531733642578125,1.0192715894483029,0.7801648732960224,-0.9984428825616836
1772045245553720000,2.541719970703125,1.0806535482585429,0.6217886672854424,-0.9723679455846548
1772045245563705900,2.551705810546875,1.0977553435765206,0.4776753799051046,-0.9153308841109276
1772045245573692000,2.56169189453125,1.089178215497732,0.39981706419885155,-0.7863952921181917
1772045245583678000,2.571677978515625,1.049413629733771,0.33557197104245423,-0.5903180087447166
1772045245593663000,2.5816630859375,0.9770416364841162,0.27510172024965285,-0.3351654360681772
1772045245603649000,2.59164892578125,0.8777122243344784,0.23816432073563337,-0.03824877437353134
1772045245613634800,2.601634765625,0.8253883089877665,0.29495617527663703,0.2801134109318256
1772045245623620900,2.611620849609375,0.7810882717512547,0.36124008078426123,0.563985297614336
1772045245633607000,2.62160693359375,0.7763023526489734,0.4299047439485788,0.8455132515192031
1772045245643593000,2.631593017578125,0.79641823509112,0.562028902849555,1.1891098313242197
1772045245653579000,2.6415791015625,0.8488038174971938,0.7472413855984806,1.5674737731277941
1772045245663564000,2.65156396484375,0.8800406672820449,0.966606313318014,1.8988304645627736
1772045245673549800,2.6615498046875,0.9313421077132225,1.2229288065567612,2.163582055711746
1772045245683536000,2.671535888671875,0.9716657886646688,1.5348206268042326,2.3644430662304163
1772045245693522000,2.68152197265625,0.9994574664317071,1.828403175640106,2.552107326045632
1772045245703508000,2.691508056640625,1.0561655882120131,2.035165226896107,2.753313789001107
1772045245713493800,2.70149365234375,1.1072517784573137,2.1753364986523986,2.9260832620233295
1772045245723480000,2.71147998046875,1.1831671434022486,2.2102903231337665,3.075737816917896
1772045245733464800,2.72146484375,1.242813948982954,2.1443267356216906,3.1691853314220904
1772045245743451000,2.731450927734375,1.2063010584913194,2.0312164892703293,3.141921476921439
1772045245753437000,2.74143701171875,1.1272051638141274,1.9126766190856694,3.0407734710425136
1772045245763423000,2.751423095703125,0.9959902287125587,1.8304297130316496,2.8969430922567843
1772045245773408800,2.76140869140625,0.8158183704793452,1.8087191087439656,2.75455765158236
1772045245783394000,2.77139404296875,0.6296645152270793,1.8177236684545874,2.6538164729386566
1772045245793380400,2.78138037109375,0.45361602053418754,1.8994854213401675,2.530210551536083
1772045245803365000,2.791365234375,0.3075331866465509,2.0108049848824736,2.5073370409488676
1772045245813351200,2.80135107421875,0.22395137872695922,2.068437089639902,2.598458742853999
1772045245823337000,2.8113369140625,0.19611177016496656,2.1331632443115116,2.6943711861670017
1772045245833323300,2.8213232421875,0.1981108350276947,2.2129183335497973,2.699463540869951
1772045245843309000,2.83130908203125,0.20603812089562415,2.259834690764546,2.5883155345022675
1772045245853295000,2.841295166015625,0.19970424169898032,2.2995868554383514,2.374483398729563
1772045245863281200,2.85128125,0.1980934455014765,2.3088880600079893,2.11642750582695
1772045245873267200,2.86126708984375,0.1848877808392048,2.268164419953525,1.800958119353652
1772045245883252200,2.871252197265625,0.15189385825395582,2.1811884395509957,1.5156553230851888
1772045245893238000,2.881238037109375,0.13594210975393653,2.058508400821686,1.3190437867045401
1772045245903224300,2.891224365234375,0.11583806388005613,1.8888702115625142,1.1621791543006896
1772045245913210000,2.901210205078125,0.09227730168104172,1.700497511216998,1.0594424179255961
1772045245923196200,2.911196044921875,0.14588365805372594,1.6015101905032991,0.9499889405161142
1772045245933182200,2.92118212890625,0.32912221038118,1.8107070676907895,0.7090776591598987
1772045245943168300,2.931168212890625,0.5933961010158062,2.463171736007929,0.26108079368174075
1772045245953153000,2.941153076171875,0.7420844412267208,3.3523478959038853,-0.20782032813727855
1772045245963139000,2.95113916015625,0.6312067762330174,4.035946245892346,-0.5073936418205499
1772045245973125000,2.961125,0.2663230782493949,4.312793640765547,-0.6294809753537177
1772045245983111200,2.971111083984375,-0.18680296681076286,4.183538899821043,-0.6481745699077844
1772045245993097000,2.981096923828125,-0.5355985765635967,3.7957910436004396,-0.7634703436046838
1772045246003083300,2.991083251953125,-0.7121241872489452,3.409823933316767,-1.0738672491192818
1772045246013069000,3.001069091796875,-0.7966717714607715,3.0646786627650258,-1.4269909512042998
1772045246023055000,3.01105517578125,-0.8816133234262465,2.6817782465755937,-1.6879495798110962
1772045246033041200,3.021041259765625,-0.9619824529096483,2.3069240664586426,-1.8133482298493384
1772045246043026200,3.031026123046875,-1.0626005896955728,2.0115891209974883,-1.8021710022747515
1772045246053012200,3.04101220703125,-1.2678767863079905,1.7567948602393268,-1.6577438266396523
1772045246062998000,3.050998046875,-1.5108292181029914,1.4617293793693185,-1.3173697160124778
1772045246072984300,3.060984375,-1.7294950576424597,1.1920917697444557,-0.8598544960826635
1772045246082970000,3.07097021484375,-1.8187877905547618,0.9913485403865575,-0.4029220444768667
1772045246092956200,3.0809560546875,-1.7860051726326345,0.8391156594365835,-0.14241349772512912
1772045246102942200,3.090942138671875,-1.7230451508507132,0.7507908947736024,-0.139504332280159
1772045246112928300,3.10092822265625,-1.6380360866069792,0.6774658385828137,-0.09098609282672404
1772045246122913000,3.1109130859375,-1.4904340803280471,0.5969421030595898,0.20776655212342737
1772045246132899300,3.1208994140625,-1.2436768494226038,0.5848138583704829,0.7280056469917296
1772045246142885000,3.130885009765625,-0.9358898341454565,0.5852665705740452,1.3615332673877476
1772045246152871200,3.14087109375,-0.6657575728714465,0.6117790221855044,1.9084610472172499
1772045246162857000,3.15085693359375,-0.43793066788539287,0.6124181968718767,2.286835510414839
1772045246172843300,3.16084326171875,-0.2830281293347478,0.600444265961647,2.4679431881934404
1772045246182829000,3.1708291015625,-0.19114457621164618,0.5337672694832086,2.469147303286195
1772045246192815000,3.180815185546875,-0.1646798361994326,0.40133857467770573,2.344217439803481
1772045246202800400,3.19080029296875,-0.18928470062389968,0.22553251043856143,2.037048264163732
1772045246212786200,3.2007861328125,-0.21464118713326752,0.025252806939184663,1.7153274160802363
1772045246222772200,3.210772216796875,-0.29599837780594823,-0.13455723126679658,1.3808388563603162
1772045246232758300,3.22075830078125,-0.38308030280098315,-0.29747020392417906,1.0658347493112086
1772045246242744300,3.230744384765625,-0.4096599013645202,-0.3725716221377253,0.8006593797922134
1772045246252730000,3.240730224609375,-0.43288639010787006,-0.411597518363595,0.5905944875985384
1772045246262716200,3.250716064453125,-0.43390228915214535,-0.48498102674335236,0.42038171332180496
1772045246272702200,3.2607021484375,-0.42170594766288994,-0.5114122298121452,0.2742138314992189
1772045246282688300,3.270688232421875,-0.34904008603319525,-0.4895061029523611,0.17719839538037777
1772045246292673000,3.280673095703125,-0.30609307084083553,-0.4298796095073223,0.12846154474020002
1772045246302659300,3.290659423828125,-0.29195348632931706,-0.39636955409348007,0.06295768369436264
1772045246312645000,3.30064501953125,-0.3115023825384676,-0.4122673804491758,-0.07118015311658382
1772045246322631200,3.310631103515625,-0.26142171607390047,-0.448349332177639,-0.11647592339217662
1772045246332617200,3.3206171875,-0.11353314793854952,-0.5426736295163631,-0.04354571173787117
1772045246342603300,3.330603271484375,0.05999883388876914,-0.631543168580532,0.08046762142181396
1772045246352589000,3.340589111328125,0.22242796855196356,-0.6819523363471031,0.21314766063988208
1772045246362575000,3.3505751953125,0.25879224435314535,-0.6887146700888872,0.2897574375897646
1772045246372560400,3.360560302734375,0.21102511552795766,-0.6757990744143724,0.35331893239617346
1772045246382546200,3.370546142578125,0.1720410126172006,-0.66974225859344,0.4352992964684963
1772045246392532200,3.3805322265625,0.12490312160626053,-0.6888309899449349,0.5338093550592661
1772045246402518300,3.390518310546875,0.11742591759338974,-0.7680641011357306,0.6180874746799468
1772045246412504300,3.40050439453125,0.13274857440963386,-0.8828028254717588,0.6469079109728336
1772045246422490000,3.410489990234375,0.11265841093063354,-1.0240490329831837,0.5821347022891045
1772045246432476200,3.42047607421875,0.11450418492779135,-1.1319535273849963,0.5111100319951772
1772045246442462200,3.430462158203125,0.10669394956827163,-1.166052196341753,0.45352644255459307
1772045246452448300,3.4404482421875,0.08011471633091569,-1.2158417709052562,0.49863165869414805
1772045246462433000,3.45043310546875,0.06024214112535119,-1.2619038493782282,0.5647416689395904
1772045246472419300,3.46041943359375,0.07809110154882073,-1.2340478742033243,0.5935071601748466
1772045246482405000,3.470405029296875,0.06269932501912116,-1.223361645016074,0.5819990932106971
1772045246492391200,3.48039111328125,0.03787599553838372,-1.2202537421286106,0.5306237107604742
1772045246502377200,3.490377197265625,-0.03837634627595544,-1.2629542352139949,0.43309214181303973
1772045246512363300,3.50036328125,-0.15347776644453406,-1.3753583791226147,0.20844810464680194
1772045246522349000,3.51034912109375,-0.28522797746658324,-1.5763175893187522,-0.05538169548213481
1772045246532335400,3.52033544921875,-0.3502374791242182,-1.7340642652541398,-0.328164617395401
1772045246542321200,3.530321044921875,-0.4221509149514138,-1.8741122028917072,-0.5657517227649689
1772045246552306200,3.54030615234375,-0.5093957754231989,-2.048919903743267,-0.7518015331208705
1772045246562292200,3.550292236328125,-0.562929651081562,-2.268264665457606,-0.9459317740797996
1772045246572278300,3.5602783203125,-0.5600177091576158,-2.500930681037903,-1.2058470311135052
1772045246582264000,3.57026416015625,-0.4945123868070542,-2.720399945914745,-1.5117255824208258
1772045246592250000,3.58025,-0.3175989458478987,-2.8315111274033784,-1.882329996138811
1772045246602236200,3.590236083984375,-0.13255217505469918,-2.7651088562130925,-2.2959768482476473
1772045246612222200,3.60022216796875,-0.00005596797093749046,-2.60170225481987,-2.68346400770545
1772045246622208000,3.6102080078125,0.10482815569639205,-2.508669750857353,-2.9920564941465853
1772045246632193000,3.620193115234375,0.17941534077748655,-2.424236148414016,-3.299920666313171
1772045246642179300,3.630179443359375,0.2530592536590993,-2.3143109618395568,-3.679644206032157
1772045246652165000,3.6401650390625,0.42419571865200995,-2.1396324403256175,-4.126971793946623
1772045246662151200,3.650151123046875,0.6217186707891523,-1.926390671661496,-4.587307331994175
1772045246672137200,3.66013720703125,0.8349110473535954,-1.8084288936257362,-4.973701435518264
1772045246682123300,3.670123291015625,0.990016122739017,-1.7403566433966158,-5.2570981059044595
1772045246692109000,3.680109130859375,1.0648248416163026,-1.7185434555172918,-5.4153644217997785
1772045246702095400,3.690095458984375,1.0769488485217094,-1.7396277446001767,-5.4680345202356575
1772045246712081200,3.7000810546875,1.0623381393671034,-1.7173229738116262,-5.409118220886588
1772045246722067200,3.710067138671875,0.9980303562380373,-1.6707745731264352,-5.215393638119101
1772045246732052000,3.720052001953125,0.8700735461495817,-1.687086240980029,-4.930160984477401
1772045246742038300,3.730038330078125,0.703309451021999,-1.7197510777413845,-4.626597139853239
1772045246752024000,3.740024169921875,0.5056089503608644,-1.777708761191368,-4.276381434169411
1772045246762010000,3.750010009765625,0.3055810296654701,-1.8737346017509697,-3.8707781877845524
1772045246771996200,3.75999609375,0.06989844274297356,-1.9834575437515973,-3.5153637444138526
1772045246781983200,3.769983154296875,-0.09516030977144836,-2.0115496657699343,-3.1988001329630613
1772045246791969000,3.779968994140625,-0.2083155643083155,-1.9233020579963922,-2.890257915404439
1772045246801955000,3.789955078125,-0.2984802577495575,-1.768542288917303,-2.525749480473995
1772045246811939800,3.79993994140625,-0.35384880148917436,-1.5360235728532075,-2.114400383913517
1772045246821926100,3.809926025390625,-0.4228573096551001,-1.224042613017559,-1.7115321154505014
1772045246831912000,3.819911865234375,-0.5281061749815941,-0.8952192394524812,-1.3515648310810326
1772045246841898000,3.82989794921875,-0.7224559039101004,-0.6472644693255424,-1.0367617995619773
1772045246851884000,3.839884033203125,-0.9975066246248782,-0.491665911334753,-0.763359868967533
1772045246861870000,3.8498701171875,-1.2612334027707577,-0.4159761718392372,-0.5484551355272531
1772045246871855900,3.85985595703125,-1.481813405368477,-0.43530981786251066,-0.4219102380633354
1772045246881842200,3.86984228515625,-1.5915185194514692,-0.5391717588752508,-0.373583137267828
1772045246891828000,3.879827880859375,-1.577203724503517,-0.6930149976313114,-0.35567630917727944
1772045246901814000,3.88981396484375,-1.4578501998484135,-0.8422504503309726,-0.4250310004323721
1772045246911799000,3.899799072265625,-1.2805096195183694,-0.9153554340302944,-0.43952714329659937
1772045246921785000,3.90978515625,-1.1091453371189535,-0.9646534256845712,-0.29682722984552384
1772045246931771100,3.919771240234375,-1.004176019386202,-0.9475713579803705,-0.1397732123494148
1772045246941757000,3.9297568359375,-0.9586826807118952,-0.865465321701765,-0.03248831115067005
1772045246951743200,3.9397431640625,-0.9460906179033219,-0.7536421925514936,0.017079729616641996
1772045246961729000,3.94972900390625,-0.9594063188113272,-0.6205325297445059,0.007471358793973922
1772045246971715000,3.959715087890625,-0.9616158115543425,-0.4468547097057104,0.016937106275558472
1772045246981701000,3.969701171875,-0.887932151184231,-0.2544382869273424,0.03228489753305912
1772045246991686100,3.97968603515625,-0.7599732952691615,-0.08110065862834454,0.034417817908525467
1772045247001672000,3.989671875,-0.6089338618874549,0.04593056104779243,-0.03370528572499752
1772045247011658000,3.999657958984375,-0.47178266860470175,0.1476446763768792,-0.1532148777246475
1772045247021644000,4.00964404296875,-0.34211934685930606,0.23175971439033746,-0.24860066681504248
1772045247031630000,4.019630126953125,-0.22132468348518014,0.34451106430143114,-0.29177988332808014
1772045247041616000,4.029615966796875,-0.12771218767762182,0.4349886230841279,-0.21927987978458402
1772045247051602200,4.039602294921875,-0.05499079646840691,0.5115060455754399,-0.06015197862386703
1772045247061588000,4.049587890625,-0.013873042529821395,0.5603919492974877,0.08850362836122512
1772045247071574000,4.059573974609375,-0.010218465545028447,0.5793266591310501,0.22758476679325101
1772045247081559000,4.06955908203125,-0.05891308447867632,0.5353142066642642,0.3657902914345264
1772045247091545000,4.079545166015625,-0.12746332748308778,0.4869935356095433,0.49659986060559747
1772045247101531100,4.08953125,-0.17433935268744824,0.48705666397362946,0.6099468383222818
1772045247111517000,4.099516845703125,-0.17783830071911214,0.53594695160985,0.7449503520518541
1772045247121503200,4.109503173828125,-0.17816928623914718,0.6304942440494895,0.9117384125769138
1772045247131489000,4.119489013671875,-0.1772844662286341,0.7291741062492132,1.0928010821700096
1772045247141475000,4.12947509765625,-0.17750293128490446,0.861478005631268,1.2930991981089115
1772045247151461000,4.139461181640625,-0.20371873803734777,1.0101917725443839,1.5146867703139781
1772045247161447200,4.149447265625,-0.21621830025687813,1.1466682814359663,1.7406985887020825
1772045247171432000,4.159431884765625,-0.23166721380129454,1.2443868973881005,1.9418074365019797
1772045247181418000,4.16941796875,-0.24440248447284102,1.317429044984281,2.0909043575137853
1772045247191404000,4.179404052734375,-0.2596750185370445,1.369328451308608,2.2249229518592357
1772045247201390000,4.18939013671875,-0.26546426946297286,1.378675833107531,2.3342384821027515
1772045247211375900,4.1993759765625,-0.2707600377835333,1.3732272123128175,2.43534323336184
1772045247221362200,4.209362060546875,-0.27391645598784087,1.3514260071322322,2.528243635377288
1772045247231348000,4.219347900390625,-0.25628376866355534,1.3327476101472973,2.5938474496662614
1772045247241334000,4.229333984375,-0.20940730506777763,1.3645526152089238,2.629941676354408
1772045247251320000,4.239320068359375,-0.17089812619239092,1.467520822252333,2.6503064189910885
1772045247261305000,4.24930517578125,-0.13652093255519865,1.6431743262782692,2.6674457698404788
1772045247271291100,4.259291015625,-0.13173369827866555,1.8639234018325805,2.6789117512285707
1772045247281277000,4.26927685546875,-0.1559131768979132,2.1517449029237032,2.6378321373432874
1772045247291263000,4.279262939453125,-0.21615750998035071,2.4633608288392423,2.551016608199477
1772045247301249000,4.2892490234375,-0.2587514739513397,2.75817584207952,2.3837176755428313
1772045247311235000,4.299235107421875,-0.22151041531562804,2.937751780246198,2.1099650318145753
1772045247321221000,4.30922119140625,-0.0036636370740830895,2.8515359705612062,1.8796674989312887
1772045247331207000,4.31920703125,0.3705705114483833,2.5863313749477266,1.5485726733028888
1772045247341192000,4.32919189453125,0.9155531485594809,2.472429393696785,1.0778004969149828
1772045247351178000,4.339177978515625,1.5345686978697777,2.811097577188909,0.45058629744946954
1772045247361164000,4.3491640625,1.9235761987626552,3.1331220843940972,0.06335515857934951
1772045247371150000,4.359150146484375,2.049559370690584,3.120997346836328,-0.11247019488215446
1772045247381136000,4.369135986328125,1.991633397553116,2.972190933203697,-0.25487083312571046
1772045247391122200,4.3791220703125,1.852006023415178,2.6907626402810214,-0.46922611598968506
1772045247401108000,4.38910791015625,1.6828021339200436,2.389721592132747,-0.8735919295340776
1772045247411094000,4.399093994140625,1.49187405000329,2.0356737609401345,-1.2596820816755294
1772045247421080000,4.409080078125,1.123509231905639,1.5348101054102181,-1.5564134499311446
1772045247431065000,4.419065185546875,0.6039819385685026,0.9512740118905901,-1.7933681026160715
1772045247441051000,4.42905078125,0.14940832504853604,0.3522118479371071,-1.958842157933116
1772045247451037000,4.439036865234375,-0.21107567667141555,-0.17121990549266336,-2.1401590945482254
1772045247461023000,4.44902294921875,-0.48404842206835746,-0.6489391245394944,-2.2938205469965935
1772045247471009000,4.459009033203125,-0.6578899082362651,-1.1170306835412978,-2.3088415905177593
1772045247480994800,4.468994873046875,-0.6434395042099058,-1.5099369454383849,-2.244315050071478
1772045247490981000,4.478981201171875,-0.4395816499628126,-1.751484771132469,-2.121507585570216
1772045247500967000,4.488966796875,-0.19726094020009038,-1.888549893566966,-1.9339958859682083
1772045247510952000,4.498951904296875,0.02371039980277419,-1.9111118539869785,-1.6698656415879725
1772045247520938200,4.508938232421875,0.13708192743882536,-1.9062883793532848,-1.3970342043578623
1772045247530924000,4.518924072265625,0.17331074029207227,-1.824761019745469,-1.1142232249051331
1772045247540910000,4.52891015625,0.18159794551357625,-1.7002461668044329,-0.8758014222770929
1772045247550895900,4.538895751953125,0.18179025321528314,-1.594732951453328,-0.7474947758376598
1772045247560882200,4.548882080078125,0.1279272917330265,-1.4725813205122946,-0.6525017854571342
1772045247570868000,4.558867919921875,0.03984788013324141,-1.3500316301643847,-0.5478747052907943
1772045247580854000,4.56885400390625,-0.089693714928627,-1.195371814328432,-0.4049649484813213
1772045247590840000,4.578840087890625,-0.25635727229118344,-1.0509458077371119,-0.2638268775194883
1772045247600825000,4.5888251953125,-0.41184155625253915,-0.8899486055731772,-0.11257833143174648
1772045247610811000,4.598810791015625,-0.5721173122741282,-0.7383160286039113,0.07115268058776855
1772045247620797200,4.608797119140625,-0.7477204012870788,-0.6267278772532939,0.2529734750717878
1772045247630783000,4.618782958984375,-0.9707646020412445,-0.565755229896307,0.4181277969151735
1772045247640769000,4.62876904296875,-1.2015198155641555,-0.575344896018505,0.5257306780219078
1772045247650754800,4.6387548828125,-1.3948419550105928,-0.6482862135887145,0.5572282245695591
1772045247660741000,4.6487412109375,-1.5337399919606745,-0.7761182282537221,0.469811806923151
1772045247670727000,4.658726806640625,-1.6132310234352945,-0.9520043719917535,0.2955336829036474
1772045247680712000,4.6687119140625,-1.6586781848803163,-1.16932142727077,0.08544365626871585
1772045247690698200,4.6786982421875,-1.6832641984738408,-1.4005460118710993,-0.16800678866505622
1772045247700684000,4.68868408203125,-1.6556455391861498,-1.5830559576630592,-0.39593233171999453
1772045247710670000,4.698670166015625,-1.6013362952411174,-1.7272767970710992,-0.5876636948436498
1772045247720656100,4.70865625,-1.5416438969530164,-1.8291648076623677,-0.7389683550328016
1772045247730642200,4.71864208984375,-1.451748960363865,-1.9150415946513413,-0.8132704395622015
1772045247740628000,4.7286279296875,-1.3444970846518873,-1.944776223179698,-0.869885476231575
1772045247750614000,4.738614013671875,-1.2300900764882563,-1.9529811569452284,-0.8976455898165703
1772045247760599000,4.74859912109375,-1.099765222094208,-1.9299124160468577,-0.9063678254544735
1772045247770585000,4.758585205078125,-0.9676118370987474,-1.8859703984677791,-0.9155851511329411
1772045247780571400,4.7685712890625,-0.8525314597181975,-1.7951906418681143,-0.9706582190573215
1772045247790557400,4.778557373046875,-0.8055496360518037,-1.7290186723023653,-1.0492582930415868
1772045247800543500,4.78854345703125,-0.7797916560694574,-1.6863959206283092,-1.1605191121339797
1772045247810529500,4.798529541015625,-0.7187494506075978,-1.6445745484650134,-1.2756857064932583
1772045247820515300,4.808515380859375,-0.6281615633182227,-1.655932977825403,-1.351398242342472
1772045247830501600,4.818501708984375,-0.5101556538797914,-1.7034177825778722,-1.3457599441945551
1772045247840486400,4.828486328125,-0.3863130011118948,-1.783195668169856,-1.2909803062587977
1772045247850472400,4.838472412109375,-0.2784112831890583,-1.8930097955852745,-1.262653790962696
1772045247860458500,4.84845849609375,-0.19907032770961522,-1.9508271937817334,-1.25844990953207
1772045247870444500,4.858444580078125,-0.16127864945381878,-1.9769190818935631,-1.2090297528028486
1772045247880430300,4.868430419921875,-0.13310805537179113,-1.9629022469788788,-1.1298369736224412
1772045247890416400,4.87841650390625,-0.11005962660908698,-1.9155711714833974,-1.1006062029629946
1772045247900402400,4.88840234375,-0.1988014476403594,-1.8896353507161139,-1.077913894161582
1772045247910387500,4.898387451171875,-0.2230851172864437,-1.8163614401906727,-1.0932108320146798
1772045247920373500,4.90837353515625,-0.21066636521816254,-1.6910516374796627,-1.1612333978831768
1772045247930359300,4.918359375,-0.2285351993858814,-1.612252826052904,-1.1943009702265261
1772045247940345600,4.928345703125,-0.23352555501908062,-1.4509937580823897,-1.264285776078701
1772045247950331400,4.938331298828125,-0.12776041073352098,-1.2049796006292104,-1.392560858336091
1772045247960317400,4.9483173828125,-0.07426438286751508,-1.0619880107551813,-1.4426818568110464
1772045247970303500,4.958303466796875,-0.05330211272910237,-1.0380524238944053,-1.4724644161343574
1772045247980289500,4.96828955078125,-0.0583506282903254,-1.1271347289264202,-1.520026377776265
1772045247990274300,4.9782744140625,-0.06104658937603235,-1.2919067734539509,-1.6092349395364522
1772045248000260400,4.98826025390625,-0.013780688071250914,-1.4899597408145666,-1.7177993591517209
1772045248010246400,4.998246337890625,0.14280805000066757,-1.44620009406507,-1.9460820450812577
1772045248020232400,5.008232421875,0.3242483207345009,-0.9996411524355411,-2.29947754984498
1772045248030218200,5.01821826171875,0.3499447797879576,-0.5001122526407241,-2.4896961703181266
1772045248040204500,5.02820458984375,0.21267010625600813,-0.09717617963850497,-2.5688451103568077
1772045248050190300,5.0381904296875,0.007239888125658035,0.23901626138985155,-2.724719562679529
1772045248060176400,5.04817626953125,-0.2026899795114994,0.4373486302137375,-2.900934207719564
1772045248070161400,5.058161376953125,-0.41556949073448773,0.4987357035905122,-3.1127988428115843
1772045248080147500,5.0681474609375,-0.6548422111034393,0.36726036398708817,-3.306603505077958
1772045248090133500,5.078133544921875,-0.7919993957355618,0.06028641865849495,-3.438901266980171
1772045248100119300,5.088119384765625,-0.8169006127581,-0.4358832338362932,-3.4679216097593306
1772045248110105600,5.098105712890625,-0.8047204917512834,-1.0721166060596703,-3.362435866937041
1772045248120091400,5.10809130859375,-0.7417838508449495,-1.6709920152693987,-3.171636231705546
1772045248130077400,5.118077392578125,-0.5617756587408482,-2.0317852290689946,-2.9237136102825403
1772045248140062500,5.1280625,-0.3794517370402813,-2.078757992646098,-2.7051433400720355
1772045248150048500,5.138048583984375,-0.398824984421581,-1.9214046999424694,-2.4577806906193493
1772045248160034300,5.148034423828125,-0.5838963051341474,-1.6120231089502572,-2.145511561492085
1772045248170020400,5.158020263671875,-0.8109284064806997,-1.2531027032852171,-1.814404460904002
1772045248180006400,5.16800634765625,-0.9857048354111612,-0.8510112644135952,-1.4709458282649517
1772045248189992400,5.177992431640625,-1.0996040401831269,-0.41423488112986084,-1.198486146956682
1772045248199978200,5.187978271484375,-1.1795489529050887,-0.049427755513787267,-0.9782669404953718
1772045248209963500,5.197963623046875,-1.2453276853695512,0.2270019984692335,-0.846382435569167
1772045248219949600,5.207949462890625,-1.2756804457962512,0.36395313913524147,-0.7400596574008464
1772045248229935400,5.217935302734375,-1.2581542875863612,0.43916064807176586,-0.7198796236813068
1772045248239921700,5.227921630859375,-1.2246630830034613,0.40448388696610926,-0.6798983264267444
1772045248249907500,5.237907470703125,-1.2036895608186722,0.29988018767535685,-0.5271984124869108
1772045248259893500,5.2478935546875,-1.1980281740561127,0.21193419319689272,-0.2960854715675115
1772045248269879300,5.25787939453125,-1.2281015330195426,0.07994622789621353,-0.05221183327436447
1772045248279865600,5.267865478515625,-1.2732438662990926,0.030464696368575093,0.19739362666904925
1772045248289850400,5.277850341796875,-1.3212798751935362,0.02280219891667366,0.419590855205059
1772045248299836400,5.28783642578125,-1.3650862836942075,-0.02435059740245342,0.5985831482648849
1772045248309822500,5.297822509765625,-1.2751127289108932,0.0325339038580656,0.7860276278495788
1772045248319808500,5.30780859375,-0.9846144098259508,-0.15149579884707925,0.8779010249048471
1772045248329794300,5.317794189453125,-0.8227858714044094,-0.20564912157803772,0.7968611565530299
1772045248339779300,5.327779296875,-0.9126412066355347,0.04471241742968559,1.1888777761340141
1772045248349765600,5.337765625,-0.9348270272195338,0.06411357573121786,1.5608119771510363
1772045248359751400,5.34775146484375,-0.8591153681531548,0.14025865777879953,1.8265373817682264
1772045248369737500,5.357737548828125,-0.7620411875844001,0.16953122175335883,1.9462211612910032
1772045248379723500,5.3677236328125,-0.779436266760528,0.30725013192147016,1.9189163902580737
1772045248389709600,5.37770947265625,-0.886439136147499,0.3037427083224058,1.9290788878321647
1772045248399695400,5.3876953125,-1.0436780086912214,0.33999738626927134,1.9024755430668592
1772045248409680400,5.397680419921875,-1.1892241053536534,0.45797319283038374,1.8593208764731883
1772045248419666400,5.40766650390625,-1.3220014674663543,0.5869613917931914,1.8643302290678023
1772045248429652500,5.417652587890625,-1.4261410563766956,0.7327256612509488,1.8847797273784874
1772045248439638300,5.42763818359375,-1.5039236764982342,0.9420482106447219,1.8726421303391456
1772045248449624600,5.43762451171875,-1.5902300870761275,1.181917289471626,1.8127958566635847
1772045248459610400,5.4476103515625,-1.6663433126807212,1.401462249933183,1.733213785904646
1772045248469596400,5.457596435546875,-1.7572583860978483,1.600221611997485,1.6436808144956827
1772045248479581400,5.46758154296875,-1.8601751552149652,1.7220210684999822,1.5401754318356513
1772045248489567500,5.4775673828125,-1.9457018135920165,1.76098529766649,1.4068980112463234
1772045248499553500,5.487553466796875,-1.981613377189636,1.7778493387058376,1.2065572252094745
1772045248509539300,5.497539306640625,-1.9494670113444328,1.7875468491166828,0.9470622394144534
1772045248519525600,5.507525634765625,-1.8889751332417128,1.8384040529116987,0.610990794417262
1772045248529511400,5.517511474609375,-1.8172043207556008,1.9617925321713088,0.2410924831420183
1772045248539497500,5.52749755859375,-1.793507218825817,2.1343112453028557,-0.07349135266840458
1772045248549483500,5.5374833984375,-1.7885788225129247,2.3473645056575534,-0.3447311367928982
1772045248559468500,5.547468505859375,-1.797645926065743,2.579889359201491,-0.6015098493665456
1772045248569454300,5.557454345703125,-1.8490180936455725,2.653409061181545,-0.7685907553583383
1772045248579440400,5.5674404296875,-1.8926687270626426,2.5719988982126116,-0.8626905962914228
1772045248589426400,5.577426513671875,-1.8596040773287414,2.465129299816489,-0.9885708923667669
1772045248599412500,5.58741259765625,-1.8038906656742095,2.338582648786902,-1.1162409944683314
1772045248609398300,5.597398193359375,-1.6938298700213432,2.2268419372230768,-1.1873685406148433
1772045248619383600,5.607383544921875,-1.5031673051729797,2.350045415304601,-1.3660305788069962
1772045248629369600,5.61736962890625,-1.3108651564240454,2.8203616646185514,-1.6057324843734502
1772045248639355400,5.62735546875,-1.2640534286275504,3.183871736161411,-1.5654793844401835
1772045248649341400,5.637341552734375,-1.3753297375500202,3.3265108593359587,-1.3134884906649589
1772045248659327500,5.647327392578125,-1.5135589353278278,3.337861105389893,-1.0324088650494814
1772045248669313500,5.6573134765625,-1.5591919747337697,3.177235659147799,-0.836459007447958
1772045248679299300,5.66729931640625,-1.5161200179874896,2.8665131749406454,-0.7516314372509717
1772045248689284600,5.67728466796875,-1.3596765336051582,2.4172356220021842,-0.6529951219320297
1772045248699270400,5.6872705078125,-1.1767761271908879,1.9172540100038051,-0.4578513200163841
1772045248709256400,5.69725634765625,-0.986114439125359,1.461506092007458,-0.20824702911674975
1772045248719242500,5.707242431640625,-0.8240481464251875,1.0855576869130135,0.04697919331789016
1772045248729228500,5.717228515625,-0.6541068825662135,0.7408242120325564,0.29240473722815513
1772045248739214300,5.72721435546875,-0.5287175848782062,0.37850627288371325,0.5231558590978383
1772045248749200400,5.737200439453125,-0.41500235837101934,0.02216740814447403,0.6899521029293537
1772045248759186400,5.7471865234375,-0.261494342918694,-0.28164719637036323,0.7265268066108226
1772045248769172500,5.75717236328125,-0.04824263738244772,-0.5073986102566123,0.627093203434348
1772045248779157800,5.76715771484375,0.20231223224028944,-0.7379188459798693,0.4763607901751995
1772045248789142800,5.777142822265625,0.4157644287846982,-0.9659534023672341,0.31365795313715933
1772045248799128800,5.78712890625,0.6040434594973921,-1.1967939560860394,0.20084405938386915
1772045248809114600,5.797114501953125,0.8050359874412417,-1.3377823894441128,0.09984686015248298
1772045248819101000,5.807100830078125,1.0116143526934087,-1.332462655726075,0.03215571819543838
1772045248829086700,5.817086669921875,1.1490518155716358,-1.2032242813944816,0.001319265905022621
1772045248839072800,5.82707275390625,1.1958496609732507,-0.9974234763860702,0.08895020308494567
1772045248849058800,5.837058837890625,1.1566903476260602,-0.741593442839384,0.3103296854972839
1772045248859043800,5.8470439453125,1.0793475802265107,-0.45474575521647925,0.6456190402060746
1772045248869030000,5.85702978515625,0.9606595337428152,-0.2261176168501377,1.0337871676653623
1772045248879015700,5.867015625,0.764996384128183,-0.05110299524962902,1.374557584133744
1772045248889001700,5.877001708984375,0.5565408268272877,0.022428689429163932,1.671032347279787
1772045248898987800,5.88698779296875,0.39001857763156295,0.037510815487802024,1.884226769670844
1772045248908973600,5.8969736328125,0.2804021647453308,0.03175707426667213,2.0228794535577297
1772045248918958800,5.906958740234375,0.18397811864838004,-0.010789105039834976,2.105938260516524
1772045248928945000,5.91694482421875,0.08668781111091375,-0.11021394038796424,2.1927485289633273
1772045248938930700,5.9269306640625,0.01801832564100623,-0.20479133570492267,2.3259154749155044
1772045248948916700,5.936916748046875,-0.047463323573023075,-0.2960965774834156,2.4667291362285613
1772045248958902800,5.94690283203125,-0.10329334734454751,-0.36429566896259785,2.5691122368603945
1772045248968888800,5.956888916015625,-0.15990063909888266,-0.4719949961811304,2.595170807224512
1772045248978874600,5.96687451171875,-0.16616685988679528,-0.6255541572988033,2.541018361276388
1772045248988860000,5.97685986328125,-0.10880772685185074,-0.7463409296274185,2.4335557654231783
1772045248998845700,5.986845703125,-0.04993818925395608,-0.7918623253524303,2.2546739470005033
1772045249008831700,5.996831787109375,0.02531198978051543,-0.7870347590655088,2.0621014568775893
1772045249018817800,6.00681787109375,0.09472513322457671,-0.7529319984555244,1.8878385304272174
1772045249028803800,6.016803955078125,0.12892200185880065,-0.6723211691707373,1.7303233251601458
1772045249038789600,6.02678955078125,0.23356895576938985,-0.5789882209569216,1.5399913074404001
1772045249048774700,6.036774658203125,0.3727425947904587,-0.4839718497008085,1.3107125962108372
1772045249058761000,6.046760986328125,0.48563832160830495,-0.4065659539371729,1.037791727131605
1772045249068746800,6.056746826171875,0.5523566730104387,-0.3234919494092464,0.7673913164407015
1772045249078732800,6.06673291015625,0.5491571463167667,-0.3190367235660553,0.46485506129860876
1772045249088718800,6.07671875,0.5813781848333776,-0.3565764728873968,0.13642448644340038
1772045249098705000,6.086704833984375,0.6641977762088179,-0.4183165974855423,-0.16438158390522004
1772045249108690700,6.096690673828125,0.7219500002145767,-0.5850514665186405,-0.43764030663669107
1772045249118675700,6.10667578125,0.7724338406525552,-0.7276222006320953,-0.7158721416056155
1772045249128661800,6.116661865234375,0.79440397265926,-0.8694067528039217,-0.9829746797949075
1772045249138647800,6.126647705078125,0.7929926445566118,-0.9978501773655414,-1.2205828279525042
1772045249148633600,6.136633544921875,0.7709387797892093,-1.0537240402787924,-1.4942816956669092
1772045249158620000,6.146619873046875,0.698552758014202,-1.0224515346586704,-1.7897598489910362
1772045249168605700,6.156605712890625,0.6276503989256919,-0.9061158965200186,-2.04855983825922
1772045249178590700,6.1665908203125,0.5547310009263455,-0.7545552157431841,-2.261834340149164
1772045249188576800,6.17657666015625,0.5288261598192155,-0.6057663377672433,-2.4880530792862174
1772045249198562800,6.186562744140625,0.558004177378118,-0.5233627798467875,-2.7292864322036503
1772045249208548900,6.196548828125,0.6250758722625672,-0.5787310313254594,-2.9688778631329535
1772045249218534700,6.20653466796875,0.7520866336725652,-0.7649100210189819,-3.1914328190654513
1772045249228521000,6.21652099609375,0.8988662176527082,-1.0481979703336954,-3.355895651513338
1772045249238506800,6.2265068359375,1.0899135440349579,-1.240924774235487,-3.5802784073948857
1772045249248491800,6.23649169921875,1.3287443658553064,-1.0310486826121807,-3.9594712012380358
1772045249258477600,6.2464775390625,1.453816998809576,-0.63947337705791,-4.272995883384347
1772045249268463900,6.2564638671875,1.4047932940520345,-0.4258779726505279,-4.2817830009520055
1772045249278449700,6.26644970703125,1.1918342878520487,-0.45880642878413197,-4.1394624422073365
1772045249288435700,6.276435791015625,0.9479716093443333,-0.6989531555086373,-3.9751878258079287
1772045249298421800,6.286421875,0.8495863461770117,-0.8874830922424792,-4.023808941113948
1772045249308406800,6.29640673828125,0.8607401928760111,-1.0108452680170537,-4.158949817487597
1772045249318392800,6.306392822265625,0.8679320040762424,-1.2139777305990458,-4.236317134806513
1772045249328378600,6.316378662109375,0.8461268533729016,-1.4484090022861957,-4.300286625891924
1772045249338365000,6.326364990234375,0.7654162169754505,-1.7255629788905382,-4.309144470608234
1772045249348350700,6.336350830078125,0.6387970852315425,-2.065465964874625,-4.248973787283897
1772045249358336800,6.346336669921875,0.5492037619374692,-2.3524597829699516,-4.129450166758895
1772045249368321800,6.35632177734375,0.46478491867184635,-2.5670260782361027,-3.9195162074685093
1772045249378307800,6.366307861328125,0.39852673212736844,-2.662864871791005,-3.626520518609881
1772045249388293600,6.376293701171875,0.29456147687062617,-2.65256091991961,-3.2707208753138777
1772045249398280000,6.386280029296875,0.14549188225716353,-2.6197014373689886,-2.832633993953466
1772045249408265700,6.396265625,0.02012041248679161,-2.555071436548233,-2.41193780785501
1772045249418251800,6.406251708984375,-0.05229951155781746,-2.435214638546109,-2.08897485075593
1772045249428236800,6.41623681640625,-0.07325359838977456,-2.2626690374076364,-1.8522914162278175
1772045249438222800,6.426222900390625,-0.06005392507687211,-2.0596254221528767,-1.6495348012208937
1772045249448209000,6.436208984375,-0.08064312411919236,-1.822535744911432,-1.4827607692211866
1772045249458194700,6.446194580078125,-0.16611892909184098,-1.6018383995443581,-1.318290337988734
1772045249468181000,6.456180908203125,-0.25666706889271734,-1.441248609137535,-1.1456710870921611
1772045249478166800,6.466166748046875,-0.37095746493935583,-1.3268477384537458,-1.0078706361204386
1772045249488151800,6.47615185546875,-0.4456780671417713,-1.25126964263916,-0.8884861318051814
1772045249498137600,6.4861376953125,-0.48062429283857344,-1.207235270601511,-0.8151783190101385
1772045249508124000,6.4961240234375,-0.4685574229478836,-1.1557283707261086,-0.7809294279277325
1772045249518109700,6.506109619140625,-0.4099241783238947,-1.0741805528521537,-0.7578215240627527
1772045249528095700,6.516095703125,-0.38683278720229863,-0.9508493567377329,-0.7352402744203805
1772045249538081800,6.526081787109375,-0.4133377861596644,-0.7536316711574792,-0.6787450647383928
1772045249548066800,6.53606689453125,-0.4892120884418487,-0.5350941341727972,-0.6007844577014446
1772045249558052900,6.546052978515625,-0.5829892732918263,-0.265880887439847,-0.4963800803750753
1772045249568038700,6.55603857421875,-0.6933703869402408,0.03348901262581348,-0.36057518713474274
1772045249578025000,6.56602490234375,-0.8472142102181911,0.3188186969012022,-0.17647125014960766
1772045249588010800,6.5760107421875,-0.9974585476994514,0.5686152955025434,0.04623042077720165
1772045249597996800,6.585996826171875,-1.1240940460562705,0.7841264704033732,0.2677665550559759
1772045249607981600,6.595981689453125,-1.2320271820306776,0.9597560090318321,0.4656237075835466
1772045249617967900,6.6059677734375,-1.3196120881117879,1.0945721834957598,0.6460761363238096
1772045249627953700,6.61595361328125,-1.3604479563690721,1.2145061383873224,0.7942904292821884
1772045249637939700,6.625939697265625,-1.411201553659141,1.3362994574099778,0.9482792139887809
1772045249647925800,6.63592578125,-1.4881819174870847,1.4656553206413983,1.1116437298059463
1772045249657911800,6.645911865234375,-1.5761121298745273,1.585603596319258,1.2821101865828037
1772045249667896800,6.655896728515625,-1.680452502053976,1.7318252541556953,1.4035335032492875
1772045249677883000,6.6658828125,-1.7947428981006144,1.906323450666666,1.5106775346726178
1772045249687869000,6.675868896484375,-1.9055778929963707,2.0826251894682644,1.6134125174820422
1772045249697854700,6.685854736328125,-1.9829034170001745,2.274124789662659,1.6984867559164762
1772045249707840800,6.6958408203125,-2.0358543782040477,2.423966391561925,1.763171117272973
1772045249717826800,6.705826904296875,-2.0276710717484354,2.4820611453950403,1.814261253041029
1772045249727811800,6.715811767578125,-1.9579662518814205,2.4626553109183904,1.8748750039577482
1772045249737797600,6.725797607421875,-1.8668182464912533,2.404623393188417,1.9109844282150268
1772045249747784000,6.735783935546875,-1.8096765555992722,2.3845327913179992,1.895366587844491
1772045249757769700,6.745769775390625,-1.7510174458816647,2.4507433393284677,1.8914327555269002
1772045249767755800,6.755755859375,-1.667476116102934,2.6340067338362334,1.878534695509076
1772045249777741600,6.765741455078125,-1.6110264991283416,2.924687423750758,1.8888281259864568
1772045249787726600,6.7757265625,-1.6049135692059993,3.3132489344418046,1.908915805247426
1772045249797712600,6.785712646484375,-1.6223735303118825,3.6837145242109894,1.8863392317801713
1772045249807698700,6.79569873046875,-1.6573197560086845,3.9295591703161596,1.8593828357934952
1772045249817684700,6.805684814453125,-1.6691580778405068,3.9707404910102486,1.9086714750975369
1772045249827670500,6.81567041015625,-1.6301079239562153,3.804195591591298,1.9780805268883703
1772045249837656800,6.82565673828125,-1.5446274428084492,3.55819780075103,1.9314795192331073
1772045249847641600,6.8356416015625,-1.3787433453857898,3.4259959004387257,1.703746283879876
1772045249857627600,6.845627685546875,-1.1639853269398213,3.59258873065263,1.3280828332066534
1772045249867613400,6.855613525390625,-0.9981962143242359,3.769210202927887,1.1204629960775374
1772045249877599700,6.865599853515625,-0.940432884402573,3.7916999748945233,1.1554840405762195
1772045249887585500,6.87558544921875,-0.9511693824723363,3.8255017067313193,1.2478484360188244
1772045249897571600,6.885571533203125,-0.9766343708574772,3.823929927369952,1.2718722856849431
1772045249907556900,6.895556884765625,-0.9124886464223265,3.8090132210060954,1.1849252391159533
1772045249917542700,6.905542724609375,-0.8141805401444434,3.7525828932538627,1.095031033179164
1772045249927528700,6.91552880859375,-0.6621195086300373,3.6157588860988614,1.0493015476614236
1772045249937514800,6.9255146484375,-0.587668955540657,3.402983273641765,1.0417051011830567
1772045249947500800,6.935500732421875,-0.5636658564016223,3.0895904011815785,1.0546429086893796
1772045249957486600,6.945486572265625,-0.5810498296618462,2.7020734311074017,1.0150836362391709
1772045249967471600,6.9554716796875,-0.6182604931592941,2.2364026695117354,0.9332879810839891
1772045249977457700,6.965457763671875,-0.6190390763163566,1.7322113308638334,0.8040688959747553
1772045249987443700,6.975443603515625,-0.5740989876106382,1.2720035108491778,0.6694505821704864
1772045249997429500,6.985429443359375,-0.44042219244018194,0.8852169008761643,0.4847311436355114
1772045250007415800,6.995415771484375,-0.2874690343916416,0.5577502026170492,0.24723405463695525
1772045250017401600,7.005401611328125,-0.18775398392528295,0.25534809524863955,0.012342764222621917
1772045250027386600,7.01538671875,-0.13749591506719588,-0.015596797582507132,-0.1575637205839157
1772045250037372700,7.02537255859375,-0.0976698083743453,-0.2717927418321371,-0.2854389898687601
1772045250047358700,7.035358642578125,-0.07012173010483384,-0.49462797601073977,-0.39149522605538367
1772045250057344800,7.0453447265625,-0.017900690610706805,-0.6516407847136259,-0.5306394928514957
1772045250067330600,7.05533056640625,0.07497296952828765,-0.742175334380567,-0.6505237633824348
1772045250077316900,7.06531689453125,0.17147767964601515,-0.8034659616455435,-0.7159656651079654
1772045250087301600,7.075301513671875,0.2633317874789238,-0.8328571835637092,-0.6927250747740268
1772045250097287700,7.08528759765625,0.38040947615653276,-0.8512123399436473,-0.5977876139730215
1772045250107273500,7.0952734375,0.49373190395385025,-0.8034715146034955,-0.4633054937690496
1772045250117259800,7.105259765625,0.5823299326002598,-0.7126818211317062,-0.26243162376880647
1772045250127245600,7.11524560546875,0.6539490616559982,-0.6380179175525903,-0.0073357497155666345
1772045250137230600,7.125230712890625,0.71584525359869,-0.56795010959208,0.23939853870570657
1772045250147216600,7.135216552734375,0.7470657367706298,-0.5117419001579284,0.4690957676082849
1772045250157202700,7.14520263671875,0.7108437920495867,-0.49826867060065266,0.6828963391989469
1772045250167188700,7.155188720703125,0.6394507268346846,-0.5267582675039768,0.8815022642672061
1772045250177174500,7.165174560546875,0.5545875008024275,-0.5681774886071682,1.0205541766047477
1772045250187160800,7.175160888671875,0.47368587187752126,-0.5935206041783094,1.0865502050817013
1772045250197145600,7.1851455078125,0.39881460915803907,-0.6324409942030906,1.133729304885864
1772045250207131600,7.195131591796875,0.36930092990398405,-0.6484218226671219,1.2047948917120694
1772045250217117400,7.205117431640625,0.3464252273596823,-0.638546325340867,1.2944547043710946
1772045250227103700,7.215103759765625,0.34047011834755536,-0.6357347750514746,1.380005328145623
1772045250237089500,7.225089599609375,0.3213723269067704,-0.6473252596020698,1.423661514520645
1772045250247075600,7.23507568359375,0.3456907756052911,-0.6559475419968366,1.4072341113328932
1772045250257060900,7.245060791015625,0.44512817817404865,-0.6418903750717639,1.352709324941039
1772045250267046700,7.255046630859375,0.5135198696158826,-0.5232680873006582,1.2870523191601038
1772045250277032700,7.26503271484375,0.5292785797618329,-0.47030514339804647,1.215855214908719
1772045250287018800,7.275018798828125,0.5358873303771019,-0.42171909940540786,1.0779887129634618
1772045250297004800,7.2850048828125,0.5643839415431022,-0.4183165974855423,0.8578133456438779
1772045250306989600,7.294989501953125,0.5715476956926286,-0.44768005461394783,0.6500578994363546
1772045250316975600,7.3049755859375,0.6065384911835193,-0.5213619614183902,0.45675592599511144
1772045250326961700,7.314961669921875,0.7012742919325828,-0.6415712261199951,0.2604664611756801
1772045250336947700,7.32494775390625,0.8120141558907925,-0.7418699216932058,0.046349663242697715
1772045250346933500,7.33493359375,0.8910907613456249,-0.8995750965744257,-0.17129589333832262
1772045250356919800,7.344919921875,0.9635925184547901,-1.0600000518083572,-0.39548224986493585
1772045250366904800,7.35490478515625,0.9894831849060952,-1.1630933465361595,-0.6465683037549257
1772045250376890600,7.364890625,0.949084685152769,-1.2982885834455489,-0.867625130084157
1772045250386876700,7.374876708984375,0.90212668075338,-1.4223229593932627,-1.1389736352801323
1772045250396862700,7.38486279296875,0.9521009642340242,-1.4180489353358745,-1.4510329210489987
1772045250406848800,7.394848876953125,0.9949053560853004,-1.2677233493119477,-1.7815537461817263
1772045250416833500,7.40483349609375,0.9844212253414094,-1.1336264290332794,-2.0848989796191453
1772045250426819600,7.414819580078125,0.9346795815728605,-1.0416787976980209,-2.4284639952421188
1772045250436805600,7.4248056640625,0.9289898454986512,-0.9872422741115092,-2.7908874405920505
1772045250446791700,7.434791748046875,0.938434550192207,-1.0063812743455172,-3.126031833872199
1772045250456777500,7.444777587890625,0.958015156713873,-1.1777473103106022,-3.389533132699132
1772045250466763800,7.454763671875,1.0168528378687798,-1.4709288771301507,-3.607058277770877
1772045250476748800,7.464748779296875,1.1673873904682694,-1.6893822429627179,-3.8734190576821566
1772045250486734600,7.474734619140625,1.436514127961546,-1.5708640000879763,-4.2800294352829455
1772045250496720600,7.484720703125,1.5738437465511261,-1.3200427346140144,-4.590179088038206
1772045250506706700,7.494706787109375,1.5100830759108066,-1.321257955622673,-4.66422982815504
1772045250516692700,7.504692626953125,1.3177123919703067,-1.5194459475398063,-4.650940138471126
1772045250526677500,7.514677490234375,1.1187295964136719,-1.7809680552482603,-4.62734065169692
1772045250536663800,7.524663818359375,1.030256217060238,-1.9249650227725505,-4.666678974872827
1772045250546649600,7.534649658203125,0.9907691330634057,-2.0022955152124164,-4.732298571252823
1772045250556635600,7.5446357421875,0.9863983706332743,-2.087596548140049,-4.7698646240592
1772045250566621700,7.55462158203125,0.9909238852337002,-2.161063935410976,-4.766893499293923
1772045250576607700,7.564607666015625,0.9107330349266528,-2.282622276633978,-4.633462933969497
1772045250586592800,7.5745927734375,0.7499835239134729,-2.511781745398044,-4.379781018367409
1772045250596578600,7.58457861328125,0.6148749423742293,-2.7967192154854534,-4.073180582526326
1772045250606564900,7.59456494140625,0.5537419898889958,-2.9999118838220835,-3.8260716155737637
1772045250616550700,7.604550537109375,0.5618364490173757,-3.055770549166202,-3.6578152360618112
1772045250626536700,7.61453662109375,0.5700326149545609,-2.989284106823802,-3.545555469059944
1772045250636521500,7.624521484375,0.5352781124375761,-2.8309154995977877,-3.4878491300225254
1772045250646507800,7.6345078125,0.45138168561086056,-2.642668471458554,-3.441058737275004
1772045250656493600,7.64449365234375,0.3303061594687402,-2.4308704718619585,-3.4480426048129793
1772045250666479600,7.654479736328125,0.208570123591274,-2.1842191855490207,-3.489006483364105
1772045250676465700,7.664465576171875,0.01972892895117402,-1.8672914169609545,-3.523098722580075
1772045250686451700,7.67445166015625,-0.1858452276945114,-1.5589835926800966,-3.521121869549155
1772045250696436700,7.684436767578125,-0.35304186902046203,-1.2962643841415642,-3.51025794570744
1772045250706422500,7.694422607421875,-0.5138485170483589,-1.060757592177391,-3.49813554623723
1772045250716408800,7.704408935546875,-0.6675251670658588,-0.9101964438319206,-3.487581418997049
1772045250726394600,7.71439453125,-0.8138672364115714,-0.8082757000148296,-3.4761125149995085
1772045250736380700,7.724380615234375,-0.9550804184362292,-0.7448989141255616,-3.4605618946462866
1772045250746365400,7.734365478515625,-1.1014306710883974,-0.6945405997633933,-3.397900563549995
1772045250756351700,7.744351806640625,-1.2724445326149463,-0.6048404550939798,-3.234854612162709
1772045250766337500,7.754337646484375,-1.475441970640421,-0.4059492833435535,-2.9955151101678608
1772045250776323600,7.764323486328125,-1.782611730802059,-0.09286007000505923,-2.7670295951426027
1772045250786309400,7.774309326171875,-2.163279711764306,0.2531833184301853,-2.496741412654519
1772045250796294400,7.78429443359375,-2.509395727044344,0.6184332193776965,-2.241542662748694
1772045250806280400,7.794280517578125,-2.7836849618673325,0.9934586644083261,-2.0613298879832027
1772045250816266500,7.8042666015625,-2.9984380118772385,1.3160057341828941,-1.9047440725207327
1772045250826252500,7.81425244140625,-3.148959704995155,1.5669377665549515,-1.7891238891750574
1772045250836238300,7.82423828125,-3.237012959240377,1.7525582455828785,-1.700544272968173
1772045250846224600,7.834224609375,-3.203682644307613,1.8840087430059909,-1.5485995613098145
1772045250856209400,7.84420947265625,-3.032775165764987,2.0360259353786705,-1.4492238258004189
1772045250866195500,7.854195556640625,-2.788195717290044,2.1833070391401646,-1.4676356808036566
1772045250876181200,7.86418115234375,-2.5482187941744923,2.293235440585017,-1.5341723920285701
1772045250886167600,7.87416748046875,-2.364265956097841,2.396369067323208,-1.5456068092346191
1772045250896153300,7.8841533203125,-2.2624878356218336,2.5223075233265755,-1.483231893864274
1772045250906138400,7.894138427734375,-2.3601135125935078,2.64554841080904,-1.3731108924567699
1772045250916124400,7.90412451171875,-2.8704782791793346,2.5457936128541827,-1.112407115393877
1772045250926110500,7.9141103515625,-2.954792054635286,2.882591910821199,-1.3484639424562452
1772045250936096500,7.924096435546875,-2.9022260010957717,3.2824341094613074,-1.4873434208363294
1772045250946082300,7.934082275390625,-2.873108627682924,3.0846859702661633,-1.3655728981673716
1772045250956067600,7.944067626953125,-2.6269196981847283,2.9969229311391707,-1.252267421504855
1772045250966053400,7.954053466796875,-2.221957087790966,3.1180875968694686,-1.3760457768648862
1772045250976039400,7.964039306640625,-1.8089947108149527,3.282782776768505,-1.480392871046066
1772045250986025500,7.974025390625,-1.5929180109858512,3.433144018627703,-1.4990981560379266
1772045250996011500,7.984011474609375,-1.5341267993211745,3.4519109706789255,-1.4012398393541574
1772045251005997300,7.993997314453125,-1.6228618983507155,3.3132492267027494,-1.1688462109744548
1772045251015982300,8.003982421875,-1.4138329250760375,3.41892873853147,-1.1673808145970106
1772045251025968600,8.01396875,-1.2040407123439014,3.586462356726825,-1.2482985178738832
1772045251035954400,8.023954345703125,-0.8770487919896841,3.8266184358015654,-1.20380529615283
1772045251045940500,8.0339404296875,-0.5253063151299953,4.155765926754475,-1.1191448992162942
1772045251055926500,8.043926513671876,-0.23940584522932767,4.383569596995413,-0.9982722021698951
1772045251065911600,8.05391162109375,-0.038487843826413154,4.537180780561268,-0.7311018594413995
1772045251075897300,8.0638974609375,-0.026777532288432118,4.430941589023172,-0.4889829558610916
1772045251085883400,8.07388330078125,0.08018529734909534,4.296644762258231,-0.3644564124822616
1772045251095869400,8.083869384765626,0.3072977704554796,4.20186804497689,-0.3361456792771816
1772045251105855500,8.09385546875,0.6071089845478534,4.116816310635209,-0.2795645448774099
1772045251115840500,8.103840576171875,0.9218769447535275,3.9325586443930862,-0.19537351901829242
1772045251125826300,8.113826416015625,1.140745905649662,3.7098315467640757,-0.13802607642114162
1772045251135812600,8.1238125,1.1944389173924923,3.4901334415674206,-0.1455769301921129
1772045251145798400,8.13379833984375,1.1190174734443425,3.1733550183221695,-0.16885142279565332
1772045251155784400,8.143784423828125,0.9253075037240982,2.8529712640613316,-0.21147534351348876
1772045251165770500,8.1537705078125,0.767379041481018,2.598242469754815,-0.3167804690718651
1772045251175755500,8.163755615234376,0.809215026691556,2.404658026110381,-0.3656429919183254
1772045251185741300,8.1737412109375,0.9331307446956634,2.2468515828117726,-0.33490707739293574
1772045251195727400,8.183727294921875,0.9471499176979065,2.076339241066575,-0.31801439478099347
1772045251205713400,8.19371337890625,0.8176526001691817,1.7518381146147846,-0.03414923010021448
1772045251215699500,8.203699462890626,0.8595692494004964,1.1874690783798694,0.30351328348070383
1772045251225684500,8.2136845703125,1.0585276411682367,0.5322486816138029,0.16455810951590538
1772045251235670500,8.22367041015625,1.3877332920491694,0.5565809396419674,0.03692424777150154
1772045251245656600,8.233656494140625,1.8545541004627941,0.8629288620267063,0.17366145342588424
1772045251255642400,8.243642333984376,2.1482231585383413,0.8741571622014045,0.1239516661003232
1772045251265628700,8.253628662109374,2.099875599476695,0.8248160620577633,-0.25875702690929175
1772045251275613400,8.263613525390625,1.722802866527438,0.9159468240521847,-0.7525415378332138
1772045251285599500,8.273599609375,1.3641998562484978,1.2563273644201456,-1.2750421478927134
1772045251295585300,8.283585205078126,1.186058042538166,1.836168110553175,-1.7546695386484263
1772045251305571600,8.293571533203124,1.1488052934646606,2.451255380503833,-2.0999624009773132
1772045251315557400,8.303557373046875,1.0292506932795047,2.932168134894967,-2.274196101333201
1772045251325542400,8.31354248046875,0.6196452255159616,3.2871184678852554,-2.39023348717764
1772045251335528400,8.323528564453126,-0.03135667677223682,3.074415628403425,-2.045339268777519
1772045251345514500,8.333514404296874,-0.5283680407881737,2.4374289535947145,-1.2265142638280988
1772045251355500500,8.34350048828125,-0.44221477494537825,2.1872724356397986,-0.605433160290122
1772045251365486300,8.353486328125,0.11293138265311717,2.3726583752594887,-0.33497890052013096
1772045251375471400,8.363471435546876,0.8157523195058107,2.422183892059326,-0.15376425523571668
1772045251385457400,8.37345751953125,1.4698311450213193,2.1058679717592894,0.08266476613990963
1772045251395443500,8.383443359375,1.9503771119266746,1.6133847526922822,0.26069997767060993
1772045251405429200,8.39342919921875,2.4187118320345875,1.56770524379611,-0.02663279005549848
1772045251415415600,8.40341552734375,2.7679788586914538,1.5296978769630192,-0.22695041441246866
1772045251425400600,8.413400634765624,2.7637995271801947,1.268118193848431,-0.006959098422899842
1772045251435386400,8.423386474609375,2.726937238729,1.1694769100934266,0.1719297342624515
1772045251445372400,8.433372314453125,2.605347917845845,1.0628303067982197,0.16346017647767438
1772045251455358500,8.4433583984375,2.468505498251319,0.9521756369054317,-0.0381739373053424
1772045251465344500,8.453344482421874,2.389009352210164,0.8385489654645323,-0.2982838218620047
1772045251475329300,8.463329345703125,2.292313065043092,0.7273007135927677,-0.5441723436415196
1772045251485315600,8.473315673828125,2.161929612329602,0.6404214715629816,-0.6163816206101328
1772045251495301400,8.48330126953125,1.9230963062912225,0.7245993456795812,-0.47641938849464055
1772045251505287400,8.493287353515624,1.6022072328567505,0.8720578518345952,-0.2193715766560286
1772045251515273500,8.5032734375,1.3301736680060625,0.9756345461651682,-0.07422511030305176
1772045251525259500,8.513259521484375,1.1156722546696662,1.0486103505268691,-0.09075374537557362
1772045251535244500,8.52324462890625,0.8975041355192661,1.0272522129386663,-0.08425470221247523
1772045251545230300,8.533230224609374,0.6566635813117027,0.99852413110435,-0.05305624820925295
1772045251555216600,8.543216552734375,0.4364104725807905,1.0314797675058245,-0.0234829477224499
1772045251565202400,8.553202392578125,0.2340735442906618,1.0957125857025385,0.0792210554268211
1772045251575188500,8.5631884765625,0.12833411896824837,1.1522142251253127,0.20318594633489845
1772045251585173200,8.57317333984375,0.1166296526491642,1.2388988213658332,0.2982918590379879
1772045251595159600,8.58315966796875,0.12107961779534816,1.1983955460637807,0.45239495430663224
1772045251605145300,8.593145263671875,0.15748188751935957,1.2336673504531384,0.5602987911213189
1772045251615131400,8.60313134765625,0.22662089019715784,1.326793377918005,0.674240739056468
1772045251625117400,8.613117431640624,0.35316520313918587,1.346542034482956,0.7187352028865367
1772045251635102500,8.6231025390625,0.5004571205556393,1.1410893122598529,0.7776753945678472
1772045251645088500,8.633088623046875,0.6002741700917482,1.015866895571351,0.7443702871415764
1772045251655074300,8.64307421875,0.5145622182756662,0.8332020514786243,0.6794090816050767
1772045251665060600,8.653060546875,0.41478900788128376,0.8054179724961519,0.5260290033813566
1772045251675046400,8.66304638671875,0.20417349606752394,0.6568930061534046,0.4343205876294523
1772045251685031400,8.673031494140625,-0.022705168282985685,0.58674950260818,0.3155781075447798
1772045251695017500,8.683017578125,-0.19000351641774177,0.5412400895819067,0.14242401911914349
1772045251705003500,8.69300341796875,-0.2657879484593868,0.5617649912163615,-0.04565335154160857
1772045251714989300,8.7029892578125,-0.3089315091371536,0.6147945706143975,-0.12204846282750367
1772045251724975400,8.712975341796875,-0.4138520192921161,0.6293523805379867,0.06013451603241265
1772045251734960600,8.722960693359376,-0.4943114574074745,0.7956538265898824,0.3691582334976643
1772045251744946400,8.732946533203124,-0.42946693705320355,0.9442346147730946,0.6923084567971527
1772045251754932500,8.742932373046875,-0.09492927749454974,1.003833635689318,0.7878846538931131
1772045251764918500,8.75291845703125,0.2621136438608169,0.9945438292965292,0.7280636607892811
1772045251774904600,8.762904541015626,0.44144086796343324,0.9146043234020471,0.581809123596549
1772045251784889600,8.7728896484375,0.4861532853931188,0.9231231454223394,0.36348705599345266
1772045251794875600,8.782875732421875,0.3424345502883196,0.9812433259576558,0.27536281887125225
1772045251804861700,8.79286181640625,0.0860690946906805,1.0741428511902689,0.15363083811439573
1772045251814847700,8.80284765625,-0.2661322318524122,1.4200874554261564,0.1528637261994183
