time,seconds_elapsed,z,y,x
1772045243087215400,0.07521533203125,0.5860053300857544,0.06692022830247879,0.778144121170044
1772045243097201400,0.085201416015625,0.6618239283561707,0.13147445023059845,0.6941046118736267
1772045243107187500,0.0951875,0.7240280508995056,0.03201545402407646,0.6284856200218201
1772045243117173500,0.105173583984375,0.7936236262321472,-0.12099806219339371,0.4854171574115753
1772045243127158500,0.115158447265625,0.8768858313560486,-0.20627956092357635,0.38060399889945984
1772045243137144600,0.12514453125,0.9441237449645996,-0.21227939426898956,0.3493560552597046
1772045243147130400,0.13513037109375,1.105353832244873,-0.2645782232284546,0.34498414397239685
1772045243157116400,0.145116455078125,1.2612584829330444,-0.2896135449409485,0.2819300889968872
1772045243167102500,0.1551025390625,1.3607205152511597,-0.32707250118255615,0.2263428270816803
1772045243177088500,0.165088623046875,1.418670415878296,-0.4022788405418396,0.22675375640392303
1772045243187073500,0.175073486328125,1.4405242204666138,-0.5364442467689514,0.25742074847221375
1772045243197059300,0.185059326171875,1.4317474365234375,-0.7159213423728943,0.31015774607658386
1772045243207045600,0.195045654296875,1.3968479633331299,-0.8936445713043213,0.3897412419319153
1772045243217031400,0.205031494140625,1.3327739238739014,-1.066557765007019,0.46803978085517883
1772045243227017500,0.215017578125,1.2420666217803955,-1.2477494478225708,0.5086827278137207
1772045243237003500,0.22500341796875,1.1120953559875488,-1.4286051988601685,0.5012468695640564
1772045243246989600,0.234989501953125,0.9411299228668213,-1.627174973487854,0.4353090226650238
1772045243256974300,0.244974365234375,0.755180299282074,-1.8102736473083496,0.3396051228046417
1772045243266960400,0.25496044921875,0.5887402296066284,-1.917056918144226,0.23943307995796204
1772045243276946400,0.264946533203125,0.4673216640949249,-1.6908518075942993,0.057745035737752914
1772045243286932500,0.274932373046875,0.444009929895401,-1.0514872074127197,-0.25677087903022766
1772045243296918300,0.284918212890625,0.5791791677474976,-0.6707486510276794,-0.5013524293899536
1772045243306904600,0.294904541015625,0.810194730758667,-0.5806721448898315,-0.7505128979682922
1772045243316890400,0.304890380859375,1.10347318649292,-0.9181524515151978,-0.995446503162384
1772045243326875400,0.31487548828125,1.3719100952148438,-1.5067330598831177,-1.2300217151641846
1772045243336861400,0.324861328125,1.6362979412078857,-2.07319712638855,-1.4338539838790894
1772045243346847500,0.334847412109375,1.9606397151947021,-2.529799461364746,-1.5550364255905151
1772045243356833500,0.34483349609375,2.1964988708496094,-2.67938494682312,-1.5579371452331543
1772045243366819300,0.3548193359375,2.1650161743164062,-2.654545545578003,-1.4898271560668945
1772045243376805600,0.3648056640625,2.00227689743042,-2.740103244781494,-1.407903790473938
1772045243386790400,0.374790283203125,1.950976848602295,-2.9250733852386475,-1.2978355884552002
1772045243396776400,0.3847763671875,1.885176181793213,-3.113090753555298,-1.136547327041626
1772045243406762200,0.39476220703125,1.756845474243164,-3.442617893218994,-0.9324524402618408
1772045243416748500,0.40474853515625,1.6272954940795898,-3.907349109649658,-0.6921918988227844
1772045243426734300,0.414734375,1.5031310319900513,-4.337751865386963,-0.40428268909454346
1772045243436720400,0.424720458984375,1.3403815031051636,-4.675997734069824,-0.08435501903295517
1772045243446706400,0.43470654296875,1.1517328023910522,-4.940853118896484,0.24191023409366608
1772045243456691500,0.44469140625,0.9761348366737366,-5.248678207397461,0.5177301168441772
1772045243466677500,0.454677490234375,0.8848204612731934,-5.480775833129883,0.7707267999649048
1772045243476663300,0.464663330078125,0.9525494575500488,-5.772719383239746,0.9775920510292053
1772045243486649600,0.474649658203125,1.174909234046936,-6.044337749481201,1.1720027923583984
1772045243496635400,0.484635498046875,1.432902455329895,-6.0678606033325195,1.2796746492385864
1772045243506621400,0.494621337890625,1.6774346828460693,-5.939408302307129,1.2902554273605347
1772045243516606500,0.5046064453125,1.8641421794891357,-5.667325496673584,1.2762644290924072
1772045243526592500,0.514592529296875,1.9725673198699951,-5.416350841522217,1.247723937034607
1772045243536578300,0.524578369140625,2.0008950233459473,-5.344430923461914,1.237322449684143
1772045243546564400,0.534564453125,2.0072875022888184,-5.360040664672852,1.2679623365402222
1772045243556550400,0.54455029296875,2.0577592849731445,-5.2735676765441895,1.2975530624389648
1772045243566536400,0.554536376953125,2.155487060546875,-5.083910942077637,1.2842172384262085
1772045243576522200,0.564522216796875,2.2885515689849854,-4.813900470733643,1.1979851722717285
1772045243586507500,0.574507568359375,2.4072837829589844,-4.454144477844238,1.0543577671051025
1772045243596493600,0.58449365234375,2.507542371749878,-4.017453670501709,0.8820173740386963
1772045243606479400,0.594479248046875,2.5825252532958984,-3.514274835586548,0.689679741859436
1772045243616465700,0.604465576171875,2.6283600330352783,-3.023037910461426,0.4811971187591553
1772045243626451500,0.614451416015625,2.626415729522705,-2.570972442626953,0.2831423282623291
1772045243636437500,0.6244375,2.5822649002075195,-2.1969728469848633,0.12481925636529922
1772045243646423300,0.63442333984375,2.5004827976226807,-1.8525276184082031,0.008832873776555061
1772045243656408600,0.64440869140625,2.3905062675476074,-1.4673488140106201,-0.11986465007066727
1772045243666394400,0.654394287109375,2.2707860469818115,-1.0392990112304688,-0.2896292507648468
1772045243676380400,0.66438037109375,2.184885263442993,-0.5945755243301392,-0.49715954065322876
1772045243686366500,0.674366455078125,2.1717469692230225,-0.18178176879882812,-0.7155227065086365
1772045243696352500,0.6843525390625,2.224849224090576,0.15619201958179474,-0.9150810837745667
1772045243706338300,0.69433837890625,2.291987419128418,0.41819092631340027,-1.0760538578033447
1772045243716323300,0.7043232421875,2.320145845413208,0.6117603778839111,-1.2185941934585571
1772045243726309600,0.7143095703125,2.2788524627685547,0.7229316830635071,-1.3291627168655396
1772045243736295400,0.72429541015625,2.1832990646362305,0.7719823122024536,-1.399293303489685
1772045243746281500,0.734281494140625,2.0467007160186768,0.8016678690910339,-1.3997918367385864
1772045243756267500,0.744267578125,1.8764774799346924,0.8294689059257507,-1.330694556236267
1772045243766253600,0.754253662109375,1.6830203533172607,0.8505553603172302,-1.2058786153793335
1772045243776240000,0.764240234375,1.4675551652908325,0.8531582951545715,-1.0416291952133179
1772045243786225200,0.77422509765625,1.255356788635254,0.8329704403877258,-0.850795567035675
1772045243796211200,0.784211181640625,1.0645045042037964,0.7809700965881348,-0.6612306833267212
1772045243806197200,0.794197265625,0.8874351978302002,0.7015335559844971,-0.4814530611038208
1772045243816183000,0.80418310546875,0.7228726148605347,0.6088033318519592,-0.32839107513427734
1772045243826169300,0.81416943359375,0.5785831212997437,0.5164267420768738,-0.21024896204471588
1772045243836155100,0.824155029296875,0.45945116877555847,0.4437355101108551,-0.13420292735099792
1772045243846140200,0.83414013671875,0.3686841130256653,0.39673787355422974,-0.07687514275312424
1772045243856126000,0.8441259765625,0.29855749011039734,0.428584486246109,-0.030330011621117592
1772045243866112300,0.8541123046875,0.2581741213798523,0.49474459886550903,0.007137736305594444
1772045243876098000,0.86409814453125,0.2386544644832611,0.574402391910553,0.02689892239868641
1772045243886084000,0.874083984375,0.24252639710903168,0.6311262845993042,0.022432418540120125
1772045243896070100,0.884070068359375,0.27945324778556824,0.6521391272544861,-0.0024755944032222033
1772045243906056200,0.89405615234375,0.350286066532135,0.6346396207809448,-0.03659754619002342
1772045243916041200,0.904041259765625,0.4541938006877899,0.5822283625602722,-0.0905742198228836
1772045243926027000,0.914027099609375,0.5667570233345032,0.4985522925853729,-0.15388168394565582
1772045243936013300,0.924013427734375,0.6821928024291992,0.39161306619644165,-0.21973153948783875
1772045243945999000,0.9339990234375,0.7785366773605347,0.27239134907722473,-0.2809370160102844
1772045243955985200,0.943985107421875,0.8479868769645691,0.16271039843559265,-0.34225016832351685
1772045243965971200,0.95397119140625,0.8772412538528442,0.08296596258878708,-0.38801464438438416
1772045243975956200,0.963956298828125,0.8774455189704895,0.03591163083910942,-0.40756329894065857
1772045243985942000,0.97394189453125,0.8541852235794067,0.04227597266435623,-0.41344746947288513
1772045243995928000,0.983927978515625,0.8155598044395447,0.052104637026786804,-0.4117033779621124
1772045244005914000,0.9939140625,0.766491711139679,0.04301547631621361,-0.40671321749687195
1772045244015900200,1.003900146484375,0.7138140797615051,0.02341407723724842,-0.3941601514816284
1772045244025886000,1.013885986328125,0.6714665293693542,-0.0012791258050128818,-0.37517938017845154
1772045244035872300,1.023872314453125,0.6450431942939758,-0.049104172736406326,-0.34340015053749084
1772045244045857300,1.033857177734375,0.634971559047699,-0.13106955587863922,-0.2999972403049469
1772045244055843000,1.043843017578125,0.6322777271270752,-0.2194196581840515,-0.23561133444309235
1772045244065829400,1.053829345703125,0.6269640922546387,-0.3056216239929199,-0.16224877536296844
1772045244075815200,1.063815185546875,0.6085906624794006,-0.384518027305603,-0.0887063667178154
1772045244085801200,1.07380126953125,0.5796154737472534,-0.4351695775985718,-0.028121570125222206
1772045244095787000,1.083787109375,0.5346000790596008,-0.4617639183998108,0.014917244203388691
1772045244105773300,1.093773193359375,0.4825434684753418,-0.4787505269050598,0.014754693023860455
1772045244115758000,1.103758056640625,0.45406869053840637,-0.4878345727920532,-0.027937911450862885
1772045244125744000,1.113744140625,0.44263362884521484,-0.4835263788700104,-0.08753936737775803
1772045244135730200,1.123730224609375,0.45415422320365906,-0.46750906109809875,-0.1380600780248642
1772045244145716200,1.13371630859375,0.46232038736343384,-0.4248547852039337,-0.1692846119403839
1772045244155702000,1.143701904296875,0.4777512550354004,-0.36196157336235046,-0.18666388094425201
1772045244165688300,1.153688232421875,0.4514535069465637,-0.28127118945121765,-0.19367322325706482
1772045244175673300,1.16367333984375,0.3864409923553467,-0.20157822966575623,-0.21308501064777374
1772045244185659100,1.1736591796875,0.2778397500514984,-0.11345303803682327,-0.25993600487709045
1772045244195645200,1.183645263671875,0.13033896684646606,-0.012300854548811913,-0.3352177143096924
1772045244205631200,1.19363134765625,-0.023063207045197487,0.09734135866165161,-0.4193844497203827
1772045244215617300,1.2036171875,-0.17494355142116547,0.21519902348518372,-0.4871291518211365
1772045244225603000,1.21360302734375,-0.3111502528190613,0.32953113317489624,-0.5414421558380127
1772045244235589400,1.22358935546875,-0.41927966475486755,0.4328617751598358,-0.5854096412658691
1772045244245574100,1.23357421875,-0.49290385842323303,0.4910942018032074,-0.6086412668228149
1772045244255560200,1.243560302734375,-0.5587060451507568,0.5051913857460022,-0.5979515910148621
1772045244265546000,1.2535458984375,-0.6042627096176147,0.49813735485076904,-0.5435981750488281
1772045244275532300,1.2635322265625,-0.6405967473983765,0.4478912055492401,-0.4625597894191742
1772045244285518000,1.27351806640625,-0.6781622767448425,0.3463078439235687,-0.3625204563140869
1772045244295504100,1.283504150390625,-0.7156513333320618,0.22951731085777283,-0.24797818064689636
1772045244305489200,1.2934892578125,-0.749762773513794,0.1275092512369156,-0.13675785064697266
1772045244315475200,1.30347509765625,-0.7817808985710144,0.025532279163599014,-0.05341475456953049
1772045244325461200,1.313461181640625,-0.8094998598098755,-0.07501375675201416,0.014147860929369926
1772045244335447000,1.323447021484375,-0.8354787230491638,-0.15924474596977234,0.07023563235998154
1772045244345433300,1.333433349609375,-0.8610638380050659,-0.2311343401670456,0.11897443979978561
1772045244355419100,1.343419189453125,-0.8851636052131653,-0.29251646995544434,0.15710823237895966
1772045244365404200,1.353404052734375,-0.906408965587616,-0.3323551416397095,0.1891993135213852
1772045244375390000,1.363389892578125,-0.9306791424751282,-0.3473082482814789,0.20685340464115143
1772045244385376300,1.373376220703125,-0.9458181262016296,-0.32191652059555054,0.19936810433864594
1772045244395362000,1.383362060546875,-0.9584226012229919,-0.2594643235206604,0.16299492120742798
1772045244405348000,1.39334814453125,-0.9627193808555603,-0.17030154168605804,0.11120429635047913
1772045244415334100,1.403334228515625,-0.959147572517395,-0.062343109399080276,0.05325711518526077
1772045244425320200,1.4133203125,-0.9605682492256165,0.046508125960826874,-0.010379720479249954
1772045244435305200,1.42330517578125,-0.9767285585403442,0.13885244727134705,-0.06910189241170883
1772045244445291300,1.433291259765625,-0.9915474653244019,0.21219120919704437,-0.129729226231575
1772045244455277300,1.44327734375,-1.0121893882751465,0.28159502148628235,-0.18690915405750275
1772045244465263000,1.45326318359375,-1.0140776634216309,0.33887895941734314,-0.2468857616186142
1772045244475249200,1.463249267578125,-1.0063295364379883,0.36956414580345154,-0.3055887818336487
1772045244485235200,1.473235107421875,-0.9861440658569336,0.3867371082305908,-0.35425958037376404
1772045244495220200,1.48322021484375,-0.9537283182144165,0.406265527009964,-0.391993910074234
1772045244505206000,1.4932060546875,-0.9148966073989868,0.4219070076942444,-0.43020135164260864
1772045244515192300,1.5031923828125,-0.8574426174163818,0.42316266894340515,-0.46247220039367676
1772045244525178000,1.51317822265625,-0.7835096716880798,0.41884395480155945,-0.4887811243534088
1772045244535164200,1.5231640625,-0.6946631669998169,0.41317594051361084,-0.5067047476768494
1772045244545150200,1.533150146484375,-0.5935120582580566,0.4004178047180176,-0.5112304091453552
1772045244555135200,1.54313525390625,-0.4777848720550537,0.3865286111831665,-0.501227855682373
1772045244565121300,1.553121337890625,-0.3607688248157501,0.35803040862083435,-0.48923757672309875
1772045244575107000,1.563107177734375,-0.24419693648815155,0.3256857693195343,-0.48294854164123535
1772045244585093400,1.57309326171875,-0.136956125497818,0.28778281807899475,-0.4870149493217468
1772045244595079200,1.5830791015625,-0.024333437904715538,0.2513723373413086,-0.4923228919506073
1772045244605065200,1.593065185546875,0.09102422744035721,0.20368564128875732,-0.5008587837219238
1772045244615051300,1.60305126953125,0.20443761348724365,0.14289820194244385,-0.508621871471405
1772045244625036300,1.613036376953125,0.32038193941116333,0.07989621162414551,-0.5194850564002991
1772045244635022000,1.62302197265625,0.4397733211517334,0.03232230246067047,-0.5331298112869263
1772045244645008100,1.633008056640625,0.5638630390167236,-0.010636616498231888,-0.5648102164268494
1772045244654994200,1.642994140625,0.6893285512924194,-0.02586723491549492,-0.6032737493515015
1772045244664980200,1.652980224609375,0.8090903162956238,-0.011804510839283466,-0.6583878993988037
1772045244674966000,1.662966064453125,0.9236043691635132,0.019096944481134415,-0.7185732126235962
1772045244684951000,1.672950927734375,1.0310447216033936,0.07766745984554291,-0.7778739929199219
1772045244694937300,1.682937255859375,1.131026268005371,0.13609056174755096,-0.8227519989013672
1772045244704923100,1.692923095703125,1.216150164604187,0.19727499783039093,-0.8692622780799866
1772045244714909200,1.7029091796875,1.294745922088623,0.2523363530635834,-0.9179829359054565
1772045244724895200,1.712895263671875,1.3696112632751465,0.2751502990722656,-0.9826830625534058
1772045244734881300,1.72288134765625,1.4469454288482666,0.27712076902389526,-1.0504380464553833
1772045244744866000,1.732865966796875,1.5251637697219849,0.27892056107521057,-1.1216275691986084
1772045244754852000,1.74285205078125,1.6258456707000732,0.2823086380958557,-1.200706958770752
1772045244764838100,1.752838134765625,1.7411744594573975,0.29619792103767395,-1.2667430639266968
1772045244774824000,1.762823974609375,1.8631832599639893,0.34338006377220154,-1.2911522388458252
1772045244784809700,1.772809814453125,1.9749385118484497,0.4119321405887604,-1.2791398763656616
1772045244794796000,1.782796142578125,2.0400147438049316,0.5117921829223633,-1.2506473064422607
1772045244804781000,1.792781005859375,2.0382111072540283,0.625182569026947,-1.226908802986145
1772045244814766800,1.802766845703125,1.955392599105835,0.7565573453903198,-1.211225986480713
1772045244824753000,1.8127529296875,1.8021785020828247,0.9034157395362854,-1.2055858373641968
1772045244834739000,1.822739013671875,1.5716944932937622,1.0631518363952637,-1.2119026184082031
1772045244844725000,1.83272509765625,1.2817906141281128,1.2120836973190308,-1.2187801599502563
1772045244854710800,1.842710693359375,0.9621742963790894,1.3377270698547363,-1.2054680585861206
1772045244864697000,1.852697021484375,0.6229568719863892,1.445211410522461,-1.1636576652526855
1772045244874681900,1.862681884765625,0.28857624530792236,1.5088155269622803,-1.0871144533157349
1772045244884668000,1.87266796875,0.0009116418659687042,1.5174603462219238,-0.9746116995811462
1772045244894653700,1.88265380859375,-0.2119540274143219,1.5010614395141602,-0.8266081213951111
1772045244904640000,1.892639892578125,-0.3617461323738098,1.4476784467697144,-0.6557073593139648
1772045244914625800,1.902625732421875,-0.45958825945854187,1.3703107833862305,-0.4665776193141937
1772045244924611800,1.91261181640625,-0.5116347074508667,1.2842119932174683,-0.30425459146499634
1772045244934597000,1.92259716796875,-0.5288366675376892,1.1822774410247803,-0.20446115732192993
1772045244944583000,1.9325830078125,-0.5250915884971619,1.0749716758728027,-0.17699898779392242
1772045244954569000,1.94256884765625,-0.5048342943191528,0.9686180949211121,-0.21617195010185242
1772045244964555000,1.952554931640625,-0.4655575752258301,0.8927351236343384,-0.31039246916770935
1772045244974541000,1.962541015625,-0.4212478995323181,0.8354148268699646,-0.43932247161865234
1772045244984526800,1.97252685546875,-0.37261638045310974,0.7796469926834106,-0.5934807658195496
1772045244994512000,1.982511962890625,-0.3217944800853729,0.7395139336585999,-0.7528150081634521
1772045245004498000,1.992497802734375,-0.26711851358413696,0.6980374455451965,-0.9019181132316589
1772045245014484000,2.00248388671875,-0.209784135222435,0.6692164540290833,-1.03020441532135
1772045245024469800,2.0124697265625,-0.1495288610458374,0.6481425166130066,-1.1302129030227661
1772045245034456000,2.0224560546875,-0.08927004784345627,0.6239336133003235,-1.2013553380966187
1772045245044441900,2.03244189453125,-0.03189106285572052,0.5974559187889099,-1.2404289245605469
1772045245054428000,2.042427978515625,0.013964573852717876,0.5762616991996765,-1.255975365638733
1772045245064413000,2.052412841796875,0.04414072632789612,0.5439587831497192,-1.2623406648635864
1772045245074399000,2.06239892578125,0.07231616973876953,0.4956527352333069,-1.2632490396499634
1772045245084385000,2.072385009765625,0.11106805503368378,0.44410404562950134,-1.2592544555664062
1772045245094370800,2.082370849609375,0.16539441049098969,0.3963916599750519,-1.2503712177276611
1772045245104357000,2.092357177734375,0.23196986317634583,0.35714977979660034,-1.2383594512939453
1772045245114343000,2.102343017578125,0.29687562584877014,0.3186798691749573,-1.2222121953964233
1772045245124328000,2.112327880859375,0.36567559838294983,0.2972932457923889,-1.1969478130340576
1772045245134313700,2.122313720703125,0.43921029567718506,0.29583463072776794,-1.1678982973098755
1772045245144300000,2.132300048828125,0.5151441693305969,0.30145227909088135,-1.1415024995803833
1772045245154285800,2.142285888671875,0.5767297744750977,0.30762654542922974,-1.1123754978179932
1772045245164271900,2.15227197265625,0.6301177740097046,0.3214181959629059,-1.0798271894454956
1772045245174258000,2.1622578125,0.6663907766342163,0.33715108036994934,-1.0446593761444092
1772045245184243000,2.172242919921875,0.6884548664093018,0.3591042757034302,-1.0046718120574951
1772045245194229000,2.18222900390625,0.7019155621528625,0.38568341732025146,-0.9558504223823547
1772045245204214800,2.19221484375,0.6973032355308533,0.4070591926574707,-0.8964300751686096
1772045245214201000,2.202201171875,0.6816962957382202,0.4248773157596588,-0.8324646353721619
1772045245224187000,2.212186767578125,0.6632261872291565,0.42673566937446594,-0.7636600136756897
1772045245234173000,2.2221728515625,0.636955976486206,0.41072288155555725,-0.6986879706382751
1772045245244159000,2.232158935546875,0.6162064671516418,0.37506103515625,-0.6360808610916138
1772045245254144000,2.24214404296875,0.5940188765525818,0.33227309584617615,-0.5924814343452454
1772045245264129800,2.2521298828125,0.5701369047164917,0.2834412455558777,-0.579831063747406
1772045245274115800,2.26211572265625,0.5353211164474487,0.24332818388938904,-0.6066219210624695
1772045245284102000,2.272101806640625,0.49467185139656067,0.22355790436267853,-0.6688234210014343
1772045245294088000,2.282087890625,0.454444020986557,0.21961934864521027,-0.7701963782310486
1772045245304073700,2.29207373046875,0.42618200182914734,0.27339938282966614,-0.9048136472702026
1772045245314059000,2.30205908203125,0.41993448138237,0.3712140917778015,-1.0678086280822754
1772045245324045000,2.312045166015625,0.45231789350509644,0.4704040288925171,-1.2301675081253052
1772045245334030800,2.32203076171875,0.5161868333816528,0.5864230990409851,-1.3690121173858643
1772045245344017200,2.33201708984375,0.5845921039581299,0.7331637144088745,-1.4567519426345825
1772045245354003000,2.3420029296875,0.6545040607452393,0.8721322417259216,-1.5048803091049194
1772045245363989000,2.351989013671875,0.6866506934165955,0.9873785376548767,-1.527388095855713
1772045245373974800,2.361974853515625,0.6726518273353577,1.0986579656600952,-1.5315295457839966
1772045245383960000,2.3719599609375,0.6165310144424438,1.1859979629516602,-1.5290919542312622
1772045245393945900,2.38194580078125,0.50482177734375,1.2562156915664673,-1.5198441743850708
1772045245403932000,2.391931884765625,0.3569367825984955,1.295957088470459,-1.5076017379760742
1772045245413918000,2.40191796875,0.19232012331485748,1.3002320528030396,-1.4884223937988281
1772045245423904000,2.411904052734375,0.03798762708902359,1.2750215530395508,-1.462702751159668
1772045245433889800,2.421889892578125,-0.08357022702693939,1.212095856666565,-1.4246981143951416
1772045245443876000,2.4318759765625,-0.16776782274246216,1.1181765794754028,-1.3758593797683716
1772045245453861000,2.441861083984375,-0.21459338068962097,1.0025441646575928,-1.3114454746246338
1772045245463847000,2.451846923828125,-0.23468486964702606,0.884468674659729,-1.2333813905715942
1772045245473833000,2.4618330078125,-0.233683779835701,0.7672293782234192,-1.1455745697021484
1772045245483819000,2.471819091796875,-0.22311577200889587,0.6577803492546082,-1.060625672340393
1772045245493805000,2.48180517578125,-0.20473037660121918,0.5726315975189209,-0.9820294976234436
1772045245503790800,2.491790771484375,-0.1934690922498703,0.5015999674797058,-0.9233803153038025
1772045245513777000,2.50177685546875,-0.19452743232250214,0.4361908435821533,-0.8908056020736694
1772045245523762000,2.511761962890625,-0.20748455822467804,0.391635000705719,-0.8740236163139343
1772045245533748000,2.521748046875,-0.22916428744792938,0.3761084973812103,-0.8836067318916321
1772045245543733800,2.531733642578125,-0.26699331402778625,0.3831551671028137,-0.9186984300613403
1772045245553720000,2.541719970703125,-0.3204171061515808,0.4187981188297272,-0.9760575890541077
1772045245563705900,2.551705810546875,-0.3805585205554962,0.488308310508728,-1.0475983619689941
1772045245573692000,2.56169189453125,-0.4361909031867981,0.5884841680526733,-1.1277387142181396
1772045245583678000,2.571677978515625,-0.49775630235671997,0.6965860724449158,-1.202250599861145
1772045245593663000,2.5816630859375,-0.5546084642410278,0.8095800280570984,-1.2703883647918701
1772045245603649000,2.59164892578125,-0.6058821678161621,0.9123016595840454,-1.3187544345855713
1772045245613634800,2.601634765625,-0.6585712432861328,1.0015039443969727,-1.3419233560562134
1772045245623620900,2.611620849609375,-0.714521050453186,1.0632352828979492,-1.3513671159744263
1772045245633607000,2.62160693359375,-0.7688330411911011,1.091873049736023,-1.3402491807937622
1772045245643593000,2.631593017578125,-0.8046887516975403,1.0814006328582764,-1.3238190412521362
1772045245653579000,2.6415791015625,-0.8161028027534485,1.0494269132614136,-1.3032485246658325
1772045245663564000,2.65156396484375,-0.8080111742019653,1.0023783445358276,-1.2798950672149658
1772045245673549800,2.6615498046875,-0.7832475304603577,0.9295848608016968,-1.2543127536773682
1772045245683536000,2.671535888671875,-0.7359411120414734,0.8548396229743958,-1.2172728776931763
1772045245693522000,2.68152197265625,-0.6614676713943481,0.7671260237693787,-1.1808301210403442
1772045245703508000,2.691508056640625,-0.567031979560852,0.674018383026123,-1.1506787538528442
1772045245713493800,2.70149365234375,-0.45803627371788025,0.5736957788467407,-1.1324843168258667
1772045245723480000,2.71147998046875,-0.33946341276168823,0.48380300402641296,-1.1356933116912842
1772045245733464800,2.72146484375,-0.22634857892990112,0.40587303042411804,-1.1700278520584106
1772045245743451000,2.731450927734375,-0.12687690556049347,0.357928603887558,-1.2248986959457397
1772045245753437000,2.74143701171875,-0.05264608561992645,0.3374086618423462,-1.2927725315093994
1772045245763423000,2.751423095703125,0.0020795846357941628,0.3442017138004303,-1.367179274559021
1772045245773408800,2.76140869140625,0.04434634745121002,0.3744397759437561,-1.4400182962417603
1772045245783394000,2.77139404296875,0.08417008817195892,0.44467583298683167,-1.5164812803268433
1772045245793380400,2.78138037109375,0.11977015435695648,0.5435800552368164,-1.5740021467208862
1772045245803365000,2.791365234375,0.18098387122154236,0.6293482184410095,-1.6181498765945435
1772045245813351200,2.80135107421875,0.2539995014667511,0.6990404725074768,-1.6589043140411377
1772045245823337000,2.8113369140625,0.34722205996513367,0.7428288459777832,-1.6932750940322876
1772045245833323300,2.8213232421875,0.4466541111469269,0.747318685054779,-1.7210854291915894
1772045245843309000,2.83130908203125,0.5469872951507568,0.7370674014091492,-1.7341254949569702
1772045245853295000,2.841295166015625,0.6339221596717834,0.7048689723014832,-1.740638256072998
1772045245863281200,2.85128125,0.706024169921875,0.6428818702697754,-1.7352784872055054
1772045245873267200,2.86126708984375,0.7531874179840088,0.577320396900177,-1.7164217233657837
1772045245883252200,2.871252197265625,0.7843449711799622,0.5004163384437561,-1.6913126707077026
1772045245893238000,2.881238037109375,0.8041538596153259,0.4214693009853363,-1.669021487236023
1772045245903224300,2.891224365234375,0.813165545463562,0.3487735986709595,-1.651472568511963
1772045245913210000,2.901210205078125,0.8212022185325623,0.28101077675819397,-1.6475603580474854
1772045245923196200,2.911196044921875,0.8266685009002686,0.21653029322624207,-1.6710766553878784
1772045245933182200,2.92118212890625,0.8317521810531616,0.14764709770679474,-1.7338367700576782
1772045245943168300,2.931168212890625,0.846565306186676,0.06912298500537872,-1.8344742059707642
1772045245953153000,2.941153076171875,0.894239604473114,0.011022395454347134,-1.9555740356445312
1772045245963139000,2.95113916015625,0.9838528037071228,-0.006767254322767258,-2.065898895263672
1772045245973125000,2.961125,1.1162222623825073,0.02373712696135044,-2.132317304611206
1772045245983111200,2.971111083984375,1.259098768234253,0.09345042705535889,-2.1753950119018555
1772045245993097000,2.981096923828125,1.3680603504180908,0.1895974725484848,-2.2173073291778564
1772045246003083300,2.991083251953125,1.432931661605835,0.31681832671165466,-2.284431219100952
1772045246013069000,3.001069091796875,1.4470853805541992,0.4601302146911621,-2.3777759075164795
1772045246023055000,3.01105517578125,1.4230502843856812,0.6488151550292969,-2.494351625442505
1772045246033041200,3.021041259765625,1.3644315004348755,0.9025137424468994,-2.6464858055114746
1772045246043026200,3.031026123046875,1.287838101387024,1.2025686502456665,-2.804136276245117
1772045246053012200,3.04101220703125,1.2008463144302368,1.5525511503219604,-2.953716278076172
1772045246062998000,3.050998046875,1.1180897951126099,1.9397954940795898,-3.072723865509033
1772045246072984300,3.060984375,1.0466524362564087,2.305793285369873,-3.1516330242156982
1772045246082970000,3.07097021484375,0.9849887490272522,2.6284847259521484,-3.1950490474700928
1772045246092956200,3.0809560546875,0.9006800055503845,2.9375998973846436,-3.219456911087036
1772045246102942200,3.090942138671875,0.7814493179321289,3.2344563007354736,-3.2311251163482666
1772045246112928300,3.10092822265625,0.6444475650787354,3.4820826053619385,-3.222026824951172
1772045246122913000,3.1109130859375,0.5216270089149475,3.6240811347961426,-3.1875905990600586
1772045246132899300,3.1208994140625,0.4407496750354767,3.6340131759643555,-3.1297552585601807
1772045246142885000,3.130885009765625,0.4183655381202698,3.506150245666504,-3.044219493865967
1772045246152871200,3.14087109375,0.43369200825691223,3.25164794921875,-2.9317994117736816
1772045246162857000,3.15085693359375,0.47875943779945374,2.9088189601898193,-2.793792486190796
1772045246172843300,3.16084326171875,0.5358877182006836,2.5117392539978027,-2.6379501819610596
1772045246182829000,3.1708291015625,0.5992939472198486,2.08652925491333,-2.4630532264709473
1772045246192815000,3.180815185546875,0.6443828344345093,1.6555105447769165,-2.2820022106170654
1772045246202800400,3.19080029296875,0.6723190546035767,1.267007827758789,-2.1090052127838135
1772045246212786200,3.2007861328125,0.687457263469696,0.9253244996070862,-1.9559377431869507
1772045246222772200,3.210772216796875,0.6881109476089478,0.6610814929008484,-1.8288922309875488
1772045246232758300,3.22075830078125,0.6843454837799072,0.4806717336177826,-1.7229599952697754
1772045246242744300,3.230744384765625,0.6715737581253052,0.3716129958629608,-1.638828992843628
1772045246252730000,3.240730224609375,0.6627280712127686,0.30677250027656555,-1.5739655494689941
1772045246262716200,3.250716064453125,0.6469916701316833,0.28042420744895935,-1.5298689603805542
1772045246272702200,3.2607021484375,0.6287221312522888,0.30861082673072815,-1.5047812461853027
1772045246282688300,3.270688232421875,0.6151694655418396,0.3526466190814972,-1.5026757717132568
1772045246292673000,3.280673095703125,0.6156344413757324,0.4306090474128723,-1.5114375352859497
1772045246302659300,3.290659423828125,0.613410234451294,0.5515466332435608,-1.522716999053955
1772045246312645000,3.30064501953125,0.6071291565895081,0.7033476233482361,-1.5321054458618164
1772045246322631200,3.310631103515625,0.5969969630241394,0.8449227809906006,-1.5378332138061523
1772045246332617200,3.3206171875,0.5828942060470581,0.9516324400901794,-1.5575240850448608
1772045246342603300,3.330603271484375,0.5721020102500916,1.0198763608932495,-1.5842000246047974
1772045246352589000,3.340589111328125,0.5682689547538757,1.043184518814087,-1.6080642938613892
1772045246362575000,3.3505751953125,0.564666211605072,1.0412847995758057,-1.612479567527771
1772045246372560400,3.360560302734375,0.5674963593482971,1.01937997341156,-1.5910074710845947
1772045246382546200,3.370546142578125,0.5862559080123901,0.9806820154190063,-1.5480464696884155
1772045246392532200,3.3805322265625,0.6109402179718018,0.9362810254096985,-1.4924553632736206
1772045246402518300,3.390518310546875,0.6439703702926636,0.876676619052887,-1.4414403438568115
1772045246412504300,3.40050439453125,0.6615594625473022,0.8198497891426086,-1.3912261724472046
1772045246422490000,3.410489990234375,0.6712576150894165,0.7978958487510681,-1.361581563949585
1772045246432476200,3.42047607421875,0.678909957408905,0.810369610786438,-1.3476300239562988
1772045246442462200,3.430462158203125,0.6902672648429871,0.8493121266365051,-1.3485987186431885
1772045246452448300,3.4404482421875,0.7154825925827026,0.9014586806297302,-1.3504650592803955
1772045246462433000,3.45043310546875,0.7541597485542297,0.9481782913208008,-1.3534637689590454
1772045246472419300,3.46041943359375,0.8071374893188477,0.9814600944519043,-1.3524872064590454
1772045246482405000,3.470405029296875,0.8708255887031555,0.9935190677642822,-1.3393731117248535
1772045246492391200,3.48039111328125,0.9412677884101868,0.9788285493850708,-1.3147116899490356
1772045246502377200,3.490377197265625,1.0047187805175781,0.9513305425643921,-1.2770856618881226
1772045246512363300,3.50036328125,1.0530428886413574,0.9214431643486023,-1.2157080173492432
1772045246522349000,3.51034912109375,1.0812146663665771,0.8967093825340271,-1.1441442966461182
1772045246532335400,3.52033544921875,1.1040126085281372,0.8590331077575684,-1.061950922012329
1772045246542321200,3.530321044921875,1.114285945892334,0.8177982568740845,-0.9649595022201538
1772045246552306200,3.54030615234375,1.1229205131530762,0.7603639960289001,-0.8505043387413025
1772045246562292200,3.550292236328125,1.1246627569198608,0.6951281428337097,-0.7281878590583801
1772045246572278300,3.5602783203125,1.103067398071289,0.6292529702186584,-0.603187620639801
1772045246582264000,3.57026416015625,1.062922477722168,0.5589986443519592,-0.4894050359725952
1772045246592250000,3.58025,1.0034562349319458,0.48147082328796387,-0.39039987325668335
1772045246602236200,3.590236083984375,0.9390496611595154,0.39788010716438293,-0.30402031540870667
1772045246612222200,3.60022216796875,0.8745766878128052,0.3207709491252899,-0.2273242175579071
1772045246622208000,3.6102080078125,0.8167032599449158,0.2529861330986023,-0.1644689291715622
1772045246632193000,3.620193115234375,0.7550274133682251,0.19287484884262085,-0.1007607951760292
1772045246642179300,3.630179443359375,0.689964771270752,0.15472595393657684,-0.045259665697813034
1772045246652165000,3.6401650390625,0.6163060069084167,0.12392089515924454,-0.01417338103055954
1772045246662151200,3.650151123046875,0.5315056443214417,0.10229496657848358,-0.011268405243754387
1772045246672137200,3.66013720703125,0.43689706921577454,0.09147773683071136,-0.03807125985622406
1772045246682123300,3.670123291015625,0.32537612318992615,0.08823762834072113,-0.08768554031848907
1772045246692109000,3.680109130859375,0.20167918503284454,0.0987057164311409,-0.1486857682466507
1772045246702095400,3.690095458984375,0.06930148601531982,0.1391458362340927,-0.21330057084560394
1772045246712081200,3.7000810546875,-0.050376977771520615,0.17848923802375793,-0.28568023443222046
1772045246722067200,3.710067138671875,-0.1623339205980301,0.22945627570152283,-0.35617291927337646
1772045246732052000,3.720052001953125,-0.26346850395202637,0.2800062596797943,-0.41682854294776917
1772045246742038300,3.730038330078125,-0.3710675537586212,0.3304383456707001,-0.4644814431667328
1772045246752024000,3.740024169921875,-0.46952512860298157,0.36826908588409424,-0.49516746401786804
1772045246762010000,3.750010009765625,-0.5687243342399597,0.38414233922958374,-0.504496157169342
1772045246771996200,3.75999609375,-0.6786748170852661,0.39049822092056274,-0.4964912235736847
1772045246781983200,3.769983154296875,-0.788175642490387,0.38739487528800964,-0.4897490441799164
1772045246791969000,3.779968994140625,-0.8915867209434509,0.3762016296386719,-0.4834810197353363
1772045246801955000,3.789955078125,-0.9693236351013184,0.36625415086746216,-0.47984549403190613
1772045246811939800,3.79993994140625,-1.0178425312042236,0.3462548851966858,-0.4809421896934509
1772045246821926100,3.809926025390625,-1.0386362075805664,0.3051817715167999,-0.4810243546962738
1772045246831912000,3.819911865234375,-1.0282570123672485,0.2641688287258148,-0.47350573539733887
1772045246841898000,3.82989794921875,-0.9985765218734741,0.22608312964439392,-0.44065365195274353
1772045246851884000,3.839884033203125,-0.9466427564620972,0.19161143898963928,-0.3800877630710602
1772045246861870000,3.8498701171875,-0.8874486684799194,0.1684090942144394,-0.2910468280315399
1772045246871855900,3.85985595703125,-0.839133620262146,0.1591990888118744,-0.17509837448596954
1772045246881842200,3.86984228515625,-0.8058287501335144,0.15068531036376953,-0.056397922337055206
1772045246891828000,3.879827880859375,-0.7960437536239624,0.13572047650814056,0.04907630383968353
1772045246901814000,3.88981396484375,-0.814302384853363,0.11670460551977158,0.13252568244934082
1772045246911799000,3.899799072265625,-0.848457932472229,0.07227376103401184,0.19549532234668732
1772045246921785000,3.90978515625,-0.8708339929580688,0.005022763274610043,0.24557942152023315
1772045246931771100,3.919771240234375,-0.8834613561630249,-0.07302676886320114,0.29318928718566895
1772045246941757000,3.9297568359375,-0.8916468620300293,-0.1612360030412674,0.3409157395362854
1772045246951743200,3.9397431640625,-0.9062607288360596,-0.24907903373241425,0.3986557424068451
1772045246961729000,3.94972900390625,-0.9125558137893677,-0.32647934556007385,0.45973503589630127
1772045246971715000,3.959715087890625,-0.9125904440879822,-0.40589961409568787,0.5202481746673584
1772045246981701000,3.969701171875,-0.9058647751808167,-0.47148147225379944,0.5743511915206909
1772045246991686100,3.97968603515625,-0.8952594995498657,-0.5327571034431458,0.6042787432670593
1772045247001672000,3.989671875,-0.9050313830375671,-0.583896815776825,0.6200282573699951
1772045247011658000,3.999657958984375,-0.9276254177093506,-0.6185394525527954,0.6157946586608887
1772045247021644000,4.00964404296875,-0.961962103843689,-0.6303436756134033,0.5913991332054138
1772045247031630000,4.019630126953125,-0.9880936145782471,-0.6189690232276917,0.5377316474914551
1772045247041616000,4.029615966796875,-0.998812198638916,-0.5769919157028198,0.4637623131275177
1772045247051602200,4.039602294921875,-0.990206241607666,-0.49811601638793945,0.3666112422943115
1772045247061588000,4.049587890625,-0.9691395163536072,-0.3892265558242798,0.24885573983192444
1772045247071574000,4.059573974609375,-0.9496896266937256,-0.266264408826828,0.12416066974401474
1772045247081559000,4.06955908203125,-0.9295825958251953,-0.1288163661956787,0.01495291292667389
1772045247091545000,4.079545166015625,-0.9137639403343201,0.005847696680575609,-0.08525704592466354
1772045247101531100,4.08953125,-0.9089236855506897,0.12469737231731415,-0.16747011244297028
1772045247111517000,4.099516845703125,-0.9041771292686462,0.22641894221305847,-0.23396311700344086
1772045247121503200,4.109503173828125,-0.8971333503723145,0.3011738955974579,-0.2819898724555969
1772045247131489000,4.119489013671875,-0.8810172080993652,0.34685802459716797,-0.31599393486976624
1772045247141475000,4.12947509765625,-0.8592422008514404,0.3656240403652191,-0.3305307626724243
1772045247151461000,4.139461181640625,-0.8197533488273621,0.35955309867858887,-0.3242510259151459
1772045247161447200,4.149447265625,-0.7656785249710083,0.3412157893180847,-0.30787816643714905
1772045247171432000,4.159431884765625,-0.7015264630317688,0.3184247314929962,-0.28588417172431946
1772045247181418000,4.16941796875,-0.6315911412239075,0.290689080953598,-0.26235103607177734
1772045247191404000,4.179404052734375,-0.5569664835929871,0.26630279421806335,-0.23897327482700348
1772045247201390000,4.18939013671875,-0.4792792499065399,0.25246497988700867,-0.21475684642791748
1772045247211375900,4.1993759765625,-0.4023530185222626,0.24270156025886536,-0.19208720326423645
1772045247221362200,4.209362060546875,-0.3268066346645355,0.229573056101799,-0.170536071062088
1772045247231348000,4.219347900390625,-0.25793009996414185,0.22005358338356018,-0.15122973918914795
1772045247241334000,4.229333984375,-0.18890775740146637,0.20575280487537384,-0.13228169083595276
1772045247251320000,4.239320068359375,-0.11882001161575317,0.19086121022701263,-0.12101492285728455
1772045247261305000,4.24930517578125,-0.03828123211860657,0.17200016975402832,-0.11239507049322128
1772045247271291100,4.259291015625,0.06087198480963707,0.14459677040576935,-0.09971682727336884
1772045247281277000,4.26927685546875,0.1745772510766983,0.11571639031171799,-0.06570825725793839
1772045247291263000,4.279262939453125,0.31067460775375366,0.08362530171871185,-0.0082100760191679
1772045247301249000,4.2892490234375,0.4641800820827484,0.055120956152677536,0.0888703241944313
1772045247311235000,4.299235107421875,0.6295040249824524,0.030257685109972954,0.21884377300739288
1772045247321221000,4.30922119140625,0.770375669002533,-0.020777253434062004,0.335595041513443
1772045247331207000,4.31920703125,0.8683571219444275,-0.10302631556987762,0.42721763253211975
1772045247341192000,4.32919189453125,0.9337815046310425,-0.21251186728477478,0.4530740976333618
1772045247351178000,4.339177978515625,1.005770206451416,-0.31860077381134033,0.4274081289768219
1772045247361164000,4.3491640625,1.112996220588684,-0.3926880955696106,0.3522806763648987
1772045247371150000,4.359150146484375,1.2402809858322144,-0.41452762484550476,0.2577855885028839
1772045247381136000,4.369135986328125,1.3878984451293945,-0.3971942663192749,0.1501084864139557
1772045247391122200,4.3791220703125,1.5221052169799805,-0.36861294507980347,0.03486471250653267
1772045247401108000,4.38910791015625,1.6158701181411743,-0.3429507911205292,-0.09009181708097458
1772045247411094000,4.399093994140625,1.6613998413085938,-0.3378457725048065,-0.21365025639533997
1772045247421080000,4.409080078125,1.6678431034088135,-0.3369618058204651,-0.29206159710884094
1772045247431065000,4.419065185546875,1.6349480152130127,-0.3076750338077545,-0.31786099076271057
1772045247441051000,4.42905078125,1.5728652477264404,-0.2633901834487915,-0.31270456314086914
1772045247451037000,4.439036865234375,1.4724984169006348,-0.19234688580036163,-0.28324228525161743
1772045247461023000,4.44902294921875,1.3416460752487183,-0.08469463139772415,-0.22637638449668884
1772045247471009000,4.459009033203125,1.1956896781921387,0.021722091361880302,-0.15364545583724976
1772045247480994800,4.468994873046875,1.0313198566436768,0.08752647787332535,-0.0937553122639656
1772045247490981000,4.478981201171875,0.8643220663070679,0.10480746626853943,-0.049939122051000595
1772045247500967000,4.488966796875,0.7074909210205078,0.07076027989387512,-0.022453170269727707
1772045247510952000,4.498951904296875,0.5655943155288696,-0.0010713019873946905,-0.005428113974630833
1772045247520938200,4.508938232421875,0.4465954601764679,-0.1029350608587265,0.010245532728731632
1772045247530924000,4.518924072265625,0.3572938144207001,-0.2032424956560135,0.018245935440063477
1772045247540910000,4.52891015625,0.28456002473831177,-0.2846430540084839,0.011081110686063766
1772045247550895900,4.538895751953125,0.2196987271308899,-0.3486124575138092,-0.0145014813169837
1772045247560882200,4.548882080078125,0.16490361094474792,-0.37668290734291077,-0.056261878460645676
1772045247570868000,4.558867919921875,0.12410292029380798,-0.3692561686038971,-0.11595769971609116
1772045247580854000,4.56885400390625,0.099325031042099,-0.3208538591861725,-0.18454495072364807
1772045247590840000,4.578840087890625,0.09416915476322174,-0.24655139446258545,-0.26888298988342285
1772045247600825000,4.5888251953125,0.11337396502494812,-0.1476069837808609,-0.3622002899646759
1772045247610811000,4.598810791015625,0.15307743847370148,-0.043414533138275146,-0.45754387974739075
1772045247620797200,4.608797119140625,0.21613788604736328,0.07550475001335144,-0.5423473715782166
1772045247630783000,4.618782958984375,0.29600101709365845,0.18678119778633118,-0.6026560068130493
1772045247640769000,4.62876904296875,0.39276570081710815,0.2787747085094452,-0.6392093896865845
1772045247650754800,4.6387548828125,0.4742288887500763,0.35686472058296204,-0.643284261226654
1772045247660741000,4.6487412109375,0.5390942096710205,0.4052131772041321,-0.6251609325408936
1772045247670727000,4.658726806640625,0.5776296257972717,0.40586432814598083,-0.5772820711135864
1772045247680712000,4.6687119140625,0.590451717376709,0.3623639941215515,-0.5142730474472046
1772045247690698200,4.6786982421875,0.5730897188186646,0.3032924234867096,-0.44013649225234985
1772045247700684000,4.68868408203125,0.5347325205802917,0.21732275187969208,-0.3567020893096924
1772045247710670000,4.698670166015625,0.4800889790058136,0.11942014843225479,-0.2725462019443512
1772045247720656100,4.70865625,0.4228180944919586,0.03521334379911423,-0.1943178027868271
1772045247730642200,4.71864208984375,0.37046805024147034,-0.028270289301872253,-0.12693768739700317
1772045247740628000,4.7286279296875,0.3178211748600006,-0.07020163536071777,-0.07895997911691666
1772045247750614000,4.738614013671875,0.27932679653167725,-0.0770275816321373,-0.045862749218940735
1772045247760599000,4.74859912109375,0.24632711708545685,-0.0619942881166935,-0.03612523525953293
1772045247770585000,4.758585205078125,0.23135855793952942,-0.04944414272904396,-0.04318580776453018
1772045247780571400,4.7685712890625,0.212755486369133,-0.01689385250210762,-0.058374304324388504
1772045247790557400,4.778557373046875,0.205003559589386,0.027188919484615326,-0.061933618038892746
1772045247800543500,4.78854345703125,0.19312700629234314,0.07732046395540237,-0.060525842010974884
1772045247810529500,4.798529541015625,0.17762526869773865,0.13440026342868805,-0.05503040552139282
1772045247820515300,4.808515380859375,0.15858259797096252,0.18988393247127533,-0.043456822633743286
1772045247830501600,4.818501708984375,0.13622349500656128,0.21258658170700073,-0.029598528519272804
1772045247840486400,4.828486328125,0.10904975980520248,0.20980876684188843,-0.008093239739537239
1772045247850472400,4.838472412109375,0.06735025346279144,0.18460194766521454,0.013958798721432686
1772045247860458500,4.84845849609375,0.026446500793099403,0.13990700244903564,0.03503849357366562
1772045247870444500,4.858444580078125,-0.010420702397823334,0.09840509295463562,0.05362789332866669
1772045247880430300,4.868430419921875,-0.0438196174800396,0.05787570774555206,0.06926500797271729
1772045247890416400,4.87841650390625,-0.06069979816675186,0.025086602196097374,0.08676650375127792
1772045247900402400,4.88840234375,-0.07885300368070602,0.018626734614372253,0.11878815293312073
1772045247910387500,4.898387451171875,-0.0930258110165596,0.008818310685455799,0.14423945546150208
1772045247920373500,4.90837353515625,-0.10776642709970474,0.002791399136185646,0.17783448100090027
1772045247930359300,4.918359375,-0.11676737666130066,0.006128872744739056,0.21511074900627136
1772045247940345600,4.928345703125,-0.12282432615756989,-0.007891195826232433,0.2459995597600937
1772045247950331400,4.938331298828125,-0.11937366425991058,-0.02463875152170658,0.26975417137145996
1772045247960317400,4.9483173828125,-0.10545677691698074,-0.05542178452014923,0.3038812577724457
1772045247970303500,4.958303466796875,-0.09270716458559036,-0.09579397737979889,0.34649771451950073
1772045247980289500,4.96828955078125,-0.08655105531215668,-0.14365482330322266,0.3877371549606323
1772045247990274300,4.9782744140625,-0.09689956158399582,-0.17557093501091003,0.4150598347187042
1772045248000260400,4.98826025390625,-0.12974384427070618,-0.1878320574760437,0.4133259952068329
1772045248010246400,4.998246337890625,-0.17613504827022552,-0.20900419354438782,0.37900716066360474
1772045248020232400,5.008232421875,-0.21453708410263062,-0.22535991668701172,0.3250252902507782
1772045248030218200,5.01821826171875,-0.21496132016181946,-0.23729701340198517,0.27411338686943054
1772045248040204500,5.02820458984375,-0.1865401715040207,-0.2474060356616974,0.2527211010456085
1772045248050190300,5.0381904296875,-0.14469020068645477,-0.2541462481021881,0.26041287183761597
1772045248060176400,5.04817626953125,-0.10700801759958267,-0.26546207070350647,0.3078201413154602
1772045248070161400,5.058161376953125,-0.07660350948572159,-0.30344143509864807,0.3981710970401764
1772045248080147500,5.0681474609375,-0.07014039158821106,-0.35203516483306885,0.5252260565757751
1772045248090133500,5.078133544921875,-0.09860691428184509,-0.40846729278564453,0.6557265520095825
1772045248100119300,5.088119384765625,-0.16776616871356964,-0.47389891743659973,0.7669117450714111
1772045248110105600,5.098105712890625,-0.27530646324157715,-0.5328019261360168,0.8603540658950806
1772045248120091400,5.10809130859375,-0.4170359969139099,-0.5797983407974243,0.9174977540969849
1772045248130077400,5.118077392578125,-0.5785641670227051,-0.6477715373039246,0.9266723394393921
1772045248140062500,5.1280625,-0.7418767809867859,-0.7072770595550537,0.9087569713592529
1772045248150048500,5.138048583984375,-0.8896649479866028,-0.7515595555305481,0.8980260491371155
1772045248160034300,5.148034423828125,-1.0006922483444214,-0.7871935367584229,0.9115857481956482
1772045248170020400,5.158020263671875,-1.0733011960983276,-0.8102895617485046,0.9599876403808594
1772045248180006400,5.16800634765625,-1.1113386154174805,-0.8589526414871216,1.0257506370544434
1772045248189992400,5.177992431640625,-1.1161165237426758,-0.9280949234962463,1.1097198724746704
1772045248199978200,5.187978271484375,-1.108535885810852,-1.0049128532409668,1.2075145244598389
1772045248209963500,5.197963623046875,-1.0898269414901733,-1.0935019254684448,1.3050533533096313
1772045248219949600,5.207949462890625,-1.074027419090271,-1.1743658781051636,1.3877372741699219
1772045248229935400,5.217935302734375,-1.086748480796814,-1.2495017051696777,1.4411307573318481
1772045248239921700,5.227921630859375,-1.1040276288986206,-1.2909352779388428,1.4669634103775024
1772045248249907500,5.237907470703125,-1.1260982751846313,-1.3057161569595337,1.4716769456863403
1772045248259893500,5.2478935546875,-1.146224021911621,-1.3073638677597046,1.4544929265975952
1772045248269879300,5.25787939453125,-1.1506562232971191,-1.283384919166565,1.4371455907821655
1772045248279865600,5.267865478515625,-1.15816068649292,-1.2435188293457031,1.4073914289474487
1772045248289850400,5.277850341796875,-1.160843014717102,-1.2009278535842896,1.38353431224823
1772045248299836400,5.28783642578125,-1.173196792602539,-1.153831958770752,1.3571898937225342
1772045248309822500,5.297822509765625,-1.1780598163604736,-1.1002625226974487,1.3171509504318237
1772045248319808500,5.30780859375,-1.1976804733276367,-1.0264989137649536,1.2304123640060425
1772045248329794300,5.317794189453125,-1.2174038887023926,-0.9999179840087891,1.1644772291183472
1772045248339779300,5.327779296875,-1.2028281688690186,-0.9667929410934448,1.1164567470550537
1772045248349765600,5.337765625,-1.1502046585083008,-0.9454159736633301,1.073699951171875
1772045248359751400,5.34775146484375,-1.0636239051818848,-0.9146420955657959,1.00669527053833
1772045248369737500,5.357737548828125,-0.9835730195045471,-0.8727657794952393,0.918682873249054
1772045248379723500,5.3677236328125,-0.9220072627067566,-0.8694330453872681,0.8401278257369995
1772045248389709600,5.37770947265625,-0.8727909922599792,-0.8705616593360901,0.7789677977561951
1772045248399695400,5.3876953125,-0.8313912153244019,-0.8810304403305054,0.7342072129249573
1772045248409680400,5.397680419921875,-0.7982990741729736,-0.8938139081001282,0.6964929103851318
1772045248419666400,5.40766650390625,-0.754458487033844,-0.904108464717865,0.6696764826774597
1772045248429652500,5.417652587890625,-0.7042992115020752,-0.9212328195571899,0.6425228714942932
1772045248439638300,5.42763818359375,-0.6400938034057617,-0.9344609379768372,0.6142736673355103
1772045248449624600,5.43762451171875,-0.5684012174606323,-0.9311255812644958,0.5840973854064941
1772045248459610400,5.4476103515625,-0.48075050115585327,-0.9193719625473022,0.5521683692932129
1772045248469596400,5.457596435546875,-0.3804475963115692,-0.9006448984146118,0.5198290944099426
1772045248479581400,5.46758154296875,-0.27496692538261414,-0.861621618270874,0.49433356523513794
1772045248489567500,5.4775673828125,-0.1717633157968521,-0.8098351359367371,0.4715510308742523
1772045248499553500,5.487553466796875,-0.08010769635438919,-0.7551708221435547,0.4380461275577545
1772045248509539300,5.497539306640625,-0.008096884936094284,-0.7015858888626099,0.4000664949417114
1772045248519525600,5.507525634765625,0.0505232959985733,-0.664901614189148,0.35139331221580505
1772045248529511400,5.517511474609375,0.08658116310834885,-0.6143359541893005,0.2912577986717224
1772045248539497500,5.52749755859375,0.13057668507099152,-0.5570083260536194,0.23182342946529388
1772045248549483500,5.5374833984375,0.17640729248523712,-0.4878641366958618,0.16551019251346588
1772045248559468500,5.547468505859375,0.23988564312458038,-0.38155436515808105,0.10116375982761383
1772045248569454300,5.557454345703125,0.29889756441116333,-0.2653864622116089,0.03791075199842453
1772045248579440400,5.5674404296875,0.349004328250885,-0.12865334749221802,-0.028131823986768723
1772045248589426400,5.577426513671875,0.3860534131526947,0.02297452837228775,-0.10809829831123352
1772045248599412500,5.58741259765625,0.4027853012084961,0.19006428122520447,-0.20427238941192627
1772045248609398300,5.597398193359375,0.40011972188949585,0.36818715929985046,-0.3189169466495514
1772045248619383600,5.607383544921875,0.3864547908306122,0.5291479825973511,-0.4475497305393219
1772045248629369600,5.61736962890625,0.39022237062454224,0.6823066473007202,-0.5778859257698059
1772045248639355400,5.62735546875,0.4258856773376465,0.8378270268440247,-0.6748335957527161
1772045248649341400,5.637341552734375,0.5050681233406067,0.985657811164856,-0.7274512648582458
1772045248659327500,5.647327392578125,0.5995639562606812,1.1226294040679932,-0.7355220913887024
1772045248669313500,5.6573134765625,0.6841299533843994,1.231870412826538,-0.7142431735992432
1772045248679299300,5.66729931640625,0.7379159927368164,1.3062331676483154,-0.6790854334831238
1772045248689284600,5.67728466796875,0.7488804459571838,1.3533459901809692,-0.6415380239486694
1772045248699270400,5.6872705078125,0.743617057800293,1.3747971057891846,-0.6009325385093689
1772045248709256400,5.69725634765625,0.7314940690994263,1.376882553100586,-0.5571461915969849
1772045248719242500,5.707242431640625,0.7196497917175293,1.3560247421264648,-0.5114775896072388
1772045248729228500,5.717228515625,0.7101343274116516,1.3149080276489258,-0.4522675573825836
1772045248739214300,5.72721435546875,0.6989850997924805,1.2353323698043823,-0.3790959119796753
1772045248749200400,5.737200439453125,0.6936015486717224,1.1370385885238647,-0.29007071256637573
1772045248759186400,5.7471865234375,0.6727651953697205,1.0246121883392334,-0.1989765763282776
1772045248769172500,5.75717236328125,0.6303682327270508,0.9028831720352173,-0.11571762710809708
1772045248779157800,5.76715771484375,0.566200852394104,0.7629209160804749,-0.04209742695093155
1772045248789142800,5.777142822265625,0.4752757251262665,0.6229848861694336,0.018952613696455956
1772045248799128800,5.78712890625,0.35857799649238586,0.5026657581329346,0.06366179138422012
1772045248809114600,5.797114501953125,0.22269979119300842,0.38418060541152954,0.0766012966632843
1772045248819101000,5.807100830078125,0.08680786192417145,0.28817328810691833,0.053778789937496185
1772045248829086700,5.817086669921875,-0.04594140127301216,0.232764333486557,0.00047748605720698833
1772045248839072800,5.82707275390625,-0.15141722559928894,0.22145335376262665,-0.07048936188220978
1772045248849058800,5.837058837890625,-0.2207699418067932,0.24716776609420776,-0.15261591970920563
1772045248859043800,5.8470439453125,-0.2539502680301666,0.3223269581794739,-0.24185611307621002
1772045248869030000,5.85702978515625,-0.228666752576828,0.3920343816280365,-0.3299385905265808
1772045248879015700,5.867015625,-0.17587974667549133,0.4670464098453522,-0.40032169222831726
1772045248889001700,5.877001708984375,-0.11235377192497253,0.5560308694839478,-0.4458329975605011
1772045248898987800,5.88698779296875,-0.039590030908584595,0.6316725611686707,-0.48873162269592285
1772045248908973600,5.8969736328125,0.02518656849861145,0.6882588863372803,-0.522648274898529
1772045248918958800,5.906958740234375,0.0828276053071022,0.7223495244979858,-0.5376827120780945
1772045248928945000,5.91694482421875,0.12888163328170776,0.7350530624389648,-0.5317646265029907
1772045248938930700,5.9269306640625,0.18049541115760803,0.7156720757484436,-0.5108698606491089
1772045248948916700,5.936916748046875,0.24037393927574158,0.6624277830123901,-0.4722244143486023
1772045248958902800,5.94690283203125,0.3076678514480591,0.5953081250190735,-0.41312143206596375
1772045248968888800,5.956888916015625,0.36265039443969727,0.5213441252708435,-0.3468947410583496
1772045248978874600,5.96687451171875,0.41447535157203674,0.44082748889923096,-0.2715041935443878
1772045248988860000,5.97685986328125,0.4522286057472229,0.3497462868690491,-0.200978621840477
1772045248998845700,5.986845703125,0.4783971607685089,0.24658674001693726,-0.13450653851032257
1772045249008831700,5.996831787109375,0.4989841878414154,0.1500101387500763,-0.07291772961616516
1772045249018817800,6.00681787109375,0.5251756906509399,0.0645691379904747,-0.013558018952608109
1772045249028803800,6.016803955078125,0.559247612953186,0.0008388947462663054,0.03437887877225876
1772045249038789600,6.02678955078125,0.6022051572799683,-0.05172403156757355,0.06264416873455048
1772045249048774700,6.036774658203125,0.6506869196891785,-0.08989405632019043,0.07626517117023468
1772045249058761000,6.046760986328125,0.7029485702514648,-0.10095351934432983,0.08484279364347458
1772045249068746800,6.056746826171875,0.758678138256073,-0.12428174167871475,0.09840068221092224
1772045249078732800,6.06673291015625,0.8140387535095215,-0.13380081951618195,0.11823456734418869
1772045249088718800,6.07671875,0.8500478863716125,-0.13432040810585022,0.14025864005088806
1772045249098705000,6.086704833984375,0.8782756328582764,-0.14442609250545502,0.14679794013500214
1772045249108690700,6.096690673828125,0.8948809504508972,-0.16325730085372925,0.1456458568572998
1772045249118675700,6.10667578125,0.8975872993469238,-0.17299309372901917,0.13979287445545197
1772045249128661800,6.116661865234375,0.8896470665931702,-0.18820613622665405,0.12544402480125427
1772045249138647800,6.126647705078125,0.8670130968093872,-0.19784998893737793,0.11192701011896133
1772045249148633600,6.136633544921875,0.8287757039070129,-0.20526503026485443,0.10076356679201126
1772045249158620000,6.146619873046875,0.7896124720573425,-0.19764496386051178,0.0972740575671196
1772045249168605700,6.156605712890625,0.7594377994537354,-0.18541467189788818,0.11227990686893463
1772045249178590700,6.1665908203125,0.7441930770874023,-0.1788981705904007,0.1508694589138031
1772045249188576800,6.17657666015625,0.7319508194923401,-0.17851999402046204,0.20173770189285278
1772045249198562800,6.186562744140625,0.7247869968414307,-0.18583089113235474,0.26103389263153076
1772045249208548900,6.196548828125,0.7058795690536499,-0.20350629091262817,0.30548256635665894
1772045249218534700,6.20653466796875,0.6694447994232178,-0.20769014954566956,0.33771196007728577
1772045249228521000,6.21652099609375,0.6112315654754639,-0.21774224936962128,0.3346517086029053
1772045249238506800,6.2265068359375,0.5360535979270935,-0.23169367015361786,0.30262258648872375
1772045249248491800,6.23649169921875,0.44963061809539795,-0.24726730585098267,0.23843827843666077
1772045249258477600,6.2464775390625,0.3821578323841095,-0.23242728412151337,0.15576742589473724
1772045249268463900,6.2564638671875,0.3579643666744232,-0.20173940062522888,0.08937481790781021
1772045249278449700,6.26644970703125,0.3614775240421295,-0.1459892839193344,0.04919952154159546
1772045249288435700,6.276435791015625,0.3597871959209442,-0.07583734393119812,0.03216115012764931
1772045249298421800,6.286421875,0.34182119369506836,-0.026975736021995544,0.021772004663944244
1772045249308406800,6.29640673828125,0.3056541383266449,-0.011486525647342205,0.015413174405694008
1772045249318392800,6.306392822265625,0.24499157071113586,-0.019002322107553482,0.023068418726325035
1772045249328378600,6.316378662109375,0.15490056574344635,-0.045193180441856384,0.03537728264927864
1772045249338365000,6.326364990234375,0.04315786063671112,-0.07490337640047073,0.06087641790509224
1772045249348350700,6.336350830078125,-0.09327215701341629,-0.10995430499315262,0.08934054523706436
1772045249358336800,6.346336669921875,-0.24617455899715424,-0.15932440757751465,0.12083813548088074
1772045249368321800,6.35632177734375,-0.4068095088005066,-0.21484145522117615,0.1482660323381424
1772045249378307800,6.366307861328125,-0.5586475729942322,-0.27486512064933777,0.17366185784339905
1772045249388293600,6.376293701171875,-0.6828278303146362,-0.3161662220954895,0.1964699625968933
1772045249398280000,6.386280029296875,-0.7853456735610962,-0.3583265542984009,0.23056620359420776
1772045249408265700,6.396265625,-0.870542585849762,-0.39485475420951843,0.2678733468055725
1772045249418251800,6.406251708984375,-0.9448786377906799,-0.4389796853065491,0.2977648675441742
1772045249428236800,6.41623681640625,-1.0132710933685303,-0.49044978618621826,0.32427555322647095
1772045249438222800,6.426222900390625,-1.0737974643707275,-0.5449157357215881,0.3420698046684265
1772045249448209000,6.436208984375,-1.125831961631775,-0.610220193862915,0.366281121969223
1772045249458194700,6.446194580078125,-1.1608446836471558,-0.679003119468689,0.39641273021698
1772045249468181000,6.456180908203125,-1.1898425817489624,-0.7444047331809998,0.4325813949108124
1772045249478166800,6.466166748046875,-1.2111167907714844,-0.8060168623924255,0.47945690155029297
1772045249488151800,6.47615185546875,-1.2346735000610352,-0.8629727959632874,0.5178932547569275
1772045249498137600,6.4861376953125,-1.2611523866653442,-0.9055548310279846,0.536515474319458
1772045249508124000,6.4961240234375,-1.299723505973816,-0.9290487170219421,0.5247488617897034
1772045249518109700,6.506109619140625,-1.3467721939086914,-0.9345441460609436,0.48158979415893555
1772045249528095700,6.516095703125,-1.394932508468628,-0.9171331524848938,0.4196782112121582
1772045249538081800,6.526081787109375,-1.4380348920822144,-0.8821386694908142,0.34906861186027527
1772045249548066800,6.53606689453125,-1.4736453294754028,-0.8316147923469543,0.27217409014701843
1772045249558052900,6.546052978515625,-1.5038138628005981,-0.7751572728157043,0.20149700343608856
1772045249568038700,6.55603857421875,-1.5201619863510132,-0.7138718366622925,0.13607779145240784
1772045249578025000,6.56602490234375,-1.5218350887298584,-0.6602083444595337,0.08657275885343552
1772045249588010800,6.5760107421875,-1.5046055316925049,-0.6094726920127869,0.05199853703379631
1772045249597996800,6.585996826171875,-1.482879400253296,-0.5696876049041748,0.02655516378581524
1772045249607981600,6.595981689453125,-1.4533807039260864,-0.5330227613449097,0.007868560031056404
1772045249617967900,6.6059677734375,-1.4212114810943604,-0.5122554302215576,-0.010560200549662113
1772045249627953700,6.61595361328125,-1.3892122507095337,-0.4850110411643982,-0.033952608704566956
1772045249637939700,6.625939697265625,-1.3581196069717407,-0.4662000834941864,-0.061570119112730026
1772045249647925800,6.63592578125,-1.3178443908691406,-0.4397868514060974,-0.09011495113372803
1772045249657911800,6.645911865234375,-1.2688144445419312,-0.4064408540725708,-0.120493583381176
1772045249667896800,6.655896728515625,-1.2174577713012695,-0.3689461946487427,-0.14541012048721313
1772045249677883000,6.6658828125,-1.1563960313796997,-0.32425111532211304,-0.1607077270746231
1772045249687869000,6.675868896484375,-1.082256555557251,-0.2713759243488312,-0.1608283668756485
1772045249697854700,6.685854736328125,-0.9982717633247375,-0.23387674987316132,-0.1468534767627716
1772045249707840800,6.6958408203125,-0.9110396504402161,-0.18829169869422913,-0.12546482682228088
1772045249717826800,6.705826904296875,-0.8230199813842773,-0.14800088107585907,-0.10023902356624603
1772045249727811800,6.715811767578125,-0.7495827674865723,-0.11708292365074158,-0.09393159300088882
1772045249737797600,6.725797607421875,-0.689827561378479,-0.09072580188512802,-0.09888851642608643
1772045249747784000,6.735783935546875,-0.6486287117004395,-0.06776349246501923,-0.1086183711886406
1772045249757769700,6.745769775390625,-0.6026188731193542,-0.045322902500629425,-0.12283725291490555
1772045249767755800,6.755755859375,-0.5606799721717834,-0.01711150072515011,-0.13274714350700378
1772045249777741600,6.765741455078125,-0.49022868275642395,-0.004026397597044706,-0.14052028954029083
1772045249787726600,6.7757265625,-0.39751604199409485,0.001911385916173458,-0.12703323364257812
1772045249797712600,6.785712646484375,-0.28366711735725403,0.004756210837513208,-0.09544845670461655
1772045249807698700,6.79569873046875,-0.1621990203857422,0.006708307657390833,-0.05003703385591507
1772045249817684700,6.805684814453125,-0.029715072363615036,0.010415319353342056,-0.0029463733080774546
1772045249827670500,6.81567041015625,0.09597734361886978,0.025014767423272133,0.031688034534454346
1772045249837656800,6.82565673828125,0.19208338856697083,0.03619915992021561,0.05277926102280617
1772045249847641600,6.8356416015625,0.26483267545700073,0.05138690024614334,0.04849929362535477
1772045249857627600,6.845627685546875,0.31237247586250305,0.09478390216827393,0.029275406152009964
1772045249867613400,6.855613525390625,0.3764324188232422,0.1367768943309784,0.0006640020292252302
1772045249877599700,6.865599853515625,0.46115437150001526,0.18868274986743927,-0.015884006395936012
1772045249887585500,6.87558544921875,0.5706438422203064,0.23898613452911377,-0.017957277595996857
1772045249897571600,6.885571533203125,0.6820077300071716,0.2867741882801056,-0.005379120819270611
1772045249907556900,6.895556884765625,0.7880819439888,0.3214187026023865,0.004596548154950142
1772045249917542700,6.905542724609375,0.8828917741775513,0.3415672183036804,0.012708787806332111
1772045249927528700,6.91552880859375,0.9766529202461243,0.34612414240837097,0.011816096492111683
1772045249937514800,6.9255146484375,1.0760856866836548,0.35155269503593445,0.011022388935089111
1772045249947500800,6.935500732421875,1.1702625751495361,0.36771541833877563,0.018405470997095108
1772045249957486600,6.945486572265625,1.2517880201339722,0.3902335464954376,0.0331895612180233
1772045249967471600,6.9554716796875,1.3159419298171997,0.41277506947517395,0.06025074049830437
1772045249977457700,6.965457763671875,1.3542766571044922,0.4364550709724426,0.0894056111574173
1772045249987443700,6.975443603515625,1.3704427480697632,0.44802039861679077,0.12166953831911087
1772045249997429500,6.985429443359375,1.3591864109039307,0.4414016604423523,0.1448514610528946
1772045250007415800,6.995415771484375,1.3177000284194946,0.4143362045288086,0.16571466624736786
1772045250017401600,7.005401611328125,1.2501122951507568,0.3725508153438568,0.1982099562883377
1772045250027386600,7.01538671875,1.1677814722061157,0.31517913937568665,0.23917017877101898
1772045250037372700,7.02537255859375,1.0790880918502808,0.24487905204296112,0.29481610655784607
1772045250047358700,7.035358642578125,0.9732151627540588,0.16925673186779022,0.360912561416626
1772045250057344800,7.0453447265625,0.8626765608787537,0.09413076937198639,0.4133390486240387
1772045250067330600,7.05533056640625,0.7436692118644714,0.030583485960960388,0.45776402950286865
1772045250077316900,7.06531689453125,0.621726393699646,-0.020630117505788803,0.49130547046661377
1772045250087301600,7.075301513671875,0.5083457827568054,-0.043442487716674805,0.5049698948860168
1772045250097287700,7.08528759765625,0.4046892821788788,-0.042332351207733154,0.48370134830474854
1772045250107273500,7.0952734375,0.31719619035720825,-0.023457197472453117,0.4443371593952179
1772045250117259800,7.105259765625,0.2565203905105591,0.017800869420170784,0.39169296622276306
1772045250127245600,7.11524560546875,0.22152136266231537,0.07558374106884003,0.32722026109695435
1772045250137230600,7.125230712890625,0.21311406791210175,0.12993097305297852,0.2469100058078766
1772045250147216600,7.135216552734375,0.2142871916294098,0.19113200902938843,0.16491100192070007
1772045250157202700,7.14520263671875,0.2254565954208374,0.24844372272491455,0.08861809968948364
1772045250167188700,7.155188720703125,0.2440878003835678,0.2990427017211914,0.02252296730875969
1772045250177174500,7.165174560546875,0.2633726894855499,0.3357062339782715,-0.027972523123025894
1772045250187160800,7.175160888671875,0.27820008993148804,0.37496867775917053,-0.07465001940727234
1772045250197145600,7.1851455078125,0.2863508462905884,0.4025164544582367,-0.10992514342069626
1772045250207131600,7.195131591796875,0.30326831340789795,0.42246007919311523,-0.14119571447372437
1772045250217117400,7.205117431640625,0.3361153304576874,0.4485630691051483,-0.1705208122730255
1772045250227103700,7.215103759765625,0.3859183192253113,0.49392497539520264,-0.19711993634700775
1772045250237089500,7.225089599609375,0.43204233050346375,0.5226742625236511,-0.2134343832731247
1772045250247075600,7.23507568359375,0.4835534393787384,0.5395522713661194,-0.22345106303691864
1772045250257060900,7.245060791015625,0.5301324129104614,0.5324078798294067,-0.22972190380096436
1772045250267046700,7.255046630859375,0.582460880279541,0.4818217158317566,-0.22415748238563538
1772045250277032700,7.26503271484375,0.6392860412597656,0.4224914312362671,-0.19798041880130768
1772045250287018800,7.275018798828125,0.6909145712852478,0.3661130964756012,-0.16700732707977295
1772045250297004800,7.2850048828125,0.736339271068573,0.3018372356891632,-0.1255478709936142
1772045250306989600,7.294989501953125,0.7764294147491455,0.2620168626308441,-0.08651817589998245
1772045250316975600,7.3049755859375,0.8154279589653015,0.2393629550933838,-0.05664457380771637
1772045250326961700,7.314961669921875,0.8519106507301331,0.22399039566516876,-0.043668851256370544
1772045250336947700,7.32494775390625,0.8750959038734436,0.21677333116531372,-0.044866666197776794
1772045250346933500,7.33493359375,0.8990132212638855,0.23550067842006683,-0.060813941061496735
1772045250356919800,7.344919921875,0.9225150942802429,0.2603000998497009,-0.08466682583093643
1772045250366904800,7.35490478515625,0.9272565841674805,0.27510595321655273,-0.10747040808200836
1772045250376890600,7.364890625,0.9317059516906738,0.2704196274280548,-0.10628020018339157
1772045250386876700,7.374876708984375,0.9213955402374268,0.2674456834793091,-0.09773997217416763
1772045250396862700,7.38486279296875,0.9048625826835632,0.23846201598644257,-0.09114103019237518
1772045250406848800,7.394848876953125,0.8842625021934509,0.18488214910030365,-0.06886209547519684
1772045250416833500,7.40483349609375,0.8696575164794922,0.11763583868741989,-0.024695798754692078
1772045250426819600,7.414819580078125,0.8557986617088318,0.045704394578933716,0.03494489565491676
1772045250436805600,7.4248056640625,0.8395560383796692,-0.025474892929196358,0.10112230479717255
1772045250446791700,7.434791748046875,0.814457356929779,-0.09425076097249985,0.1668989211320877
1772045250456777500,7.444777587890625,0.7803403735160828,-0.14123594760894775,0.2216102033853531
1772045250466763800,7.454763671875,0.7345890998840332,-0.16423927247524261,0.24921280145645142
1772045250476748800,7.464748779296875,0.6722379922866821,-0.18359658122062683,0.23304668068885803
1772045250486734600,7.474734619140625,0.6037747859954834,-0.19222281873226166,0.17734213173389435
1772045250496720600,7.484720703125,0.5496517419815063,-0.16742300987243652,0.10066104680299759
1772045250506706700,7.494706787109375,0.5092681050300598,-0.1131131649017334,0.0348316989839077
1772045250516692700,7.504692626953125,0.4665032625198364,-0.0413009412586689,-0.011466036550700665
1772045250526677500,7.514677490234375,0.4022310674190521,0.022318249568343163,-0.033642180263996124
1772045250536663800,7.524663818359375,0.3233785331249237,0.05655865743756294,-0.047089479863643646
1772045250546649600,7.534649658203125,0.22025638818740845,0.03505682572722435,-0.04687429592013359
1772045250556635600,7.5446357421875,0.09664715826511383,-0.02578679658472538,-0.03595862165093422
1772045250566621700,7.55462158203125,-0.04573848843574524,-0.11150410026311874,-0.013787275180220604
1772045250576607700,7.564607666015625,-0.1793661117553711,-0.20338769257068634,0.02737543359398842
1772045250586592800,7.5745927734375,-0.30235326290130615,-0.2769532799720764,0.07420951128005981
1772045250596578600,7.58457861328125,-0.4224839210510254,-0.3406599462032318,0.11639747023582458
1772045250606564900,7.59456494140625,-0.5400923490524292,-0.3968137800693512,0.14550715684890747
1772045250616550700,7.604550537109375,-0.6570870876312256,-0.4465346336364746,0.15361371636390686
1772045250626536700,7.61453662109375,-0.7710762023925781,-0.5106126666069031,0.13955461978912354
1772045250636521500,7.624521484375,-0.8767225742340088,-0.5610008835792542,0.11993091553449631
1772045250646507800,7.6345078125,-0.9825493693351746,-0.6087902188301086,0.09673531353473663
1772045250656493600,7.64449365234375,-1.0873067378997803,-0.6532281041145325,0.0741618424654007
1772045250666479600,7.654479736328125,-1.1904016733169556,-0.6943994760513306,0.060348030179739
1772045250676465700,7.664465576171875,-1.280246615409851,-0.7321334481239319,0.058516547083854675
1772045250686451700,7.67445166015625,-1.363201379776001,-0.7540573477745056,0.07000675052404404
1772045250696436700,7.684436767578125,-1.4310176372528076,-0.7734966278076172,0.08702050149440765
1772045250706422500,7.694422607421875,-1.4945135116577148,-0.8059661388397217,0.10229772329330444
1772045250716408800,7.704408935546875,-1.564727783203125,-0.8288176655769348,0.10980224609375
1772045250726394600,7.71439453125,-1.6433565616607666,-0.8392303586006165,0.10547567158937454
1772045250736380700,7.724380615234375,-1.7379565238952637,-0.8295249938964844,0.09138701856136322
1772045250746365400,7.734365478515625,-1.848296046257019,-0.8182185888290405,0.05913826823234558
1772045250756351700,7.744351806640625,-1.9601536989212036,-0.798285961151123,0.00874573178589344
1772045250766337500,7.754337646484375,-2.0588738918304443,-0.7652235627174377,-0.0445031076669693
1772045250776323600,7.764323486328125,-2.13069748878479,-0.7095596790313721,-0.07731154561042786
1772045250786309400,7.774309326171875,-2.177736282348633,-0.6236988306045532,-0.08252787590026855
1772045250796294400,7.78429443359375,-2.2014575004577637,-0.5009146928787231,-0.05975779891014099
1772045250806280400,7.794280517578125,-2.2162020206451416,-0.36159300804138184,-0.02585495635867119
1772045250816266500,7.8042666015625,-2.2286019325256348,-0.21928580105304718,0.030732054263353348
1772045250826252500,7.81425244140625,-2.2463481426239014,-0.0735725462436676,0.09669402241706848
1772045250836238300,7.82423828125,-2.264563798904419,0.0884079709649086,0.16578571498394012
1772045250846224600,7.834224609375,-2.2614388465881348,0.25733229517936707,0.21470479667186737
1772045250856209400,7.84420947265625,-2.2479615211486816,0.44487670063972473,0.22867336869239807
1772045250866195500,7.854195556640625,-2.2401320934295654,0.6401441693305969,0.19879695773124695
1772045250876181200,7.86418115234375,-2.2404277324676514,0.8582791090011597,0.13370518386363983
1772045250886167600,7.87416748046875,-2.233792781829834,1.0928561687469482,0.03682605177164078
1772045250896153300,7.8841533203125,-2.2104873657226562,1.3351329565048218,-0.06490088254213333
1772045250906138400,7.894138427734375,-2.154562473297119,1.6069908142089844,-0.1335076242685318
1772045250916124400,7.90412451171875,-2.069598436355591,1.8872543573379517,-0.12216508388519287
1772045250926110500,7.9141103515625,-2.0288403034210205,2.1731367111206055,-0.11539612710475922
1772045250936096500,7.924096435546875,-1.9879316091537476,2.4727165699005127,-0.11382997035980225
1772045250946082300,7.934082275390625,-1.9102849960327148,2.867234468460083,-0.13078738749027252
1772045250956067600,7.944067626953125,-1.819824457168579,3.317944049835205,-0.20092570781707764
1772045250966053400,7.954053466796875,-1.748332142829895,3.7514591217041016,-0.32783225178718567
1772045250976039400,7.964039306640625,-1.7015955448150635,4.1091718673706055,-0.4507429301738739
1772045250986025500,7.974025390625,-1.6754560470581055,4.366701602935791,-0.5123051404953003
1772045250996011500,7.984011474609375,-1.663824200630188,4.576361179351807,-0.4916500449180603
1772045251005997300,7.993997314453125,-1.6399558782577515,4.688153266906738,-0.39749157428741455
1772045251015982300,8.003982421875,-1.6478675603866577,4.732011318206787,-0.28506678342819214
1772045251025968600,8.01396875,-1.664592981338501,4.815563678741455,-0.18296171724796295
1772045251035954400,8.023954345703125,-1.657827377319336,4.915057182312012,-0.1134384423494339
1772045251045940500,8.0339404296875,-1.631919026374817,4.999212741851807,-0.07831641286611557
1772045251055926500,8.043926513671876,-1.5714060068130493,5.0264692306518555,-0.08469802141189575
1772045251065911600,8.05391162109375,-1.484229564666748,5.004557132720947,-0.07286160439252853
1772045251075897300,8.0638974609375,-1.3772740364074707,4.984888076782227,-0.029631612822413445
1772045251085883400,8.07388330078125,-1.2559969425201416,4.974250316619873,0.023085659369826317
1772045251095869400,8.083869384765626,-1.1367772817611694,4.945267677307129,0.05789370462298393
1772045251105855500,8.09385546875,-1.01480233669281,4.893938064575195,0.06941454112529755
1772045251115840500,8.103840576171875,-0.8909750580787659,4.829081058502197,0.05551109462976456
1772045251125826300,8.113826416015625,-0.7871770262718201,4.7457427978515625,0.04474633187055588
1772045251135812600,8.1238125,-0.6946976184844971,4.651880741119385,0.0535157136619091
1772045251145798400,8.13379833984375,-0.5990920066833496,4.524886131286621,0.08907610177993774
1772045251155784400,8.143784423828125,-0.5002460479736328,4.355567455291748,0.15323461592197418
1772045251165770500,8.1537705078125,-0.40984851121902466,4.157301425933838,0.2418193370103836
1772045251175755500,8.163755615234376,-0.3224603831768036,3.942728042602539,0.3316037952899933
1772045251185741300,8.1737412109375,-0.2460220754146576,3.7144486904144287,0.4179812967777252
1772045251195727400,8.183727294921875,-0.19229929149150848,3.518531084060669,0.47037574648857117
1772045251205713400,8.19371337890625,-0.12740765511989594,3.44209623336792,0.5353145599365234
1772045251215699500,8.203699462890626,-0.06111990660429001,3.6651129722595215,0.7023744583129883
1772045251225684500,8.2136845703125,-0.002175099216401577,3.9941892623901367,0.8820222616195679
1772045251235670500,8.22367041015625,0.058210745453834534,4.048614025115967,0.885002076625824
1772045251245656600,8.233656494140625,0.10057204961776733,3.738335371017456,0.661752462387085
1772045251255642400,8.243642333984376,0.09883839637041092,3.3185741901397705,0.4139474034309387
1772045251265628700,8.253628662109374,0.0525212399661541,3.0555365085601807,0.3233378827571869
1772045251275613400,8.263613525390625,-0.023471174761652946,2.8786985874176025,0.35697275400161743
1772045251285599500,8.273599609375,-0.11632761359214783,2.7227702140808105,0.42158663272857666
1772045251295585300,8.283585205078126,-0.21022316813468933,2.526806592941284,0.4481309652328491
1772045251305571600,8.293571533203124,-0.31887319684028625,2.225590229034424,0.4482753276824951
1772045251315557400,8.303557373046875,-0.4365958273410797,1.7333287000656128,0.47668859362602234
1772045251325542400,8.31354248046875,-0.5128357410430908,1.2595566511154175,0.5899800658226013
1772045251335528400,8.323528564453126,-0.49453026056289673,1.1218053102493286,0.8676412105560303
1772045251345514500,8.333514404296874,-0.3777373135089874,1.277443289756775,1.237776279449463
1772045251355500500,8.34350048828125,-0.18383829295635223,1.4352269172668457,1.5546618700027466
1772045251365486300,8.353486328125,0.08725100755691528,1.4063109159469604,1.729017734527588
1772045251375471400,8.363471435546876,0.4357312321662903,1.2202547788619995,1.7602413892745972
1772045251385457400,8.37345751953125,0.8332924246788025,1.096120834350586,1.6772778034210205
1772045251395443500,8.383443359375,1.0160208940505981,1.2732704877853394,1.553564429283142
1772045251405429200,8.39342919921875,1.0738946199417114,1.4358162879943848,1.3614239692687988
1772045251415415600,8.40341552734375,1.1091232299804688,1.4744967222213745,1.1627931594848633
1772045251425400600,8.413400634765624,1.1543623208999634,1.4205470085144043,0.9946302175521851
1772045251435386400,8.423386474609375,1.193073034286499,1.3227144479751587,0.8605372309684753
1772045251445372400,8.433372314453125,1.199669361114502,1.2179324626922607,0.7388320565223694
1772045251455358500,8.4433583984375,1.185544490814209,1.1689298152923584,0.629831075668335
1772045251465344500,8.453344482421874,1.1375430822372437,1.1599611043930054,0.5428090691566467
1772045251475329300,8.463329345703125,1.046845555305481,1.120760440826416,0.469392865896225
1772045251485315600,8.473315673828125,0.9413646459579468,1.0041368007659912,0.4053760766983032
1772045251495301400,8.48330126953125,0.8627687692642212,0.8562047481536865,0.36772698163986206
1772045251505287400,8.493287353515624,0.8547881245613098,0.7746824622154236,0.3520289957523346
1772045251515273500,8.5032734375,0.890847384929657,0.7873268723487854,0.340348482131958
1772045251525259500,8.513259521484375,0.9348134994506836,0.8372150659561157,0.326829195022583
1772045251535244500,8.52324462890625,0.973642885684967,0.900804340839386,0.3288341462612152
1772045251545230300,8.533230224609374,1.0121731758117676,0.9582372903823853,0.35077857971191406
1772045251555216600,8.543216552734375,1.0626477003097534,1.0061753988265991,0.3917643129825592
1772045251565202400,8.553202392578125,1.1139953136444092,1.0349026918411255,0.4580748975276947
1772045251575188500,8.5631884765625,1.178503155708313,1.0419906377792358,0.5240603089332581
1772045251585173200,8.57317333984375,1.2608098983764648,1.0334501266479492,0.5877567529678345
1772045251595159600,8.58315966796875,1.3513063192367554,1.032382607460022,0.6450945138931274
1772045251605145300,8.593145263671875,1.4458410739898682,1.0359922647476196,0.6876236200332642
1772045251615131400,8.60313134765625,1.5510600805282593,1.046747088432312,0.7011377811431885
1772045251625117400,8.613117431640624,1.6672292947769165,1.0742155313491821,0.6883578300476074
1772045251635102500,8.6231025390625,1.7660987377166748,1.088820457458496,0.643816351890564
1772045251645088500,8.633088623046875,1.848962426185608,1.09671950340271,0.5947648882865906
1772045251655074300,8.64307421875,1.9097771644592285,1.0736478567123413,0.5586740970611572
1772045251665060600,8.653060546875,1.9299266338348389,1.0110734701156616,0.5298698544502258
1772045251675046400,8.66304638671875,1.9502311944961548,0.943705677986145,0.5026764869689941
1772045251685031400,8.673031494140625,1.960825800895691,0.916073203086853,0.47724488377571106
1772045251695017500,8.683017578125,1.9365843534469604,0.929680585861206,0.4722651243209839
1772045251705003500,8.69300341796875,1.8959518671035767,0.9385238885879517,0.4606497585773468
1772045251714989300,8.7029892578125,1.8552428483963013,0.9351660013198853,0.44631651043891907
1772045251724975400,8.712975341796875,1.8566447496414185,0.9830003976821899,0.4838217794895172
1772045251734960600,8.722960693359376,1.8823243379592896,0.960548460483551,0.5224764347076416
1772045251744946400,8.732946533203124,1.952012538909912,0.9069699048995972,0.5408967137336731
1772045251754932500,8.742932373046875,2.0172650814056396,0.8277331590652466,0.5049866437911987
1772045251764918500,8.75291845703125,2.0623419284820557,0.732887864112854,0.4288575351238251
1772045251774904600,8.762904541015626,2.0745017528533936,0.6503313779830933,0.3267134130001068
1772045251784889600,8.7728896484375,2.0386085510253906,0.5649789571762085,0.21824020147323608
1772045251794875600,8.782875732421875,2.0157158374786377,0.565044105052948,0.13711579144001007
1772045251804861700,8.79286181640625,1.957858681678772,0.582688570022583,0.07331124693155289
1772045251814847700,8.80284765625,1.934627652168274,0.6297273635864258,0.037463922053575516
