time,seconds_elapsed,z,y,x
1772094068401385700,0.0793857421875,0.1410159058868885,0.06733796287151053,-0.0061126376613974565
1772094068411334700,0.089334716796875,0.1518260537147522,0.10379282129928469,-0.07455766672566533
1772094068421283800,0.099283935546875,0.09982289475500583,0.08636520069357939,-0.08884382010102272
1772094068431232800,0.109232666015625,0.09475099831819533,0.03473528635986149,-0.06724924340844154
1772094068441181700,0.119181640625,0.16915245156884193,-0.045254862876469265,-0.0038028994143009184
1772094068451132000,0.1291318359375,0.23396599226295947,-0.04585703915385529,0.026512451611459254
1772094068461080800,0.139080810546875,0.21937164972126483,-0.043621242925804105,0.012130144385248422
1772094068471029800,0.14902978515625,0.1581470734298229,-0.038056411872897294,-0.01571560165658593
1772094068480978700,0.158978759765625,0.10182897388041019,-0.007962731640646233,-0.03697320147976279
1772094068490928600,0.1689287109375,0.03380699253380298,-0.021599609060725194,-0.054633799724280833
1772094068500877800,0.1788779296875,0.009977788656949996,0.003047231341945007,-0.05034443196728825
1772094068510826800,0.18882666015625,-0.006750058782100677,0.010430774855148046,-0.08053776404857635
1772094068520775700,0.198775634765625,-0.013936755415797232,0.021109195195278152,-0.09202215787619351
1772094068530724900,0.208724853515625,-0.009814122527837752,0.0338896201828029,-0.05416793577820062
1772094068540674600,0.218674560546875,0.05524900901317596,-0.03863052196642384,-0.009798194306343794
1772094068550623700,0.228623779296875,0.1364192257463932,-0.04858841861281544,0.011713818669319151
1772094068560573000,0.238572998046875,0.17467092272937296,-0.01704048445164226,-0.016807196285575626
1772094068570521900,0.24852197265625,0.19971125596165656,-0.0528764985950198,-0.06628522068187594
1772094068580471800,0.258471923828125,0.16179799715280532,-0.012561028349492699,-0.09804624047130346
1772094068590420700,0.268420654296875,0.08349193767905234,0.0216602258073166,-0.08630114988088607
1772094068600369700,0.27836962890625,-0.008402502164244652,0.03245794341186992,-0.07505918650701641
1772094068610318600,0.288318603515625,-0.05124854120016098,-0.011058734027761965,-0.019794103141874075
1772094068620267500,0.298267578125,-0.018742109870910642,-0.08570581433624029,0.06029051031172275
1772094068630217700,0.3082177734375,0.04333820646703243,-0.09526813579378648,0.06448021708652377
1772094068640166700,0.318166748046875,0.09444880050122738,-0.07433083569984883,0.015546528699994086
1772094068650115800,0.32811572265625,0.109492640376091,-0.008451154478406534,-0.0440488389544189
1772094068660064800,0.338064697265625,0.07678630256056786,0.01904911172715947,-0.05319324552714824
1772094068670013700,0.348013671875,0.01647884111404419,0.044933056176733224,-0.03957110901847481
1772094068679964000,0.3579638671875,0.022457915523648262,0.03644066550564021,-0.019725714080780745
1772094068689912800,0.367912841796875,0.054260582497715946,-0.027587323434511198,0.007014554937183857
1772094068699861800,0.37786181640625,0.0934632965952158,-0.05208342112172395,0.023043168065696954
1772094068709810700,0.387810791015625,0.13180851708054542,-0.032155809526983645,0.015019728346914053
1772094068719760600,0.3977607421875,0.13858195673823356,-0.005355809678416699,0.005943126313388347
1772094068729709300,0.407709228515625,0.14736089099943636,0.012188066851254552,-0.0025987843215465544
1772094068739658500,0.417658447265625,0.11987374913692474,0.027741299286670983,-0.028813422030210492
1772094068749607700,0.427607666015625,0.05539806209504604,0.03235627313568257,-0.051744800284504885
1772094068759556600,0.437556640625,0.008383212941884995,0.0015693590754177421,-0.030022797819972035
1772094068769506600,0.447506591796875,-0.005279986229538917,-0.012626202540192753,-0.00014276947155594826
1772094068779455500,0.45745556640625,0.026615619724988937,-0.061415020829625425,-0.005464695146679878
1772094068789404400,0.467404296875,0.03539923016130924,-0.10928410305879079,-0.01719604947268963
1772094068799353600,0.477353515625,0.08804594772160053,-0.06999197537847794,-0.0075793492130935185
1772094068809302500,0.487302490234375,0.12691373077630996,-0.0362281461329665,-0.052068040889501566
1772094068819252500,0.49725244140625,0.12751052762567996,-0.002950301172956824,-0.08108473040685057
1772094068829201400,0.507201416015625,0.12517536267638205,0.004536319122230634,-0.10957724991962313
1772094068839150300,0.517150390625,0.10179624065458774,0.07720066464827395,-0.15971563792079685
1772094068849099500,0.527099609375,0.0895288797557354,0.10838449647109955,-0.1612631596237421
1772094068859049500,0.537049560546875,0.16388649386465548,0.02375956814016681,-0.14119798445552587
1772094068868998400,0.546998291015625,0.29576281548440453,-0.09356715882848948,-0.17961232465431093
1772094068878947600,0.556947509765625,0.40369887406826016,-0.0833731153386645,-0.1887880031481385
1772094068888896500,0.566896484375,0.30622867991924285,-0.029374864438408983,-0.12348200276196002
1772094068898845400,0.576845458984375,0.15898177068829536,-0.0761001971596619,-0.09201821235343813
1772094068908795600,0.586795654296875,-0.06316694253087043,-0.11164472210975364,-0.09017579935714602
1772094068918744600,0.59674462890625,-0.33130233089923855,-0.05397629479677416,-0.009977642526477575
1772094068928693500,0.606693603515625,-0.47221945258677,0.06488097990714013,0.04225874066725373
1772094068938642400,0.616642333984375,-0.5172486808806658,0.09480097493976354,0.04496858414784074
1772094068948591400,0.62659130859375,-0.5349029955148696,-0.008455679956474341,0.006212737035006285
1772094068958541300,0.636541259765625,-0.4021691802829504,-0.04291613599690609,0.1201752163015306
1772094068968490500,0.646490478515625,-0.176921916526556,-0.21638426794093102,0.030554566609114407
1772094068978439700,0.656439697265625,0.06941957318484783,-0.2595080096733756,-0.12538535216525196
1772094068988388600,0.666388671875,0.2697457461744547,0.01815908581856638,-0.13491685835942624
1772094068998338600,0.676338623046875,0.2685194192498922,0.17697708077989519,0.003688333123922348
1772094069008287500,0.68628759765625,0.12108020231723784,0.08803825760548933,0.07712269490808248
1772094069018236400,0.696236328125,0.013716975185275078,-0.0018764613963663578,-0.10436302240267395
1772094069028185600,0.706185546875,0.021646014618873596,0.10746693410160951,0.019510171633958816
1772094069038134500,0.716134521484375,0.035408582511544225,-0.029361365636019033,0.06738689831346273
1772094069048084500,0.72608447265625,0.014367548048496246,-0.0847053685894236,0.12747355661615728
1772094069058033400,0.736033447265625,-0.08410217853188515,-0.05031854860736057,0.18544030015543103
1772094069067982300,0.745982421875,-0.0709673871487379,0.056599528572987765,0.15943097576051948
1772094069077931500,0.755931640625,0.16856383802592753,0.1701267582274042,0.11379910539835691
1772094069087881500,0.765881591796875,0.47020168302357196,0.02193613840555772,-0.2819591849289834
1772094069097830700,0.77583056640625,0.6375070454210042,0.12415971936043352,-0.1856143415480852
1772094069107779600,0.785779541015625,0.5028033914208412,0.04644437405513599,0.09932298240885137
1772094069117728500,0.795728515625,0.2133949133992195,-0.1548018546551466,-0.0023049159415066242
1772094069127677400,0.805677490234375,-0.07201134324371815,-0.06993789797052741,0.042215632177889345
1772094069137627600,0.815627685546875,-0.20911913577616215,-0.039357575865648683,0.08263108306601644
1772094069147576600,0.82557666015625,-0.28181729224026203,-0.08242352299625054,0.018789894535392523
1772094069157525500,0.835525390625,-0.13221709788143635,0.02450830871481448,-0.007303893272578716
1772094069167474400,0.845474365234375,0.040292847421765324,0.004547324573434889,-0.0796840698286891
1772094069177424400,0.85542431640625,0.20191081183254717,-0.06254117531534284,-0.13741481265500188
1772094069187373300,0.865373291015625,0.31920214326083657,0.045671800513751803,0.02939969748556614
1772094069197322500,0.875322509765625,0.36099195124208927,-0.05948931346405297,0.04417231920361519
1772094069207271700,0.885271728515625,0.2816577177643776,-0.1325804330348037,-0.015190700999647378
1772094069217220600,0.895220703125,0.14287819262742996,-0.06544473300343379,-0.08041442992985248
1772094069227170600,0.905170654296875,0.039057752668857575,-0.054857160151377315,-0.14805720270052553
1772094069237119500,0.915119384765625,0.0005225625693798065,-0.05125634091412648,-0.15831658477783203
1772094069247068400,0.925068359375,-0.04722644607722759,-0.05055619328813627,-0.10697510459721088
1772094069257017600,0.935017578125,-0.10061959809064865,-0.08364774929527193,-0.007075637474656104
1772094069266967600,0.944967529296875,-0.11862228777110576,-0.055122112964186815,0.056197395779192444
1772094069276916500,0.95491650390625,-0.04763210426867008,-0.0031589024223387238,0.005817015715688467
1772094069286865400,0.964865478515625,0.03968085300326347,0.033278420348744835,-0.09227028741836547
1772094069296814300,0.974814453125,0.22572248005270956,0.04237140726149082,-0.1249319093093276
1772094069306763500,0.984763427734375,0.3207645702719688,0.010455562236532568,-0.1036463985659182
1772094069316713500,0.99471337890625,0.28377193343937396,-0.04931753660496324,-0.007703560114651918
1772094069326662700,1.00466259765625,0.19491057768166065,-0.07231626274073497,0.012620265989750624
1772094069336611600,1.014611572265625,0.1351379537642002,-0.047780865089595316,-0.03840133458673954
1772094069346560500,1.024560546875,0.02413549334704876,-0.0336153789518401,-0.060999973755329846
1772094069356509400,1.034509521484375,-0.11701485257446766,-0.0683699728003703,-0.056553077349066734
1772094069366459600,1.044459716796875,-0.18863164354264736,-0.06622307869847864,-0.06828574684932827
1772094069376408600,1.05440869140625,-0.18145429925918577,-0.007192121727485209,-0.0904253902040422
1772094069386357500,1.064357421875,-0.10574819315075874,0.007259323478490114,-0.09612126375809311
1772094069396306400,1.074306396484375,0.059543491336703294,-0.019948215991351752,-0.10041764577776192
1772094069406256400,1.08425634765625,0.23189386216402053,-0.045631304106581956,-0.08853373123854398
1772094069416205300,1.094205322265625,0.3094493955314159,-0.032756752828508616,-0.10367051009386777
1772094069426154500,1.104154541015625,0.26175767002999784,-0.016063099920004605,-0.08207330305278301
1772094069436103700,1.114103759765625,0.25108488484621044,-0.022642861902806906,-0.07098711476251482
1772094069446052600,1.124052490234375,0.13056933067440987,0.0031406909122131763,-0.1033729884520173
1772094069456002600,1.13400244140625,-0.013164017477631568,0.02032015457628295,-0.09734349902942777
1772094069465951500,1.143951416015625,-0.14957096826434135,-0.03864000218082219,-0.03090279552489519
1772094069475900400,1.153900390625,-0.23270225593745708,-0.10753007159885018,0.0029959669455885884
1772094069485849300,1.163849365234375,-0.19749884060919284,-0.10437759891729802,-0.010450228474289178
1772094069495799600,1.173799560546875,-0.10693711067438125,-0.040698797874152655,-0.02894625462964177
1772094069505748500,1.18374853515625,0.02073474499285221,0.046419257880188525,-0.07801701339930295
1772094069515697400,1.193697509765625,0.1189256546318531,0.07528530514677986,-0.11770809553563594
1772094069525646300,1.203646240234375,0.06644727937579155,0.003976849475409835,-0.06222659294083714
1772094069535595500,1.213595458984375,0.09078501729667186,-0.06776804311815648,-0.02841463197097182
1772094069545545500,1.22354541015625,0.12815467074811457,-0.07038836341807618,-0.048628275699168444
1772094069555494700,1.23349462890625,0.1258271045833826,-0.026951591947395354,-0.06625307197794318
1772094069565443600,1.243443603515625,0.1893482673794031,-0.026755630983877926,-0.11297960570901631
1772094069575392500,1.253392578125,0.24796996769607066,0.048763747780257834,-0.10678089719936251
1772094069585342500,1.263342529296875,0.299415492773056,0.06620515031614341,0.012491378913074731
1772094069595291600,1.273291748046875,0.34492695162594317,-0.14175721664032898,-0.07215849662944675
1772094069605240600,1.283240478515625,0.25592589513659475,-0.14752313235644252,-0.028860329911857843
1772094069615189500,1.293189453125,-0.029791911673545834,-0.10822636503363027,0.061413376861810684
1772094069625138400,1.303138427734375,-0.37372342252135277,-0.019116094282455743,-0.01189823532551527
1772094069635088400,1.31308837890625,-0.49669338410794733,0.1326490504247602,-0.14750073786154388
1772094069645037300,1.323037353515625,-0.3392962522625923,0.11297009809515439,-0.2130593978345394
1772094069654986500,1.332986572265625,-0.04449263719916344,0.037913213143078606,-0.12931202408969403
1772094069664935700,1.342935791015625,0.06081248835921287,-0.016334482473600656,0.11092150413542985
1772094069674885600,1.3528857421875,0.12343699457645416,-0.15589070933777838,0.040283056680113075
1772094069684834600,1.36283447265625,0.1427320621550083,-0.09880184461157768,-0.002429272973537445
1772094069694783500,1.372783447265625,0.1544400356054306,0.008685301160998643,-0.0472413513854146
1772094069704732400,1.382732421875,0.15528174712657927,0.02641408753721043,-0.11565920018181204
1772094069714681300,1.392681396484375,0.22835458212196827,-0.05434876310466789,-0.13827932052984832
1772094069724631600,1.402631591796875,0.22692484157979487,-0.00813475460615009,0.04189297609478235
1772094069734580500,1.41258056640625,0.22525193993151185,-0.09664231022382154,0.0506005986854434
1772094069744529400,1.422529296875,0.23289047198593615,-0.07956175862327218,-0.10233721566349267
1772094069754478300,1.432478271484375,0.2311497657984495,-0.013512191594485193,-0.15413462291806934
1772094069764428300,1.44242822265625,0.25613983014822006,-0.004611480417405255,-0.11917042317315936
1772094069774377500,1.45237744140625,0.10165946253240107,-0.018794721407559698,-0.033238106604665515
1772094069784326400,1.462326416015625,-0.18765023128986358,-0.029232994582573883,0.060926470127701755
1772094069794275600,1.472275634765625,-0.396211148661375,-0.006934831631323322,0.044102176576852795
1772094069804225500,1.4822255859375,-0.5293979683578014,-0.04189606766758952,-0.015994564728438854
1772094069814174500,1.492174560546875,-0.4214069647163152,-0.037142831558780745,-0.005882336036860942
1772094069824123400,1.502123291015625,-0.13795476475059984,-0.017792079137079416,0.026195640747249126
1772094069834072300,1.512072265625,0.10083704023361205,-0.09631124250539579,0.1029199839875102
1772094069844021200,1.522021240234375,0.31054654311835767,-0.0387843516881112,0.0525374119669199
1772094069853971500,1.531971435546875,0.34609541088342666,0.02150519050923176,-0.06455591267123818
1772094069863920400,1.54192041015625,0.3348299205034971,0.12187268613548949,-0.12123568513989448
1772094069873869300,1.551869384765625,0.20409809274375437,0.11443658131798728,-0.21712240948975084
1772094069883818500,1.561818603515625,0.0182516960054636,0.01949975527122151,-0.1039035881973803
1772094069893768200,1.571768310546875,-0.05007423672378063,0.003957569386204705,-0.0441771415092051
1772094069903717600,1.581717529296875,-0.028517653954029082,-0.024586374353128482,-0.06006123160049319
1772094069913666600,1.59166650390625,0.022701661151647567,-0.026539385284157467,-0.047371115244925016
1772094069923615500,1.601615478515625,0.11455167733132839,-0.024644333351752718,0.005221826301515102
1772094069933564400,1.611564453125,0.21337913130819797,0.012043082589725963,0.017100480143725873
1772094069943514400,1.621514404296875,0.2831739675462246,0.002424820560705848,0.00729001087769866
1772094069953463300,1.63146337890625,0.30607495066225526,0.01089449250991456,0.04638268872946501
1772094069963412500,1.64141259765625,0.2731950098454952,0.0013641781924059614,0.04358209822550416
1772094069973361400,1.651361328125,0.17529051593244074,-0.03244498346559703,-0.011065437763184308
1772094069983311400,1.661311279296875,0.0024117373168468475,-0.03134777194657363,-0.08081117416247725
1772094069993260300,1.67126025390625,-0.09165829299986362,0.05160241897201631,-0.059949149528145784
1772094070003209500,1.68120947265625,-0.10240472794175147,0.08525989719964563,-0.02178396178483963
1772094070013158400,1.691158447265625,-0.011232172632217407,0.060974327857419845,0.0018733926564455032
1772094070023107600,1.701107666015625,0.08214403020143508,0.022612740759178993,-0.000580137975513935
1772094070033057500,1.7110576171875,0.10601239704489707,0.025401289198896847,-0.026073767933249472
1772094070043006500,1.72100634765625,0.08960311403572559,0.015208195557142607,-0.02132511210143566
1772094070052955400,1.730955322265625,-0.004219663521647453,0.007313081226032227,-0.030597967359423637
1772094070062904300,1.740904296875,-0.11903379118144511,0.005495647407369688,-0.01161591125279665
1772094070072854500,1.7508544921875,-0.15287000980973242,0.022084456268488428,-0.015316519336402415
1772094070082803500,1.760803466796875,-0.0767886406481266,0.05303794536758214,-0.05844678214117884
1772094070092752400,1.77075244140625,0.0318587810754776,0.041566758081410075,-0.052257425981760024
1772094070102701300,1.780701416015625,0.1253437049806118,0.03742614657876547,0.0022075930468738077
1772094070112651300,1.7906513671875,0.20076164179742334,0.017335581240965982,0.031984745542705056
1772094070122600200,1.80060009765625,0.2385001285612583,0.00140535045301076,0.004131839107722044
1772094070132549600,1.810549560546875,0.16592238360643385,-0.0036996171363396567,-0.013011018873006104
1772094070142498600,1.82049853515625,0.11246551870703697,0.018219460536562836,-0.01059869703426957
1772094070152447500,1.830447509765625,0.14585399356782436,0.04850260349288583,0.015157090990990399
1772094070162397400,1.8403974609375,0.09728080905675887,0.0432892253593076,-0.05836261098906397
1772094070172346400,1.850346435546875,0.017059271350502968,0.07662934016687795,-0.07663301169499755
1772094070182295300,1.86029541015625,-0.0420627797037363,0.06410336029788014,-0.032326398587226864
1772094070192244500,1.870244384765625,-0.006912555867433548,-0.005880609870655462,-0.0023759353511035443
1772094070202194400,1.8801943359375,0.03993453550338745,-0.03732933970736339,0.02053396172374487
1772094070212143400,1.890143310546875,0.033630466923117636,-0.02217763271096628,0.000666062693297863
1772094070222092300,1.90009228515625,-0.08985153583884238,0.04977515787908342,0.01749824728965759
1772094070232041500,1.91004150390625,-0.21476561723053453,0.13533856350337153,0.026915479454398154
1772094070241990400,1.919990478515625,-0.1766390079319477,0.1590521325107664,0.02018281019851565
1772094070251940600,1.929940673828125,-0.012526304095983504,0.07607381604281253,-0.02671995688229799
1772094070261889500,1.9398896484375,0.15618600248992442,-0.0368240753326565,-0.006164221718162298
1772094070271838500,1.94983837890625,0.3019657617777586,-0.07753333980189636,0.02526040572375059
1772094070281787400,1.959787353515625,0.3608680326014757,-0.061453982866834844,0.013542933792620896
1772094070291737300,1.9697373046875,0.37354514334499833,-0.039127182909566904,0.021566665772348642
1772094070301686500,1.9796865234375,0.3113771487236023,-0.0017832803873112425,0.03863178234174847
1772094070311635500,1.989635498046875,0.20849954257309436,0.02786798070652876,-0.04639584047198295
1772094070321584400,1.99958447265625,0.04206687135696411,0.04761046782559715,-0.13189692601636052
1772094070331534300,2.009534423828125,-0.09781973823904991,0.1027496141229756,-0.13000950483456253
1772094070341483300,2.019483154296875,-0.22200199822485445,0.07801740612494759,-0.04274710870608687
1772094070351432400,2.029432373046875,-0.22493863619863985,-0.030693340325565074,0.036908027289062735
1772094070361381600,2.039381591796875,-0.09227963976860046,-0.10927567315716295,0.0722540659584105
1772094070371330600,2.04933056640625,0.10089549242258071,-0.14110290831690653,0.03262874253466725
1772094070381280500,2.059280517578125,0.2084329070776701,-0.136031340673659,-0.03474573468863964
1772094070391229400,2.0692294921875,0.15289046807587145,-0.0503255765697686,-0.1361025610126555
1772094070401178400,2.079178466796875,0.01916530371904373,0.010793269758298992,-0.11633476135581731
1772094070411127300,2.089127197265625,-0.038036008405685426,-0.00967285546020139,-0.06863017637282609
1772094070421077500,2.099077392578125,-0.048614101043343544,-0.07089449544246308,-0.0033111703746020794
1772094070431026400,2.1090263671875,-0.00879646991789341,-0.10886101880851201,0.04703720711544156
1772094070440975400,2.118975341796875,0.07971475722789764,-0.08126805108450352,0.02860635515078902
1772094070450924300,2.12892431640625,0.17451310181915758,-0.010720725111896172,-0.07368819041475654
1772094070460874200,2.138874267578125,0.22440730580091475,0.02837381590339355,-0.1369423728376627
1772094070470823400,2.148823486328125,0.20906243715286255,0.03515524707129225,-0.1463578514367342
1772094070480772600,2.158772705078125,0.0755471161544323,0.028818682727217673,-0.13215148529931903
1772094070490721500,2.168721435546875,-0.015281155762076377,-0.008479412458511068,-0.05648585733175277
1772094070500670500,2.17867041015625,0.012683540484309195,-0.07628825794451403,0.028231238228082656
1772094070510620400,2.188620361328125,0.044341830551624294,-0.12738107429342344,0.09194792359620332
1772094070520569300,2.1985693359375,-0.040109307548403736,-0.09655707049262709,0.08600260532572865
1772094070530518300,2.208518310546875,-0.21363222928643225,-0.031167748337704686,0.058940703137964005
1772094070540467500,2.218467529296875,-0.250063725104928,0.027900965094100682,0.018576397915184496
1772094070550417400,2.22841748046875,-0.14638064779043197,0.0548921583995223,-0.09757979200333357
1772094070560366300,2.238366455078125,-0.019917583391070366,0.05301149575207382,-0.13486542043313382
1772094070570315300,2.248315185546875,0.160722476875782,0.04669911600118503,-0.12260478153601288
1772094070580264400,2.258264404296875,0.3024175971984863,-0.035938698199717324,-0.08557078977972268
1772094070590213400,2.26821337890625,0.4313204559653997,-0.07839799380721524,-0.004942132577300072
1772094070600163600,2.27816357421875,0.42495676615238187,-0.05227575622289441,0.019129355622828005
1772094070610112500,2.288112548828125,0.32178105383813377,-0.0032852961478289215,-0.025854718355089425
1772094070620061400,2.2980615234375,0.20658406434059143,0.01211557700377889,-0.07101224920377135
1772094070630010400,2.30801025390625,0.09485036703944205,-0.0261573362971656,-0.027203064224123955
1772094070639960600,2.317960693359375,-0.08123626770675182,-0.06782596558416262,0.014448065938800573
1772094070649909500,2.327909423828125,-0.16924246793985365,-0.04312702053491957,0.018665245242416858
1772094070659858400,2.3378583984375,-0.1369283443123102,-0.012421729476656764,0.0055760465666651726
1772094070669807400,2.347807373046875,-0.11149462784826755,-0.012229220845550297,-0.023278438126295802
1772094070679757300,2.35775732421875,-0.058683659636974334,-0.03304494038643315,-0.009632190089672803
1772094070689706200,2.367706298828125,0.03411971174478531,-0.02888029498765245,0.021298077964037654
1772094070699655200,2.3776552734375,0.12424246574044227,-0.004412026022281497,-0.01886252138018608
1772094070709604600,2.3876044921875,0.20142507414221764,0.03290660049482248,-0.03846986977830529
1772094070719553500,2.397553466796875,0.2554915953725576,0.06930840442795307,-0.07718436196744441
1772094070729503500,2.40750341796875,0.23782617482244967,0.04722334080468863,-0.11889701305925846
1772094070739453000,2.417452880859375,0.1681248620867729,0.033988879306195305,-0.07719897501468657
1772094070749401900,2.42740185546875,0.10179974778592586,-0.025939282232848925,0.014557225401699542
1772094070759350800,2.437350830078125,0.06481412521600723,-0.06502283606324344,0.050601913859695195
1772094070769300700,2.44730078125,0.05529051006734371,-0.017446571901347487,0.03224325034841895
1772094070779249700,2.457249755859375,0.010890227326750756,0.04047688048547134,0.01058627594411373
1772094070789198600,2.467198486328125,-0.0195499191224575,0.05890858183349482,-0.02659662276357412
1772094070799147800,2.477147705078125,-0.03599076631367206,0.03249258546698838,-0.025354806008934975
1772094070809097700,2.48709765625,-0.06105331137776374,-0.0161278722519055,0.008658376621454954
1772094070819046700,2.497046630859375,-0.006434416961669922,-0.03250412977430969,0.06080605861842632
1772094070828995600,2.50699560546875,0.1000111108034849,0.003490983920916915,0.03838628314808011
1772094070838944800,2.51694482421875,0.17489011843800545,0.06676343265287578,-0.0483086883559823
1772094070848893700,2.526893798828125,0.17859832530617714,0.10732998244948684,-0.09555515430793166
1772094070858844000,2.536843994140625,0.14202420614659786,0.08492439076812006,-0.10173735007420182
1772094070868792800,2.546792724609375,0.09418284304141998,0.0070195964384824035,-0.07333528532385826
1772094070878741800,2.55674169921875,0.06329670639038086,-0.053233714534854516,-0.019002952764183283
1772094070888690700,2.566690673828125,-0.0008843816190958022,-0.08024252569535746,-0.004835603462904691
1772094070898640600,2.576640625,-0.012958850294351577,-0.020660939971124753,-0.019733605126291513
1772094070908589800,2.58658984375,-0.025465280646085737,0.0312407405086793,-0.04061360380873084
1772094070918538800,2.596538818359375,-0.007799275574088096,0.06553340680073015,-0.05476370971426368
1772094070928487700,2.60648779296875,0.026292963641881942,0.0768863745347131,-0.02886573673933744
1772094070938437600,2.616437744140625,0.07295183896422386,0.026426645624684168,-0.02146729705110192
1772094070948386600,2.626386474609375,0.09674714057147503,-0.025033227638062087,-0.0243254629611969
1772094070958335700,2.636335693359375,0.054748658275604246,-0.020929710442526266,-0.027197219005227088
1772094070968285000,2.646284912109375,-0.03922551045119762,-0.0049048419073689726,-0.00344882527962327
1772094070978233900,2.65623388671875,-0.04487608355879783,0.0221165912726894,0.03433671549633145
1772094070988183800,2.666183837890625,0.019159458500146866,0.013104542375355958,0.036518881841003895
1772094070998132700,2.6761328125,0.07887421475052833,0.0019983524766750633,0.0549684385061264
1772094071008081700,2.68608154296875,0.08614917418956757,0.017520586985629052,0.0016230711571872233
1772094071018030600,2.696030517578125,0.0676607468187809,0.035347134647890924,-0.030312866807729003
1772094071027980800,2.705980712890625,0.08504325877428054,0.029261987781617788,-0.05125687063708901
1772094071037929700,2.7159296875,0.10781856968402861,0.00404162180731073,-0.06637552931383252
1772094071047878700,2.725878662109375,0.14894669888615608,-0.025523970297072082,-0.04536094446629286
1772094071057827600,2.73582763671875,0.12000935821533203,-0.024876027782354503,-0.030923399921506643
1772094071067777500,2.745777587890625,0.12062719785273074,-0.04606940326290205,-0.01418064717426896
1772094071077726700,2.755726806640625,0.05462941581010818,-0.05354829234278295,-0.01962766053378582
1772094071087676000,2.765676025390625,-0.02070727246403694,-0.04582457535609137,-0.014414748191088437
1772094071097624800,2.775624755859375,-0.08408405835330486,-0.05265091881137341,-0.008365677285194396
1772094071107573800,2.78557373046875,-0.07905307844877242,-0.012617265748488716,-0.04022679644823074
1772094071117523700,2.795523681640625,-0.056518006035685533,0.008323756105918437,-0.07804872371181845
1772094071127472600,2.80547265625,0.02412614099681377,-0.006626496334513649,-0.0698554803840816
1772094071137421800,2.815421875,0.13408113818764686,-0.028114096388127653,-0.06758709706068039
1772094071147370800,2.825370849609375,0.1917974140971899,-0.022315995435463264,-0.06788973326906561
1772094071157320700,2.83532080078125,0.187623343282938,-0.015829848286556078,-0.05036021405830979
1772094071167269600,2.84526953125,0.16773440146446228,-0.010576348205143585,-0.041822979598492384
1772094071177218600,2.855218505859375,0.1629454136222601,-0.05418191863778047,-0.03996493064165115
1772094071187167700,2.865167724609375,0.1746311752408743,-0.10287381589137948,-0.024852555575221775
1772094071197117000,2.875116943359375,0.1569540642529726,-0.14462521895784883,0.001530716698616743
1772094071207067000,2.88506689453125,0.0961602805942297,-0.1429814246730413,0.0036541385933756827
1772094071217015800,2.895015869140625,0.014330138647556305,-0.06834745957446284,-0.010735913547873496
1772094071226964700,2.90496484375,-0.1381277832299471,0.07890993451788089,-0.0632753713414073
1772094071236913700,2.91491357421875,-0.15225567730367182,0.15177368420669807,-0.10025193382203579
1772094071246864000,2.92486376953125,-0.11529460465312004,0.08669126344332471,-0.059263359221071
1772094071256812800,2.934812744140625,-0.01736848343014717,-0.06337548898132518,0.03151815094426274
1772094071266761700,2.94476171875,0.009397358420491218,-0.12888099399497732,0.0821387695044279
1772094071276710700,2.954710693359375,0.042051673787832256,-0.09522218689336441,0.05673574043959379
1772094071286660600,2.96466064453125,0.07879062812030314,-0.019818543463386594,-0.02666106630191207
1772094071296609500,2.974609619140625,0.11917524547874926,0.040055211874144146,-0.09469108482450246
1772094071306558700,2.984558837890625,0.10778583645820618,0.0363800122264307,-0.09927768196240067
1772094071316508000,2.9945078125,0.06020692368149757,-0.006507884056679904,-0.0701329821512103
1772094071326456800,3.004456787109375,0.046126375880837435,-0.08006475797565653,-0.029710955391824244
1772094071336406800,3.01440673828125,0.05329670590162277,-0.14318742297338322,0.016474749460816382
1772094071346355700,3.024355712890625,0.07385141815245151,-0.15016744545330293,0.021086627170443534
1772094071356304600,3.0343046875,0.11633096196353435,-0.08984830270214006,-0.022644816397875547
1772094071366253800,3.04425390625,0.17321312513649462,-0.01897192743825726,-0.10729703002795576
1772094071376203800,3.054203857421875,0.17825404191315172,0.018396474771015345,-0.16251418259814382
1772094071386152700,3.064152587890625,0.10929098032414912,0.0012872815978713333,-0.14864844659194348
1772094071396101600,3.0741015625,-0.030090017837285994,-0.05271319779208861,-0.07605038950145245
1772094071406050600,3.084050537109375,-0.16546587201058863,-0.09380763478716835,0.0078884151622653
1772094071416000800,3.094000732421875,-0.16494740109443665,-0.09808830778105183,0.02174319138303399
1772094071425949700,3.10394970703125,-0.03399170145094395,-0.08535184979941696,0.0016334464207291603
1772094071435899000,3.11389892578125,0.10008066890835761,-0.02668300413908437,-0.03337561537921428
1772094071445847800,3.123847900390625,0.20924363893866538,-0.000607519172783941,-0.06343216933831572
1772094071455797800,3.1337978515625,0.25124329027831555,0.0030380251221824436,-0.0822413530960679
1772094071465746700,3.14374658203125,0.22870003455877302,-0.000323779461113736,-0.07832622547894716
1772094071475695900,3.15369580078125,0.1814186434239149,0.006749081534566357,-0.04849412792548537
1772094071485644800,3.163644775390625,0.13002747888267038,-0.018358407782949508,-0.01694689701721072
1772094071495593700,3.17359375,0.08042612036764621,-0.04105373965851031,0.004450403537601232
1772094071505543700,3.183543701171875,0.05184066187441349,-0.021986617350624873,0.014761661932617425
1772094071515492600,3.19349267578125,0.038082770156860346,0.013721989287110044,-0.009712415719032287
1772094071525441500,3.203441650390625,0.07915536977946758,-0.05003418784118257,-0.04668853980824351
1772094071535391000,3.213390869140625,0.040780338677763935,0.0022374767284840343,-0.07999927325770259
1772094071545340700,3.223340576171875,0.05830079779922962,0.02916824051698204,-0.04764452535882592
1772094071555289900,3.233289794921875,-0.017083236747980117,0.044022786631132474,-0.05979468961879611
1772094071565238800,3.24323876953125,-0.08189677744209765,0.031110387560701926,-0.01659530710056424
1772094071575187700,3.253187744140625,-0.10408581289649009,-0.013551518957875668,0.015410919621586798
1772094071585136600,3.26313671875,-0.10718845508694648,-0.05394218246461823,0.010994710614532232
1772094071595086800,3.2730869140625,-0.0945130979090929,-0.041460215267282906,-0.007350947284698486
1772094071605035800,3.283035888671875,-0.07291442956328392,0.0008984101444482803,-0.013243950846046208
1772094071614984700,3.292984619140625,-0.04441489578783512,0.04610903202039189,-0.03798690856695175
1772094071624933600,3.30293359375,0.018846154767274855,0.049431043449416755,-0.047302580053359265
1772094071634883600,3.312883544921875,0.10756839431524276,0.008188019163347781,-0.042307255984097715
1772094071644832800,3.322832763671875,0.18641572105884552,-0.057419603651063515,-0.03469838841557502
1772094071654781700,3.33278173828125,0.22402853561639785,-0.07245212754746899,-0.03259776287451386
1772094071664731000,3.34273095703125,0.2228267586112022,-0.07208360476233065,-0.040621640984714026
1772094071674680800,3.352680908203125,0.1869084730118513,-0.035017555633652955,-0.02860796258598566
1772094071684629800,3.362629638671875,0.10895195762813091,-0.014180327513860537,-0.006157061325013637
1772094071694578700,3.37257861328125,0.02871463783085346,-0.019870255384314806,0.06435512940213084
1772094071704528000,3.38252783203125,0.01152268001139164,-0.012520230548223479,0.07521861485242844
1772094071714476800,3.392476806640625,0.02450315761566162,0.0007635134520940482,0.027274522025138137
1772094071724426800,3.4024267578125,0.07514204248487949,0.04823675563093274,-0.03998655795156956
1772094071734375700,3.412375732421875,0.12072072135508059,0.07471872077258303,-0.11162176135927437
1772094071744324600,3.42232470703125,0.08818447940945624,0.03772636706777848,-0.10232479457333683
1772094071754273500,3.4322734375,0.04704056811630725,-0.015869376579346135,-0.01944032126814127
1772094071764223700,3.4422236328125,0.09041676850616931,-0.07168587414901703,0.026008155351132153
1772094071774172700,3.452172607421875,0.024565116935968398,-0.07807769407797605,-0.008035422417521476
1772094071784121900,3.462121826171875,-0.0410433735281229,0.008160592300305143,-0.020030103854835033
1772094071794070800,3.47207080078125,-0.03049801411628723,0.061740362060163166,-0.04580971114709973
1772094071804020700,3.482020751953125,0.03471767763793468,0.03058450508965179,-0.05392082914933562
1772094071813970000,3.491969970703125,0.09316869756281375,-0.0073177026022225615,-0.05504851800501346
1772094071823918800,3.5019189453125,0.1293044253051281,-0.016710092586651442,-0.06485387270450592
1772094071833867800,3.51186767578125,0.1805564736366272,-0.03352895191055722,-0.034603111347556115
1772094071843816700,3.521816650390625,0.19294716865420342,-0.020969887189287693,-0.013984978471696377
1772094071853766700,3.5317666015625,0.1510018778502941,0.04313696654019877,-0.02537044196948409
1772094071863715600,3.541715576171875,0.09954816946685313,0.06274936557277105,-0.023969342999905347
1772094071873664800,3.551664794921875,0.06816635825335979,0.05369270578215364,-0.028073709578812122
1772094071883614000,3.561614013671875,0.0011737199544906616,0.014260324814356863,0.020676877325773238
1772094071893563600,3.571563720703125,0.01329202777147293,-0.013119470516429282,0.04032938003987074
1772094071903512800,3.581512939453125,0.08647183027267455,-0.041215834885044024,-0.02187193232923746
1772094071913461800,3.591461669921875,0.12184124981760978,-0.016004209339618682,-0.06468596879169344
1772094071923410700,3.60141064453125,0.11277122365534305,0.029520209459541365,-0.07117343111485243
1772094071933361000,3.61136083984375,0.09753390703499316,0.017653410451905802,-0.029393998397141692
1772094071943309800,3.621309814453125,0.049718847414851185,0.0034100778715452176,-0.0468524981983006
1772094071953258800,3.6312587890625,0.03231704623699188,-0.0297882949443534,-0.06291705942302941
1772094071963207700,3.641207763671875,-0.057092591053247446,-0.04179183097498026,-0.05144333311989903
1772094071973156600,3.651156494140625,-0.08832067300975323,-0.046760358368861485,-0.04442249457240104
1772094071983106800,3.66110693359375,-0.10722469544410705,-0.05641212080868426,-0.04508139687255024
1772094071993055700,3.6710556640625,-0.11971066752970218,-0.09586647614627145,-0.015508242516219616
1772094072003004700,3.681004638671875,-0.06559796907007694,-0.09950489658070727,-0.010527385363727807
1772094072012953900,3.690953857421875,0.06045651452839374,-0.0654768634410575,-0.06518485822454094
1772094072022903800,3.70090380859375,0.17047990078032016,-0.022508536032610573,-0.11323211916536093
1772094072032852700,3.710852783203125,0.21806641234159468,0.010660902949748561,-0.10916852298825978
1772094072042802000,3.720802001953125,0.14074234964251517,0.027102320963121016,-0.06868775177896022
1772094072052750800,3.730750732421875,0.02557107910811901,0.059351462196209466,-0.06506356993243098
1772094072062700800,3.74070068359375,-0.013156418693065643,0.09546431595301255,-0.08415420098006725
1772094072072649700,3.750649658203125,-0.008387889117002487,0.022740691687515937,-0.048994040271639824
1772094072082598700,3.7605986328125,0.014297989943623543,-0.036305636382545345,-0.012809651082009077
1772094072092547600,3.770547607421875,0.05759878700971603,-0.015039702555863186,0.011551467714458703
1772094072102497800,3.780497802734375,0.10088146389722824,0.0036633493797155097,0.024958938559144734
1772094072112446700,3.79044677734375,0.20884090335667133,-0.000658299511950463,-0.005081687178462743
1772094072122395600,3.800395751953125,0.17122399714589118,0.02202301753798965,-0.06379106577858329
1772094072132344800,3.8103447265625,0.08231412607133388,0.047947732389369044,-0.09116349522024393
1772094072142293800,3.820293701171875,-0.02868599625825882,0.005932303525274619,-0.0787929662078619
1772094072152244000,3.830243896484375,-0.07876958533227443,-0.02059887105296366,-0.04307444096431136
1772094072162193000,3.84019287109375,-0.08080722863972187,-0.019322220446961,0.0011412789896130561
1772094072172141800,3.850141845703125,0.005845803418755531,-0.02460314739141613,-0.0002956219457089901
1772094072182090800,3.8600908203125,0.11624445272386073,-0.04535572030190378,-0.01725026387795806
1772094072192040700,3.870040771484375,0.15387188032865523,-0.04777526646587066,-0.0206556884072721
1772094072201989600,3.87998974609375,0.08099076851308346,-0.01757990682427771,-0.05697510215342044
1772094072211938800,3.889938720703125,-0.01720423277914524,0.015745165677787734,-0.059125412055104964
1772094072221887700,3.8998876953125,-0.07153203529417515,-0.0029918798589380455,-0.0356231020450592
1772094072231837700,3.909837646484375,-0.06684884591400624,-0.017041073540109208,-0.0018451894752681253
1772094072241786600,3.91978662109375,0.005637713626027107,-0.008425896739563904,0.004536766646802425
1772094072251735800,3.92973583984375,0.08753098393678664,0.008521698963968084,-0.018856822291761634
1772094072261684700,3.939684814453125,0.1433072316944599,0.029847573683806694,-0.06828428554460406
1772094072271634000,3.949634033203125,0.23126959278583525,0.0279453841911396,-0.07703603953793645
1772094072281583900,3.959583984375,0.237903916233778,-0.009201808448927476,-0.09110986533686519
1772094072291532800,3.96953271484375,0.13576280766427515,-0.042605092719779344,-0.046429450480639935
1772094072301481700,3.979481689453125,0.12595043870210648,-0.07793434008453042,-0.05863470592871308
1772094072311430700,3.9894306640625,0.10868950729966163,-0.1025979854915291,-0.09129179777503013
1772094072321380900,3.999380859375,0.03061901014745235,-0.058500539888720955,-0.047142128794640296
1772094072331329800,4.009329833984375,-0.07044190196990967,0.009051490425155498,-0.04252776686698198
1772094072341278700,4.01927880859375,-0.09443360293209552,0.020374629276455378,-0.028540011916309595
1772094072351227600,4.0292275390625,-0.03402385015487671,-0.014377041962626388,-0.013604746982455253
1772094072361176800,4.0391767578125,0.02702536956965923,-0.024544754567951892,-0.013252426413446664
1772094072371126500,4.04912646484375,0.08970014466941356,-0.013489331308705731,-0.03325871100127697
1772094072381076000,4.059075927734375,0.1453764391839504,-0.021877932811761272,-0.06836743378341198
1772094072391025000,4.06902490234375,0.162522219774127,-0.014509271773858926,-0.06818857008516788
1772094072400973800,4.078973876953125,0.1763081685423851,-0.04738004290347453,-0.030757834096252917
1772094072410923800,4.088923828125,0.16971242353916166,-0.06387318653750698,-0.0104503746047616
1772094072420872700,4.098872802734375,0.10530220294892788,-0.005396497881831601,-0.033548633858561515
1772094072430821600,4.108821533203125,0.012748422414064407,0.05976845463241916,-0.08644318870007991
1772094072440770800,4.118770751953125,-0.06490063445568084,0.07124042736988048,-0.09805559282153845
1772094072450720800,4.128720703125,-0.09070435327589511,0.015827596963965334,-0.056377866912633176
1772094072460669700,4.138669677734375,-0.1066471878170967,-0.02885384080556687,-0.02249050261899829
1772094072470618600,4.14861865234375,-0.08284136481583118,-0.06902006160640158,-0.006394231081753968
1772094072480567800,4.15856787109375,0.025015783312916755,-0.10129468434061854,-0.012890899624675512
1772094072490516700,4.168516845703125,0.13469605521559713,-0.07109205014144536,-0.04919000123515725
1772094072500467000,4.178467041015625,0.1976443865597248,0.00044872101503424345,-0.10199059418290853
1772094072510416000,4.188415771484375,0.2349491580814123,0.03828323833213653,-0.12376958753168582
1772094072520364800,4.19836474609375,0.1903764413833618,-0.0007911047119181603,-0.1039407053373754
1772094072530313700,4.208313720703125,0.12490940521657466,-0.0484743683456676,-0.03448445340394973
1772094072540263700,4.218263671875,0.09398293655514717,-0.08578931876807473,0.011530278795957565
1772094072550212900,4.228212890625,0.08232757007479667,-0.08654042026316747,-0.01187163957953453
1772094072560161800,4.238161865234375,0.061736032944917675,-0.06125662909725215,-0.05520385469719767
1772094072570110700,4.24811083984375,0.03720306471288204,-0.02097857281924225,-0.09076236707344651
1772094072580060700,4.258060791015625,0.028059973314404487,0.017967773630702868,-0.08110854967385529
1772094072590009600,4.268009521484375,0.01761807427704334,-0.012724552914709784,-0.06639993310272693
1772094072599958800,4.277958740234375,0.005960954231023788,-0.03333310282818274,-0.03971066361963749
1772094072609907700,4.28790771484375,-0.030193478211760518,-0.03165262751150876,-0.047172816193848846
1772094072619857000,4.29785693359375,-0.11389525924921035,-0.01246907803301001,-0.06421718223616481
1772094072629806800,4.307806884765625,-0.12470014638006686,-0.008205353890638797,-0.023021102364361286
1772094072639755800,4.317755859375,-0.031468320453166956,-0.03205822177086957,0.0005542728818953037
1772094072649704700,4.32770458984375,0.07613456065356732,-0.03988442188450135,0.021241087079793212
1772094072659653600,4.337653564453125,0.12740531368553637,-0.043091789391334165,0.043714492433518166
1772094072669603800,4.347603759765625,0.12169395030140875,-0.005899456135020591,0.04273541826829314
1772094072679552800,4.357552734375,0.08268237486183642,0.03230372553111519,0.006436901179701089
1772094072689501700,4.367501708984375,0.08658464299738407,0.05152936743553727,-0.025679215657711026
1772094072699450600,4.37745068359375,0.0960989057958126,0.05617135258906055,-0.04324804396554827
1772094072709399800,4.38739990234375,0.09352291782796382,0.0423045662700897,-0.01918137807101011
1772094072719349800,4.397349853515625,0.0625321517586708,0.02301679608200211,-0.0074228434771299355
1772094072729299000,4.407298828125,0.03494154952168464,0.006473223735252395,0.007377689161151647
1772094072739246800,4.417246826171875,0.0037584757506847377,0.007665502259740605,-0.012072715109586714
1772094072749195800,4.42719580078125,-0.01013794765472412,0.02050597317169886,-0.007052256599068641
1772094072759146000,4.43714599609375,0.06560206072330474,-0.011575451378244906,0.012195318575948477
1772094072769095000,4.447094970703125,0.1326841308712959,-0.054844999356125475,0.012319529477506875
1772094072779043800,4.4570439453125,0.18727730632424353,-0.03633466154763009,-0.013253595457226037
1772094072788992800,4.46699267578125,0.11707564285099506,0.015614557001483625,-0.07448036370575428
1772094072798942700,4.476942626953125,0.004103343665599822,0.06032427558400668,-0.07810264585614204
1772094072808892000,4.486891845703125,-0.0538140077739954,0.04225779995233751,-0.036552930241078134
1772094072818841000,4.496841064453125,-0.09489888235628605,0.01447104952216614,-0.004351911599189043
1772094072828790000,4.5067900390625,-0.018334698113799095,-0.039043367950478566,0.043944063405692575
1772094072838739000,4.516739013671875,0.057490065938234323,-0.06896477862205357,0.034228871207684274
1772094072848689000,4.52668896484375,0.1141676464498043,-0.05749836340912152,0.0003568506136536598
1772094072858637800,4.536637939453125,0.17026713481247424,-0.0507395915976027,-0.032625381533801553
1772094072868587000,4.5465869140625,0.18436638731360436,-0.03791826834410895,-0.056754591270536184
1772094072878536000,4.556535888671875,0.20435119072198868,-0.03055846646609716,-0.04483984320163727
1772094072888486000,4.56648583984375,0.20021745191812515,-0.04095244384165853,-0.04373772717863321
1772094072898434800,4.576434814453125,0.1116711534589529,-0.035928003275766965,-0.048017011933028694
1772094072908383700,4.5863837890625,0.040783845809102055,-0.01872712693091016,-0.041378304570913314
1772094072918333000,4.5963330078125,0.006465981143712997,-0.002811504623619839,-0.04638473455607891
1772094072928283000,4.606282958984375,-0.0029728783309459685,0.044109108641138296,-0.05713321532458067
1772094072938232000,4.616232177734375,-0.021648352706432342,0.05176726327806245,-0.0664854194290936
1772094072948181000,4.626180908203125,-0.05866495493650436,0.04576623276497703,-0.04536269803196191
1772094072958130000,4.6361298828125,-0.03858195185065269,0.03926875137130264,-0.02713087577074766
1772094072968078800,4.646078857421875,0.00893324804008007,-0.018697503544203936,0.02326134086102247
1772094072978029000,4.656029052734375,0.030951018580794333,0.023496761618671005,0.09914572614580393
1772094072987978000,4.66597802734375,-0.014321955341100692,0.0477084437407786,0.1162199028044939
1772094072997927000,4.675927001953125,-0.08160568554103374,0.048745965528395024,0.0849728238865733
1772094073007875800,4.685875732421875,-0.05708499226868152,0.06378786917449907,0.0777796975120902
1772094073017825800,4.69582568359375,0.0241904384046793,0.06739669362169225,0.047307548489421605
1772094073027774700,4.705774658203125,0.14465513917207717,0.07218028833614662,0.04531842049881816
1772094073037724000,4.715723876953125,0.29453824212551116,0.0684809634607518,0.05186901118606329
1772094073047673000,4.725673095703125,0.3382663246929645,0.04269143299609422,0.025512919180095194
1772094073057622000,4.7356220703125,0.2866705774903297,0.030242103126458822,-0.004743833526223898
1772094073067572000,4.745572021484375,0.20231004028320312,0.030085734387813135,-0.06003975042104721
1772094073077521000,4.75552099609375,0.09250701878368854,0.00835308723167982,-0.07112973810359835
1772094073087469800,4.7654697265625,0.0023702362626791,-0.017610096466564574,-0.07428601017743348
1772094073097419000,4.7754189453125,-0.04060439758896828,-0.051982075072522275,-0.03832183960974216
1772094073107369000,4.785368896484375,-0.06336801806092261,-0.11274629927664064,-0.006574994476139545
1772094073117318000,4.79531787109375,-0.05040975228846073,-0.12004230150370858,0.009081424339115619
1772094073127266800,4.805266845703125,0.028996377381682394,-0.09109346219133585,-0.017477935153990983
1772094073137215700,4.8152158203125,0.0985083050251007,-0.03215554009892512,-0.0897604965545237
1772094073147166000,4.825166015625,0.12041735449433326,0.006587917889794334,-0.12020853404924273
1772094073157115000,4.835114990234375,0.024216157367825508,0.02926308376016095,-0.12943711177408695
1772094073167064000,4.84506396484375,-0.09333061012625694,0.03236315953419543,-0.044806233192980285
1772094073177013000,4.855012939453125,-0.07659984007775783,-0.04188011204663198,0.04169467704370618
1772094073186962000,4.8649619140625,0.04336684803962707,-0.10271834220187738,0.061493456360697744
1772094073196911900,4.874911865234375,0.13922843794822692,-0.06655908745350315,0.020538491768389937
1772094073206861000,4.884861083984375,0.18440555028021335,-0.0004613613008987158,-0.004033493299782276
1772094073216810000,4.89481005859375,0.17811083405017852,0.026466192183783276,-0.009401303943246602
1772094073226759000,4.904759033203125,0.16576105556488036,0.00922255897601135,-0.0030570494830608366
1772094073236708900,4.914708984375,0.1681552572250366,0.010267702381080017,0.0014465455465018748
1772094073246657800,4.92465771484375,0.11075462313592434,0.04810355770532042,-0.01721314673796296
1772094073256606700,4.934606689453125,0.02147416518330574,0.06632690439913422,-0.05472849227041006
1772094073266556000,4.944555908203125,-0.03455225794315338,0.04471437649133149,-0.03555544363632798
1772094073276505900,4.954505859375,-0.04623334338665008,-0.014149156057462095,-0.01675064379274845
1772094073286455000,4.964455078125,-0.05613339063227176,-0.05312835903081577,-0.02704115166068077
1772094073296404000,4.974404052734375,-0.027101941937208173,-0.0285072467244463,-0.056753129965811965
1772094073306353000,4.984352783203125,0.025171850657463073,-0.019612088505318388,-0.0871343858346343
1772094073316301800,4.9943017578125,0.062004913014173504,-0.04606072219952475,-0.08779781817942857
1772094073326252000,5.004251953125,0.09880407310128211,-0.07988017692267894,-0.0319229323528707
1772094073336201000,5.014200927734375,0.1090180086016655,-0.053930624457565135,-0.03073416095972061
1772094073346150000,5.02414990234375,0.04246843789517879,-0.034289506220584735,-0.059608957788348196
1772094073356098800,5.034098876953125,-0.006854688200354576,0.01263458220947068,-0.07607245520278812
1772094073366048800,5.044048828125,0.0022509937971830368,0.026908620455348864,-0.09446370580941438
1772094073375998000,5.053998046875,0.008725742769241332,-0.01434054131056182,-0.09239625188559293
1772094073385947000,5.06394677734375,0.041814357900619506,-0.07243428136352449,-0.029123510892689226
1772094073395896000,5.07389599609375,0.07152677459716797,-0.06994741928412113,-0.035439562171697615
1772094073405845000,5.083844970703125,0.09651508538126945,-0.03571466191918589,-0.03410217608809471
1772094073415795000,5.093794921875,0.1615682800501585,0.0035569983618333936,-0.024008652096986768
1772094073425744000,5.103743896484375,0.15844225698411463,0.053058257503248746,-0.005110328751057386
1772094073435693000,5.113693115234375,0.08951134409904479,0.05044035748927854,0.008793108917027712
1772094073445642000,5.12364208984375,0.01835749446749687,0.0293217231787974,0.0057274377360939975
1772094073455592000,5.133592041015625,0.003950783452391624,0.0028210533366771415,0.02978606645464897
1772094073465540900,5.143540771484375,0.03545125260949135,-0.020851475840853527,0.02514744686856866
1772094073475489800,5.15348974609375,0.07403963420093058,-0.04043126951176673,0.008591887256503105
1772094073485438700,5.163438720703125,0.10216039779186248,-0.009324073988571763,-0.026789953378587958
1772094073495389000,5.173388916015625,0.12112462598085402,0.006974930746271275,-0.04113061342015862
1772094073505337900,5.183337890625,0.12620061407089234,-0.005845228030020371,-0.015883505569398403
1772094073515287000,5.193287109375,0.09513795180916786,-0.016703101156861522,-0.003112286801636219
1772094073525236000,5.203236083984375,0.03407937973439693,-0.02519371542939916,-0.02339607315659523
1772094073535185000,5.213184814453125,-0.03417641036808491,-0.03130798335887957,-0.012322744347900151
1772094073545135000,5.223135009765625,-0.08248656002879143,-0.04072296876760665,0.0008744447469711303
1772094073555084000,5.233083984375,-0.0692944855004549,-0.03008477997316513,-0.013574644105136393
1772094073565033000,5.243032958984375,-0.023024317234754562,-0.01035490117392037,-0.05460238167271018
1772094073574982000,5.25298193359375,0.025593875461816785,-0.006429658588161692,-0.0570814851373434
1772094073584931800,5.262931884765625,0.065512044352293,-0.004373589141457341,-0.04150543808192014
1772094073594880800,5.272880859375,0.12306406961083412,0.0387565229662694,-0.0452545614823699
1772094073604830000,5.282829833984375,0.18428396972715855,0.05720920773681719,-0.0803511554352939
1772094073614779000,5.29277880859375,0.16024667605757711,0.055940941366669716,-0.09233005478158593
1772094073624728000,5.30272802734375,0.12287526904046535,0.028115580525738187,-0.05773688030615449
1772094073634677800,5.312677734375,0.07452946354448794,-0.007498794790171086,-0.017194149776548148
1772094073644627000,5.322626953125,0.017597031489014623,-0.03137154098122846,0.005633914233744144
1772094073654575900,5.332575927734375,-0.02931377276778221,-0.030483579165558328,0.017246610616147517
1772094073664524800,5.34252490234375,-0.05921674360036849,-0.011186059335013852,0.044079964745044706
1772094073674475000,5.35247509765625,-0.014531798699498175,0.002893648215429857,0.04549991454556584
1772094073684424000,5.362423828125,0.11422492959499359,0.014613869226071982,-0.0026793022118508816
1772094073694372900,5.372372802734375,0.22876316292285917,0.031937901593139396,-0.036447131779044864
1772094073704321800,5.38232177734375,0.2570750651717186,0.010561767123942262,-0.06423369497954845
1772094073714270700,5.392270751953125,0.2032002671211958,0.011355479351477698,-0.08328998536616564
1772094073724221000,5.402220947265625,0.030908933004736898,0.015060580947110429,-0.056574996919929975
1772094073734169900,5.412169921875,-0.06658814915120602,-0.027989268998638725,0.0014035831876099108
1772094073744119000,5.422119140625,-0.1467792917191982,-0.031216944074560885,-0.003606061667948961
1772094073754068200,5.432068115234375,-0.11226210508942604,-0.007971645599463954,-0.055829877641052
1772094073764018200,5.44201806640625,-0.08905600154697894,-0.018208993941475637,-0.04772343581393361
1772094073773967000,5.451967041015625,-0.04033259491026401,-0.009098261309484951,-0.0036971009522676467
1772094073783916300,5.461916259765625,0.04479425049424171,-0.009898841669224202,0.012476327474415301
1772094073793865200,5.471865234375,0.13849135584533215,0.0019692131471587345,-0.005999240414798259
1772094073803814100,5.481814208984375,0.23316987344920634,0.00677200118585024,-0.020202245551347732
1772094073813764000,5.49176416015625,0.2669108150094747,0.013575762916565872,-0.061812313051521774
1772094073823713000,5.501713134765625,0.20196926402151583,0.00826302062831819,-0.07826499681100249
1772094073833662000,5.511661865234375,0.13551438586115835,0.01796680094974581,-0.012702975837141275
1772094073843611000,5.52161083984375,0.09346037398576736,0.03404360060153994,0.01583805899247527
1772094073853561000,5.53156103515625,0.07857961571812629,0.06106210203899536,0.005973229190707206
1772094073863510000,5.541510009765625,0.050154900744557376,0.045816647777962495,0.007883446726202965
1772094073873459200,5.551459228515625,0.03243511965870857,-0.009800294931884855,0.030736060655862093
1772094073883408100,5.561408203125,0.04202887743413448,-0.07208049492321443,0.02329071308597922
1772094073893358300,5.5713583984375,0.016612696626782417,-0.06403624531184322,-0.014780951154977082
1772094073903307300,5.581307373046875,0.030897242566943168,-0.039708613226446324,-0.031862142076343296
1772094073913256200,5.591256103515625,0.011537293058633803,-0.006687601704872213,-0.03697320147976279
1772094073923205000,5.601205078125,0.11360007569491863,-0.02105660649151541,-0.01862885875478387
1772094073933154000,5.611154052734375,0.1579167718052864,0.006497696022805757,-0.047162294799834484
1772094073943104000,5.62110400390625,0.17176994059085846,0.028703171155345625,-0.07763751256242395
1772094073953053200,5.63105322265625,0.07090016713142394,0.015609677613677922,-0.07499167422875762
1772094073963002000,5.641002197265625,-0.05119125805497169,-0.00463113953252323,-0.0755552994608879
1772094073972951300,5.650951416015625,-0.13069091122746468,-0.0742032911968883,-0.05671425926014781
1772094073982901000,5.66090087890625,-0.1447708745062351,-0.08370674947351217,-0.036455899607390166
1772094073992850200,5.67085009765625,-0.08439327043294906,-0.07720233601555228,-0.03202566207498312
1772094074002799000,5.680799072265625,0.03850537948310375,-0.048489113823650405,-0.025984189953655003
1772094074012748000,5.690748046875,0.12791326320767402,-0.019502883376646785,-0.027543255963921546
1772094074022697200,5.700697265625,0.1683510720580816,-0.003126470590615645,-0.033869536375999446
1772094074032647200,5.710647216796875,0.1534632995277643,0.015122786862589417,-0.05066913387700915
1772094074042596000,5.72059619140625,0.08212883263230324,0.014192623023141641,-0.045685207984596486
1772094074052545000,5.730544921875,0.03167056502699852,-0.009398618795815855,-0.02712210794240236
1772094074062494000,5.740493896484375,-0.005793196448683738,-0.03327048135417281,-0.0010717208847403526
1772094074072444200,5.750444091796875,-0.024330723658204077,-0.02364038960675243,0.003799246152490377
1772094074082393000,5.76039306640625,-0.01438391466140747,-0.028751321146008556,0.026125498120486736
1772094074092342000,5.770342041015625,0.05287117396593093,-0.03601123827954288,0.016102847408503294
1772094074102291200,5.780291259765625,0.0979378116607666,-0.04673857579531614,0.003840747206658125
1772094074112240000,5.790240234375,0.12131927177011965,-0.04212228677205276,-0.007603753001987934
1772094074122190300,5.8001904296875,0.12615969753861428,-0.02869495588284917,-0.029430384884774684
1772094074132139300,5.81013916015625,0.09851356572210788,0.002033935246709734,-0.046564767298102376
1772094074142088200,5.820088134765625,0.04640811543166637,0.01721109177819453,-0.03919599209576845
1772094074152037000,5.830037109375,-0.006143325060606003,-0.00972164933825843,-0.020751111605763435
1772094074161987000,5.839987060546875,-0.006309329277276993,-0.04953170451202895,0.0164532682813704
1772094074171936000,5.84993603515625,0.04030804499089718,-0.07017676649400964,0.03454860468134284
1772094074181885000,5.859885009765625,0.10426759920418262,-0.058816588134528135,0.003230214092880487
1772094074191834000,5.869834228515625,0.17790449782311915,-0.05135046263809781,-0.022684125494956967
1772094074201783300,5.879783203125,0.24817104322612285,-0.05191655382195021,-0.036473143003135915
1772094074211733000,5.88973291015625,0.2416717443346977,-0.045667393766692835,-0.07809124767929315
1772094074221682200,5.89968212890625,0.11865677456259727,0.02482190014205407,-0.10732742516621947
1772094074231631000,5.909631103515625,-0.00007306523621082306,0.04324555061436258,-0.08858736112192273
1772094074241580000,5.919580078125,-0.12323533452451228,-0.001113842993415892,-0.07015402493923902
1772094074251530200,5.9295302734375,-0.11997720951139926,-0.05272931324325036,-0.034385669204592705
1772094074261479200,5.939479248046875,-0.061897945508360856,-0.09083839145172387,-0.005878682775050401
1772094074271428000,5.949427978515625,0.029361119040846824,-0.0711954465838382,0.007392886730283498
1772094074281377000,5.959376953125,0.07143266657292842,-0.004320804074872285,-0.00849018044769764
1772094074291327200,5.9693271484375,0.10105331333279609,0.04761222139126621,-0.044917876873910426
1772094074301276200,5.979276123046875,0.13254793727099895,0.08608842044565826,-0.08570230720490217
1772094074311225000,5.98922509765625,0.10308628046512604,0.05844166300806682,-0.10140943329408764
1772094074321174300,5.99917431640625,0.06275602364242076,-0.02414122896809131,-0.052254211111366744
1772094074331123200,6.009123291015625,0.039859716701507564,-0.10654960919413715,0.0010188216537237167
1772094074341073200,6.0190732421875,0.019053660038113592,-0.11885976805509998,0.013993161778151988
1772094074351022000,6.02902197265625,0.011798574343323707,-0.07866274569062516,0.026041034707427024
1772094074360971300,6.03897119140625,0.040915947756171224,0.01279675963439513,0.021849866627901792
1772094074370920200,6.048920166015625,0.07858662998080253,0.03858105223493185,-0.03483224392831325
1772094074380870100,6.0588701171875,0.1094488012343645,0.06825024171110708,-0.07198240941017865
1772094074390819000,6.068819091796875,0.09573124152719974,0.06818776636756956,-0.09528422841206192
1772094074400768000,6.07876806640625,0.06989011330604553,0.0006128049859660677,-0.0767035927131772
1772094074410717000,6.088717041015625,0.06617956835031509,-0.08760368384681641,-0.036232612245529885
1772094074420666000,6.098666015625,0.026530279529094696,-0.12969870358603075,-0.02498889530599117
1772094074430616000,6.108615966796875,-0.003837386205792427,-0.13615238237059674,0.0028588965624570845
1772094074440565000,6.11856494140625,0.0163344642072916,-0.11305806863955221,0.020840981846302748
1772094074450514200,6.12851416015625,0.08980652765333652,-0.08350553694614209,0.010884528238326311
1772094074460463000,6.138463134765625,0.1353553959071636,-0.027719811257359103,-0.030059330438077448
1772094074470413300,6.148413330078125,0.13350479960441589,0.0193059497321723,-0.0753757051102817
1772094074480362200,6.1583623046875,0.09911328518092631,0.040830753690749406,-0.10888634504601359
1772094074490311200,6.168311279296875,0.035470541831851006,0.00773304079581867,-0.07150456276535988
1772094074500260000,6.178260009765625,0.00039922845065593716,-0.0718266936920816,-0.007090104391425847
1772094074510209000,6.188208984375,-0.028006197300553322,-0.1085529118405655,0.027509645955264568
1772094074520159000,6.198158935546875,-0.023456278911232947,-0.1204367441813927,0.02970277208536863
1772094074530108200,6.208108154296875,0.027137597772479056,-0.09858692321926354,0.020052315686643122
1772094074540057000,6.21805712890625,0.13435177182257174,-0.07151512069199234,0.013051058622449636
1772094074550006300,6.22800634765625,0.19383739549219609,-0.044810137616540305,-0.059439154179394244
1772094074559955200,6.237955078125,0.1622083315193653,0.01963593060520943,-0.0999361458711326
1772094074569905200,6.2479052734375,0.07170680733919144,0.049411238203826355,-0.10331468239352107
1772094074579854000,6.25785400390625,0.003042436435818672,0.009948015714838401,-0.05245937829464674
1772094074589803300,6.26780322265625,-0.043247021052241326,-0.057271441051759756,-0.0007613397613167762
1772094074599752200,6.277752197265625,-0.018156418937444685,-0.08255795389772393,0.023403818071633577
1772094074609702100,6.2877021484375,0.026412790629267692,-0.12311496868100948,0.03606426994130015
1772094074619651000,6.297651123046875,0.10425883137583732,-0.10444965950651093,-0.016560381917655468
1772094074629600000,6.30760009765625,0.10726619649827479,-0.06517931439974345,-0.08231573350653051
1772094074639549000,6.317548828125,0.056197688040137285,0.0030248728088423374,-0.11494301473647356
1772094074649499100,6.3274990234375,-0.04799976853728294,0.012907757144642528,-0.10643500637114048
1772094074659448000,6.337447998046875,-0.08046937498748302,-0.021447692734911105,-0.07372296946719288
1772094074669397000,6.34739697265625,-0.10804477965533733,-0.0472703948168084,-0.036922494205832476
1772094074679346200,6.35734619140625,-0.07465981192588805,-0.051903502544132056,-0.0013202888183295727
1772094074689295000,6.367295166015625,-0.027658406776189803,-0.05781094105620868,0.008720043680816887
1772094074699245300,6.377245361328125,0.02350245614051819,-0.035284179813740775,-0.012288842078298329
1772094074709194200,6.3871943359375,0.11778583694696426,-0.01187517639362486,-0.03565729657560587
1772094074719143200,6.39714306640625,0.17706395534574984,0.02057503808622714,-0.0657017217054963
1772094074729092000,6.407092041015625,0.18338906671404837,0.054333250441704874,-0.08799772466570138
1772094074739042600,6.41704248046875,0.15325871686637402,0.05464181863395497,-0.07534691740721464
1772094074748992500,6.426992431640625,0.11937982814013957,0.045424602553341534,-0.036158670226484536
1772094074758941400,6.43694140625,0.08667115223705768,0.0043591427742852825,0.00849032657817006
1772094074768890400,6.446890380859375,0.07676292168498039,-0.028180293492134658,0.010413403595238924
1772094074778839600,6.456839599609375,0.07785831570625305,-0.018291354445705656,-0.0015007599517703055
1772094074788789500,6.46678955078125,0.07049509346187115,-0.01347945951030706,-0.009744564422965049
1772094074798738400,6.476738525390625,0.04952770875692367,0.013652920947648818,-0.0387953023403883
1772094074808687400,6.486687255859375,0.02082183875441551,0.027738787669176233,-0.05035144622996449
1772094074818636500,6.496636474609375,0.03196691762506962,0.015261468105850507,-0.04309095370769501
1772094074828586500,6.50658642578125,0.030673370683193205,-0.03452957575388718,0.0006447276443243027
1772094074838535400,6.516535400390625,0.050451253342628476,-0.08679087875974364,0.003941869493573904
1772094074848484600,6.526484619140625,0.058986441975831985,-0.0776299411773216,-0.05288987866640091
1772094074858433500,6.53643359375,0.021613865914940834,-0.04701893167323433,-0.08632599206119776
1772094074868382500,6.546382568359375,-0.005433130964636802,-0.015462798222585115,-0.06043342591375112
1772094074878332700,6.556332763671875,-0.0418453375607729,0.03346678024440771,-0.05726707083731889
1772094074888281600,6.566281494140625,-0.10537117653191089,0.07322361424346455,-0.0458972433000803
1772094074898230500,6.57623046875,-0.06433247917890549,0.09388890159614384,-0.010193623364716768
1772094074908179500,6.586179443359375,0.008615268132090568,0.039088828227133485,-0.00035889644026756285
1772094074918128400,6.59612841796875,0.10114332970380782,-0.003518901691015344,0.02234773314744234
1772094074928078300,6.606078369140625,0.1496171454936266,0.0043189763023226985,-0.014079671017825602
1772094074938027300,6.61602734375,0.18129589382708072,0.0319748315034667,-0.06548442569300532
1772094074947976700,6.625976806640625,0.19677870964109898,0.05992435301360674,-0.10597849477529525
1772094074957925600,6.635925537109375,0.19658464837372303,0.07330675334911793,-0.12484496167823672
1772094074967875600,6.64587548828125,0.15263210940063,0.07412649506705347,-0.14076236951723695
1772094074977824500,6.655824462890625,0.09456804296672344,0.05090528528701979,-0.09718626264110207
1772094074987773400,6.6657734375,0.05060965877473354,-0.013447509452485245,-0.05214095999523997
1772094074997722400,6.675722412109375,0.03428630048334598,-0.022196876267553307,-0.03029489275962114
1772094075007671600,6.685671630859375,0.0284819981187582,-0.02941072576965671,-0.01722103778347373
1772094075017621500,6.69562158203125,0.035626024654507635,-0.0393509269291535,-0.007298194184154272
1772094075027570400,6.7055703125,0.03272328895032406,-0.007449610469758045,-0.06560322976708412
1772094075037519400,6.715519287109375,0.05950374384820461,0.016084026260313113,-0.09220087544396519
1772094075047468500,6.725468505859375,0.057734980610013004,0.04387535468419082,-0.1173946456722915
1772094075057418500,6.73541845703125,0.036305823612213135,0.06920160131892189,-0.10173282002955675
1772094075067367700,6.74536767578125,0.007370236507058143,0.037390582075039855,-0.05786605964377522
1772094075077316600,6.755316650390625,0.008805822268128394,-0.010809321277379057,-0.010748042377084493
1772094075087265500,6.765265625,0.035548867765069006,-0.03019257402946241,0.014796294854581355
1772094075097214500,6.77521435546875,0.052534489357471466,-0.03221833510287106,-0.00960880921408534
1772094075107164400,6.785164306640625,0.09128712159991263,-0.03080479221025016,-0.028309418030828235
1772094075117113600,6.795113525390625,0.1417728617340326,-0.02783227007233072,-0.008297288224101066
1772094075127062500,6.8050625,0.16528291665911674,-0.0014692391522112302,-0.005300590626150369
1772094075137011500,6.815011474609375,0.1521913798958063,0.021381395166204308,-0.024887334627658127
1772094075146961400,6.82496142578125,0.09011398616731166,0.0887037997089792,-0.07660963081941008
1772094075156910300,6.834910400390625,0.023590718945860862,0.0877050161962863,-0.06729863550812006
1772094075166859300,6.844859375,0.0016968670457601547,0.037781476522190494,-0.02212663774266839
1772094075176808700,6.85480859375,-0.012254501417279243,-0.023863558237603864,0.029650018984824417
1772094075186757600,6.864757568359375,0.024891280150413513,-0.05698648206396028,0.019661124411970377
1772094075196707600,6.87470751953125,0.08571955060064793,-0.054029148362018165,-0.0067556117400527
1772094075206656500,6.884656494140625,0.12716215257942676,-0.04321202280409634,-0.028623014024645087
1772094075216605400,6.89460546875,0.12325403922498225,-0.015793014274351296,-0.0734489748314023
1772094075226554400,6.904554443359375,0.09955050755441189,0.010392479538219049,-0.09176584502756595
1772094075236504600,6.914504638671875,0.08690613003671169,-0.009877038546081166,-0.07735811109915375
1772094075246453500,6.92445361328125,0.05077975464463234,-0.03252533924240852,-0.04743205165192484
1772094075256402400,6.93440234375,-0.03440495842695236,-0.026105286449519916,0.010003507620096205
1772094075266351400,6.944351318359375,-0.10959434718489647,-0.02753019326966023,0.032902152648568155
1772094075276300500,6.954300537109375,-0.06933890916407108,-0.020539101406454572,0.020838643758744
1772094075286250500,6.96425048828125,0.04630290149152279,-0.001177648352581309,0.008131868529319762
1772094075296199700,6.97419970703125,0.15107318952083587,0.02186191097543342,-0.029456249978393315
1772094075306148600,6.984148681640625,0.18425415911078452,0.07384145388086326,-0.08166998294889927
1772094075316097500,6.99409765625,0.13068331244289874,0.08130851095905527,-0.02872793570384383
1772094075326046500,7.00404638671875,0.08429331718981266,0.04290085166280623,0.044252252572029825
1772094075335996400,7.013996337890625,0.05575637401342392,0.006085708555276505,0.07264438045024871
1772094075345945600,7.023945556640625,0.0513870728880167,-0.02079600334354909,0.05815905124098062
1772094075355894500,7.03389453125,0.06142857443094253,0.004653072803118266,0.01660948175638914
1772094075365843500,7.043843505859375,0.10747253272533416,0.023805765919049735,-0.028332068254053593
1772094075375793400,7.05379345703125,0.1335311030894518,0.036160601888666856,-0.041212592615187164
1772094075385742300,7.063742431640625,0.09659750296771526,0.05694648798028938,-0.03220686386078596
1772094075395691500,7.07369140625,0.054445875936746595,0.04220466325930319,0.01867518211454153
1772094075405640700,7.083640625,0.028889994397759435,0.023255742237297816,0.05464242142215371
1772094075415589600,7.093589599609375,0.008164601755142211,0.017219103838002774,0.050787791820615526
1772094075425539600,7.10353955078125,-0.022775310909748075,0.0062087915122509,0.05366451630070805
1772094075435488500,7.113488525390625,-0.002319382858276367,-0.008060899352072737,0.048645372964441776
1772094075445437400,7.1234375,0.05708499226868152,-0.018514252506854244,0.04572787808254361
1772094075455386400,7.133386474609375,0.12377367918491362,-0.015369231337751262,0.04789265490099787
1772094075465336600,7.143336669921875,0.149843939986825,0.015866088643716646,0.018637334322184323
1772094075475285500,7.153285400390625,0.09651391633749008,0.04605398649806156,-0.02607990541309118
1772094075485234400,7.163234375,0.018130699974298475,0.04146576822523493,-0.044765462791174646
1772094075495183400,7.173183349609375,-0.012151625564694403,0.02134108370541362,-0.023619068257510662
1772094075505132500,7.183132568359375,0.009306173005700111,-0.024979782701062502,-0.03996346933692693
1772094075515082500,7.19308251953125,0.0680307491749525,-0.07850571936485357,-0.05354512770473957
1772094075525031700,7.20303173828125,0.1377788236618042,-0.05979662584755569,-0.06328194721266626
1772094075534980600,7.212980712890625,0.09224807558655738,-0.019546284126956016,-0.10978738553896546
1772094075544929500,7.222929443359375,0.006762918263673782,-0.011419002724497113,-0.10752806230485439
1772094075554878500,7.23287841796875,-0.05118891996741295,-0.053027387440949675,-0.05350786443427205
1772094075564828400,7.242828369140625,-0.03125438544154167,-0.07720969733810051,-0.015440291846543549
1772094075574777600,7.252777587890625,0.012110709032416343,-0.060065035559353414,-0.020001316151767968
1772094075584726500,7.2627265625,0.0541623828202486,-0.013809677845361875,-0.07116670911312103
1772094075594675500,7.272675537109375,0.08782616749107837,0.0634958274253644,-0.12179770293682812
1772094075604625400,7.28262548828125,0.06342763929367065,0.08246680501555093,-0.11484189244955778
1772094075614574300,7.29257421875,0.014886603486537933,0.042449367868527765,-0.019810031363368032
1772094075624523500,7.3025234375,0.010260112729668617,-0.019860163248563184,0.05492401484251022
1772094075634472700,7.31247265625,0.051317514783143996,-0.049137768724421035,0.07880056499242782
1772094075644421600,7.322421630859375,0.1289209789454937,-0.02065483902390115,0.05429565381109714
1772094075654371600,7.33237158203125,0.1982160489678383,0.019892206921218892,0.022663082706928253
1772094075664320500,7.342320556640625,0.2288572709470987,0.0855422030060552,-0.022161124534159898
1772094075674269400,7.35226953125,0.16828326751887798,0.12561317870491184,-0.05560103732123971
1772094075684218400,7.36221826171875,0.06771101570129394,0.129007725647185,-0.011988690087944268
1772094075694168600,7.37216845703125,-0.007597031000256538,0.06365593162421136,0.05898921845480799
1772094075704117500,7.382117431640625,-0.013819851037859916,-0.013316360778419765,0.10181377631127833
1772094075714066400,7.39206640625,0.044975452280044556,-0.045037959589622915,0.0905665522404015
1772094075724015400,7.402015380859375,0.07726502598822116,-0.02633903812317876,0.05301029017567634
1772094075733964500,7.411964599609375,0.08663608092367649,-0.0037865921668941154,0.0015288170024752616
1772094075743913700,7.421913818359375,0.07467676306068897,0.041378829727298574,-0.05081979439407587
1772094075753863000,7.43186279296875,0.05454056848287582,0.0465531316592358,-0.08515650989040732
1772094075763811800,7.441811767578125,-0.020890227815508842,0.023142696617147882,-0.0798211402118206
1772094075773760800,7.4517607421875,-0.06368716701269149,-0.02655931154404534,-0.030286417192220687
1772094075783709700,7.461709716796875,-0.07180033084154129,-0.06335143225230276,0.028875819741934535
1772094075793659600,7.47165966796875,-0.007356792503595352,-0.05400142010487616,0.03896525207981467
1772094075803608600,7.481608642578125,0.0539314966738224,-0.030532950715639162,0.029227263528108595
1772094075813557800,7.491557861328125,0.1444575707733631,-0.02103473486971343,0.010777560732513666
1772094075823507000,7.5015068359375,0.1850479398369789,0.0063993798976182,-0.043287353062629694
1772094075833456600,7.51145654296875,0.13821663055717945,0.03461594571295427,-0.06900047098994255
1772094075843405800,7.52140576171875,0.07232756958603859,0.03534034643078921,-0.0563267212472856
1772094075853354800,7.531354736328125,0.023239421290159223,0.011105753790552262,-0.031247371178865432
1772094075863303700,7.5413037109375,0.029230770659446716,-0.025151522538776044,0.012481149780005215
1772094075873252600,7.551252685546875,0.06053191785216331,-0.07221500345650128,0.03451733276024461
1772094075883202800,7.561202880859375,0.0695510906100273,-0.09341708283331245,0.039153760389238595
1772094075893151700,7.57115185546875,0.06213058522045612,-0.061837484025396405,0.02403378653824329
1772094075903100700,7.5811005859375,0.08081716551184653,-0.03354929144568741,-0.0069105100408196445
1772094075913049600,7.591049560546875,0.07369651985168457,0.003979269761359319,-0.06590805793255568
1772094075922999800,7.600999755859375,0.01787175677716732,0.08974754574140534,-0.10134016745015978
1772094075932948700,7.61094873046875,-0.07740823385119437,0.12190936488406733,-0.08646379309669136
1772094075942898000,7.62089794921875,-0.09625672670602797,0.0486284537956817,-0.014821867687255142
1772094075952846800,7.630846923828125,-0.0419061278373003,-0.06900982334017754,0.055967532546073194
1772094075962795800,7.640795654296875,0.010277063864469528,-0.11249004122694023,0.08810001599639654
1772094075972745700,7.650745849609375,0.07875321871936321,-0.06895484631650615,0.04231105537638068
1772094075982695000,7.66069482421875,0.17060557298660278,0.007376034918538062,-0.05292728806734085
1772094075992643800,7.670643798828125,0.18965514137148856,0.07057966647278517,-0.12895721930265425
1772094076002592800,7.6805927734375,0.15375965212583542,0.0725197859562002,-0.10851166651472449
1772094076012541700,7.690541748046875,0.10638239940106868,0.032558319063403174,-0.06488222201615572
1772094076022491600,7.70049169921875,0.047369069418311115,-0.035231739523739085,-0.026684447177499532
1772094076032440600,7.710440673828125,0.027017770785093306,-0.09207666454240679,0.012351385920494794
1772094076042389500,7.720389404296875,0.040138533642888066,-0.08979348550867289,-0.0010088847815990446
1772094076052339000,7.7303388671875,0.08779518783092498,-0.05927006752307061,-0.02639496271163225
1772094076062288000,7.740287841796875,0.1344838737696409,-0.023194782997411675,-0.04313844611123204
1772094076072237800,7.75023779296875,0.1382657303959131,-0.015063936239754548,-0.041055063965916634
1772094076082186800,7.760186767578125,0.08238134608864783,0.02319360025390051,-0.05156579045578837
1772094076092135700,7.7701357421875,0.008896423161029815,0.04857753645919729,-0.05778744144961238
1772094076102084600,7.780084716796875,-0.0022568390160799027,0.021642852264118845,-0.01675400479361415
1772094076112034800,7.790034912109375,0.026605098330974578,-0.016330281222518533,-0.02092266878038645
1772094076121983700,7.799983642578125,0.03874678702354431,-0.06399724217543844,-0.03499327970892191
1772094076131932700,7.8099326171875,0.03321896351277828,-0.08935588867585174,-0.011284195080399512
1772094076141881600,7.819881591796875,0.03108838122487068,-0.07652260555650572,0.004632335975766182
1772094076151830800,7.829830810546875,0.050019876188039776,-0.04876888974625617,-0.015622662676125764
1772094076161780700,7.83978076171875,0.07135784777104855,-0.0236295302860206,-0.06362769191041588
1772094076171730000,7.84972998046875,-0.0029740473747253415,0.01847951227032463,-0.09433408808037638
1772094076181678800,7.859678955078125,-0.0061836570709943766,0.008182713942212285,-0.0987000282049179
1772094076191627800,7.869627685546875,0.014818798947334288,-0.05538015654559712,-0.08082038038223982
1772094076201576700,7.87957666015625,-0.004109773406386375,-0.10215184002607129,-0.04871960724443197
1772094076211526700,7.889526611328125,0.0013759645283222197,-0.07493541856345254,-0.040986528774350876
1772094076221475800,7.899475830078125,0.02470189505815506,-0.05013213635690044,-0.06055500646680593
1772094076231424800,7.9094248046875,0.08752689228355884,-0.03391597390018869,-0.06369841905906796
1772094076241373700,7.919373779296875,0.158277421811223,-0.016448741661658276,-0.08349675998464226
1772094076251323600,7.92932373046875,0.1631757152467966,0.0028579815345379754,-0.09021452393233775
1772094076261272600,7.9392724609375,0.11335633006691932,0.04454567342749797,-0.08790098629295826
1772094076271221800,7.9492216796875,0.0448690692961216,0.04057982027013786,-0.059435062526166434
1772094076281171000,7.9591708984375,0.04155658374726772,-0.00932718268604367,-0.007935761435329914
1772094076291119900,7.969119873046875,0.0788888277977705,-0.07521363271663431,-0.007423281868547201
1772094076301069800,7.97906982421875,0.10242810881733894,-0.08646708103232086,-0.01982055275738239
1772094076311018800,7.989018798828125,0.09156652306318283,-0.035199622785847165,-0.042581104489415884
1772094076320967700,7.9989677734375,0.06958323931396007,0.0172916416345397,-0.050124213345348834
1772094076330916600,8.00891650390625,0.0772679485976696,0.046332068220502697,-0.04033405621498823
1772094076340865800,8.01886572265625,0.043804070413112635,0.06432509502347093,-0.03816737970039248
1772094076350815700,8.028815673828126,0.010831775137782097,0.04612108321778942,-0.02926598810330033
1772094076360764700,8.0387646484375,-0.047129415443539616,0.021314583857555407,0.0018045652039349078
1772094076370713600,8.048713623046876,-0.08323591709136963,0.015030957560404203,0.03518748710677028
1772094076380662800,8.058662841796876,-0.02225800903737545,0.002539335477090208,0.018080284961313007
1772094076390611700,8.06861181640625,0.0957505307495594,0.0007716465261997655,0.006181757374852896
1772094076400562000,8.07856201171875,0.19532909535467624,0.005298388394265202,0.018029723817855118
1772094076410510800,8.0885107421875,0.2730605698108673,0.0135670476038591,-0.005900163954496383
1772094076420459800,8.098459716796874,0.2947936781913042,0.027501480915118007,-0.01765080750286579
1772094076430408700,8.10840869140625,0.2450315761566162,0.041433007599948904,-0.02438230771496892
1772094076440358700,8.118358642578125,0.11492518681883811,0.05372251639852765,-0.04612856783792376
1772094076450307800,8.128307861328125,-0.049022097322344776,0.07219760479712858,-0.020893296555429697
1772094076460256800,8.1382568359375,-0.1408855575054884,0.056702463791077025,0.008232552424818277
1772094076470205700,8.148205810546875,-0.1579208634585142,-0.017868433450564044,0.03038870852291584
1772094076480155000,8.15815478515625,-0.12642273238897322,-0.06977809973235707,0.03583513736054301
1772094076490104600,8.1681044921875,-0.026574703192710873,-0.06014904688126407,0.0006504267327487468
1772094076500053800,8.1780537109375,0.06602583909332752,-0.04359045506189577,-0.019729221212118862
1772094076510003000,8.1880029296875,0.1292085637152195,-0.004059400063418434,-0.04985021870955825
1772094076519952000,8.197951904296875,0.15194938783347606,0.0123682571401936,-0.055410775446146726
1772094076529900800,8.20790087890625,0.12188625800311564,-0.012087905828852672,-0.05530702281072736
1772094076539850800,8.217850830078126,0.061571782293915744,-0.040696044228062965,-0.06091039577573538
1772094076549799700,8.227799560546876,0.026063246539235113,-0.0542662678864086,-0.04685425176396966
1772094076559748600,8.23774853515625,0.0412871191561222,-0.05601455459215212,-0.04727583817690611
1772094076569697800,8.24769775390625,0.08296294536888599,-0.05051727691669948,-0.0540678364045918
1772094076579647700,8.257647705078124,0.08861001134514808,-0.014142220568243645,-0.04386617586389184
1772094076589596700,8.2675966796875,0.047158641538023946,-0.010777486525633139,0.0025083295591175553
1772094076599545600,8.277545654296874,0.03825695767998695,-0.019895768851484173,0.019662293455749748
1772094076609494800,8.287494873046874,0.01919628337919712,-0.01249452528480906,-0.004819090719521045
1772094076619443700,8.297443603515624,-0.02596153973042965,0.0015511966559977736,-0.012066723760217427
1772094076629394000,8.307393798828125,-0.015292261677980422,0.005640560886950697,-0.014428776716440916
1772094076639342800,8.3173427734375,0.03534720771312713,-0.01696503203716711,-0.0090441610686481
1772094076649291800,8.327291748046875,0.07392682147622108,0.0022850947128958067,-0.006683715547621249
1772094076659240700,8.33724072265625,0.10194354017078876,0.037246104703587475,-0.0058376201122999185
1772094076669189600,8.347189697265625,0.13272680096924305,0.08110783728780224,-0.01974588008597493
1772094076679139800,8.357139892578125,0.1779763940155506,0.08664311345266178,-0.04417904120534658
1772094076689088800,8.3670888671875,0.18937983156144617,0.043548168556438754,-0.06148176592290401
1772094076699037700,8.37703759765625,0.08193652493059635,0.0376537676224485,-0.0583776624277234
1772094076708987000,8.38698681640625,0.023853753796219825,0.015196313323103823,-0.02129310952797532
1772094076718935800,8.396935791015625,0.028033085307478903,-0.025654108615918082,-0.0019281915836036204
1772094076728885800,8.4068857421875,0.07121463990807533,-0.015383440242905635,-0.024988310784101485
1772094076738835000,8.4168349609375,0.08360065875053405,0.015603550408635055,-0.07326748078465462
1772094076748783900,8.426783935546876,0.0751806209295988,0.050902906100265675,-0.08418240416124463
1772094076758732800,8.43673291015625,0.08880816426575183,0.080307864282839,-0.08320771391019224
1772094076768682800,8.446682861328124,0.09686229138374328,0.05787237978670746,-0.05989435060098767
1772094076778631700,8.456631591796874,0.11166823084950446,0.003132563546329038,-0.012195464706420897
1772094076788580900,8.466580810546875,0.07634966470897198,-0.03392384896267904,0.0024649288088083266
1772094076798529800,8.47652978515625,0.08537526720762252,-0.04837624173343647,0.014362433481961487
1772094076808478700,8.486478759765625,0.03243511965870857,-0.013511482633365084,-0.02727101489380002
1772094076818428700,8.4964287109375,0.026885668838024138,0.0024672965791192837,-0.042881256479769946
1772094076828377600,8.506377685546875,0.002928454667329788,-0.010905908953072502,-0.04654153255298733
1772094076838326800,8.516326904296875,-0.026870471268892287,-0.02797471075032372,-0.06611775516048074
1772094076848276000,8.52627587890625,-0.033873043507337566,-0.0434360682177823,-0.06380304847732186
1772094076858225000,8.536224853515625,-0.04306757283210754,-0.05877133792042732,-0.054244654276221986
1772094076868174800,8.5461748046875,0.017384850043058394,-0.05312804393698461,-0.04153597935065627
1772094076878123800,8.556123779296875,0.07444529239237307,-0.04819745566700585,-0.03536488950029015
1772094076888072700,8.56607275390625,0.12373860787153243,-0.025571414751547852,-0.031048925997316835
1772094076898021600,8.576021728515625,0.11537936032712459,-0.02339627408599481,-0.04198094663918018
1772094076907970800,8.585970703125,0.06972235552370548,-0.03478979987594066,-0.03118599638044834
1772094076917920800,8.595920654296876,0.0374707757383585,-0.016329893063451163,-0.000017389526218175888
1772094076927869700,8.60586962890625,0.02370528523623943,0.014609062903502489,-0.0007625088050961494
1772094076937819000,8.61581884765625,0.028738018706440924,0.016457316552114205,-0.015658318511396645
1772094076947767800,8.625767822265624,0.06517185261249542,-0.01055986514451215,0.0010169219575822354
1772094076957718000,8.635718017578125,0.12369476872980593,-0.059486884044948965,0.011163052918761967
1772094076967667000,8.6456669921875,0.14376257424652575,-0.08590663413796573,0.021480887185037136
1772094076977616000,8.655615966796875,0.11791092463135719,-0.07237239510845392,0.0017205401822924613
1772094076987564800,8.665564697265625,0.08849544505476951,-0.056737923263525586,-0.010806056174635887
1772094076997513700,8.675513671875,0.09560030862390995,-0.03121236151427729,-0.013403233060985802
1772094077007463700,8.685463623046875,0.08773381303250789,0.010817885893036144,-0.04704378298670053
1772094077017412900,8.695412841796875,0.04341653240025043,0.05231098279990255,-0.0754728818744421
1772094077027361800,8.70536181640625,-0.06072597911953926,0.07931966609624214,-0.11328107287362217
1772094077037310700,8.715310791015625,-0.08640344121158122,0.01092939714322565,-0.04164060876891017
1772094077047260000,8.725260009765625,-0.08828735526204108,-0.061489026780752465,0.02717822204381227
1772094077057209900,8.7352099609375,-0.027416414713859555,-0.09732379881511442,0.038523645792156454
1772094077067158800,8.74515869140625,0.09132219291329384,-0.07989735638634302,0.024632336953282354
1772094077077108000,8.75510791015625,0.22633038281798362,-0.05004162222896702,0.002857435257732868
1772094077087057000,8.765056884765626,0.2738222018331289,-0.0194092708260403,-0.054809886943548915
1772094077097005800,8.775005859375,0.23561843564510343,0.0016912501557264476,-0.07760857872888445
1772094077106955800,8.784955810546874,0.12007716275453567,0.06118988857055083,-0.09951602076292038
1772094077116904700,8.79490478515625,-0.043840895292162896,0.08804520793608389,-0.08093626184687018
1772094077126853600,8.804853515625,-0.14212123678028582,0.01430250172195956,0.025620471207797525
1772094077136802600,8.814802490234374,-0.1345849960565567,-0.0563374983696267,0.09309899332746863
1772094077146752000,8.824751953125,-0.05599485894441604,-0.07767872135564684,0.061497840274870395
1772094077156701700,8.83470166015625,0.049501405271887775,-0.05156891399463638,-0.002753536491841078
1772094077166651000,8.84465087890625,0.12277122414410113,-0.009492909483145922,-0.045654812846332785
1772094077176599800,8.854599853515625,0.1315261930078268,0.0196423831788823,-0.03914177769050002
1772094077186548700,8.864548828125,0.13188099779486656,0.04549585942495614,-0.014772913978993892
1772094077196499000,8.8744990234375,0.16603870346248148,0.0436274443377275,0.03299976780414581
1772094077206447900,8.88444775390625,0.17280980503261087,0.025489106762956362,0.06340820394083857
1772094077216396800,8.894396728515625,0.13618775507807732,-0.0008825298720155843,0.04431304284855723
1772094077226345700,8.904345703125,0.09176175337433815,-0.004783695179154165,-0.016535101345926524
1772094077236294700,8.914294677734375,0.012233458629250526,0.008312828286527655,-0.05464242142215371
1772094077246244600,8.92424462890625,-0.04597732279896736,0.007084252322663087,-0.05021349906399846
1772094077256193800,8.93419384765625,-0.05964753623306751,0.009029433856974356,-0.03210939483568072
1772094077266142700,8.944142822265626,-0.03215980984866619,-0.0036000977180432525,-0.028514439083635806
1772094077276092000,8.954091796875,0.00037467853128910064,-0.03807628790043527,0.013173515958338974
1772094077286040800,8.964040771484376,-0.04595744905471801,-0.049751735904300584,0.011984013912826776
1772094077295990800,8.97399072265625,-0.0790671069741249,-0.06067116192607209,0.02044277630895376
1772094077305939700,8.983939697265624,-0.01649754581451416,-0.02171593576663872,-0.0008835048362612724
1772094077315889000,8.993888916015624,0.08562368901073932,0.007017762957711238,-0.06986673243045806
1772094077325837800,9.003837890625,0.20090075800716875,-0.006831149777851533,-0.08024228823333979
1772094077335786800,9.013786865234374,0.2655634920537472,-0.035210863415780475,-0.02981090863496065
1772094077345736700,9.02373681640625,0.22861995505988597,-0.03527129293270409,-0.009615385085344314
1772094077355685600,9.033685546875,0.10092764112651348,0.02560260675754398,-0.042862697909772395
1772094077365634600,9.043634521484375,0.036462475478649135,0.04830361945522017,-0.045620179924368856
1772094077375584000,9.053583984375,0.014390344402194022,-0.06979814243996516,0.02168020914942026
1772094077385533000,9.063532958984375,0.04038929353356361,-0.0899468129068613,0.004270809186995029
1772094077395483000,9.07348291015625,0.10701485208570957,-0.046521654242160725,-0.018455694144964216
1772094077405431800,9.083431884765625,0.15034604429006576,-0.013134460306295658,-0.08035086317434907
1772094077415380700,9.093380615234375,0.1437871241658926,-0.02316656839979114,-0.10885215051546693
1772094077425329700,9.10332958984375,0.08005845609903335,-0.03379817903968505,-0.10478884659931063
1772094077435280000,9.11327978515625,-0.01686345651745796,-0.012097418009291868,-0.0697258626550436
1772094077445228800,9.123228759765626,-0.05427694911062717,0.0042999188337591475,-0.038769437246769664
1772094077455177700,9.133177734375,-0.06338087754249572,-0.00942768277680734,-0.03640826107338071
1772094077465126700,9.143126708984376,-0.03628653438985348,-0.039558888857718556,-0.0061836570709943766
1772094077475075800,9.153075927734376,-0.039815293037891386,-0.06431653269110248,0.038037323579937214
1772094077485025800,9.16302587890625,0.016938275319337844,-0.0382505644718185,0.06388780415132642
1772094077494975000,9.17297509765625,0.08937398145496844,-0.015559986403188668,0.0422970268510282
1772094077504924000,9.182923828125,0.18800795868635176,0.0077625625761807895,0.011547083800286054
1772094077514872800,9.192872802734374,0.23599895939528942,0.03923320970046334,-0.035505467014759776
1772094077524821800,9.20282177734375,0.21429916876256463,0.01895070427042665,-0.03454480528905988
1772094077534771700,9.212771728515625,0.10636077209115027,0.04034018456167541,-0.04754997894316911
1772094077544721000,9.222720947265625,-0.04200491203665733,0.03466359566340688,-0.04403291073292494
1772094077554669800,9.232669921875,-0.1360147365987301,0.018488863478915298,-0.006640022536367178
1772094077564618800,9.24261865234375,-0.1304845750004053,-0.03211687945581507,0.0014697802916169166
1772094077574567700,9.252567626953125,-0.061383566245436665,-0.09551221934850328,-0.0027189035698771476
1772094077584517600,9.262517578125,0.029351766690611836,-0.1020308896606788,-0.005065320565551519
1772094077594466600,9.272466552734375,0.11909282789230347,-0.06352082486930304,-0.034828882927447555
1772094077604416000,9.282416015625,0.24211948810219763,0.0033876993596670215,-0.0695044749893248
1772094077614365000,9.292364990234375,0.338886502417922,0.011840045714739244,-0.09733794607147574
1772094077624313900,9.30231396484375,0.30913141562342644,-0.02833497031390434,-0.09815817641317844
1772094077634263800,9.312263916015626,0.19096330136060713,-0.02634297907935688,-0.07305515320822596
1772094077644212700,9.322212646484376,0.030099954709410667,-0.015758463550778104,-0.028976357506960627
1772094077654161700,9.33216162109375,-0.06261398482322693,-0.025611644013947804,0.013892624013125895
1772094077664110800,9.34211083984375,-0.04147416616082191,-0.011653069491987116,-0.002624649415165186
1772094077674059800,9.352059814453124,-0.04536065220534801,-0.010290233873296528,-0.03271320594772696
1772094077684009700,9.362009765625,-0.029767946276068685,-0.021754100936115718,-0.026240941193699834
1772094077693958700,9.371958740234374,-0.002691138780117035,-0.06314357078843749,-0.003230652484297752
1772094077703907800,9.381907958984375,0.07001110933721065,-0.035684335279581134,-0.035753888817876577
1772094077713856800,9.391856689453125,0.11609013894498348,-0.013557720369799062,-0.05346782468482852
1772094077723807000,9.401806884765625,0.11633446909487247,0.010161155000375583,-0.03916311273947358
1772094077733756000,9.411755859375,0.07698679356873035,-0.0026246905143605544,-0.023037322846800087
1772094077743704000,9.4217041015625,0.01715454841852188,-0.02869722547174897,0.0020271219134330746
1772094077753653000,9.431653076171875,-0.025867431706190106,-0.05314939725226722,0.04713511453196406
1772094077763602000,9.441601806640625,-0.006934767699241637,-0.010828222340671345,0.0014247721061110496
1772094077773552000,9.45155224609375,0.032843700459599494,0.034541394055844284,-0.01691197183430195
1772094077783501000,9.4615009765625,0.11309914043545723,0.08112045930735766,-0.016463351283967493
1772094077793450200,9.4714501953125,0.11479250034987926,0.008487084308313205,0.0022267361387610434
1772094077803399200,9.481399169921875,0.04916004448831081,0.015019874477386473,0.03854410405829549
1772094077813348000,9.49134814453125,0.005714870515465736,-0.03993415647747461,0.04959595168754458
1772094077823298300,9.50129833984375,-0.013986439776420593,-0.07607324065407738,-0.0007094634436070918
1772094077833247200,9.511247314453126,-0.11325111612677574,-0.04054064817037433,-0.061629649960994716
1772094077843196200,9.521196044921876,-0.18072890759408472,-0.04179064366489183,-0.0026607436418533323
1772094077853145000,9.53114501953125,-0.09144085085690021,0.0010746069615706802,0.016119067890942095
1772094077863094000,9.541093994140626,0.01622398957014084,0.04397042625623289,-0.023823504788428543
1772094077873044000,9.5510439453125,0.14255670558810232,0.051611903752991926,-0.0342857159614563
1772094077882993200,9.5609931640625,0.1636070924013853,0.0816073660414666,-0.07363719087988138
1772094077892942000,9.570942138671874,0.20301906533539293,0.019230108016985468,-0.14895722028017044
1772094077902891300,9.580891357421875,0.28786475571095943,-0.02231018218260724,-0.15716083887144922
1772094077912840200,9.590840087890625,0.2336988657593727,-0.0023039706600131464,-0.07263502810001372
