time,seconds_elapsed,z,y,x
1772094068401385700,0.0793857421875,0.006914146244525909,0.06325230747461319,0.07043419033288956
1772094068411334700,0.089334716796875,-0.004407750442624092,0.03262249380350113,0.07684974372386932
1772094068421283800,0.099283935546875,-0.005584726110100746,0.011835526674985886,0.0700959712266922
1772094068431232800,0.109232666015625,-0.008875328116118908,0.007518809288740158,0.046907566487789154
1772094068441181700,0.119181640625,-0.003955947235226631,0.007331091910600662,0.023445943370461464
1772094068451132000,0.1291318359375,0.004697462078183889,0.008360403589904308,0.001180051825940609
1772094068461080800,0.139080810546875,0.007669426035135984,0.01999070681631565,-0.01590990088880062
1772094068471029800,0.14902978515625,0.012174693867564201,0.038980912417173386,-0.024556118994951248
1772094068480978700,0.158978759765625,0.005782306659966707,0.04072096198797226,-0.019832663238048553
1772094068490928600,0.1689287109375,0.007033460307866335,0.04686993360519409,-0.012829882092773914
1772094068500877800,0.1788779296875,0.0019720816053450108,0.0489053800702095,-9.723007678985596e-7
1772094068510826800,0.18882666015625,-0.0015081369783729315,0.05532120168209076,0.008521143347024918
1772094068520775700,0.198775634765625,-0.0007517680060118437,0.05042433738708496,0.015177661553025246
1772094068530724900,0.208724853515625,0.004024877678602934,0.04534329101443291,0.022996703162789345
1772094068540674600,0.218674560546875,-0.001185850240290165,0.0340205617249012,0.00967394933104515
1772094068550623700,0.228623779296875,0.003607040736824274,0.014584546908736229,-0.0036269421689212322
1772094068560573000,0.238572998046875,-0.0028640904929488897,-0.004044399131089449,-0.019822431728243828
1772094068570521900,0.24852197265625,-0.011681817471981049,-0.010884728282690048,-0.03136377036571503
1772094068580471800,0.258471923828125,-0.01803683489561081,-0.011461114510893822,-0.02834116294980049
1772094068590420700,0.268420654296875,-0.02658132091164589,-0.012118648737668991,-0.013485253788530827
1772094068600369700,0.27836962890625,-0.02306363359093666,-0.015519959852099419,-0.004074359778314829
1772094068610318600,0.288318603515625,-0.014330597594380379,-0.012585688382387161,0.006695996038615704
1772094068620267500,0.298267578125,-0.0016694373916834593,-0.010495440103113651,0.005636062007397413
1772094068630217700,0.3082177734375,-0.000032658688724040985,-0.0075121670961380005,-0.003832274116575718
1772094068640166700,0.318166748046875,0.005333858076483011,-0.005991736892610788,-0.00792074017226696
1772094068650115800,0.32811572265625,0.002903456799685955,-0.004728333558887243,-0.008204100653529167
1772094068660064800,0.338064697265625,-0.0006985918153077364,-0.01957523450255394,0.0008726464584469795
1772094068670013700,0.348013671875,0.001766163855791092,-0.030392460525035858,0.004519312642514706
1772094068679964000,0.3579638671875,0.007308031897991896,-0.03606702759861946,-0.0005183541215956211
1772094068689912800,0.367912841796875,0.015516428276896477,-0.041933704167604446,-0.00943541619926691
1772094068699861800,0.37786181640625,0.01719709485769272,-0.044325463473796844,-0.016507219523191452
1772094068709810700,0.387810791015625,0.021154288202524185,-0.04880063980817795,-0.023973658680915833
1772094068719760600,0.3977607421875,0.018669774755835533,-0.04174584150314331,-0.02810034714639187
1772094068729709300,0.407709228515625,0.018080683425068855,-0.036181699484586716,-0.02762097679078579
1772094068739658500,0.417658447265625,0.012162748724222183,-0.03716738149523735,-0.028660515323281288
1772094068749607700,0.427607666015625,0.01220003142952919,-0.03362937271595001,-0.03005707450211048
1772094068759556600,0.437556640625,0.011348841711878777,-0.030045943334698677,-0.023164205253124237
1772094068769506600,0.447506591796875,0.018995311111211777,-0.03314480185508728,-0.023410283029079437
1772094068779455500,0.45745556640625,0.020480560138821602,-0.04073634743690491,-0.028095118701457977
1772094068789404400,0.467404296875,0.021266724914312363,-0.04124660789966583,-0.03202487900853157
1772094068799353600,0.477353515625,0.015827331691980362,-0.045422255992889404,-0.030411554500460625
1772094068809302500,0.487302490234375,0.005341667216271162,-0.06061718612909317,-0.029921533539891243
1772094068819252500,0.49725244140625,-0.007348461076617241,-0.06290794163942337,-0.03160255029797554
1772094068829201400,0.507201416015625,-0.026204705238342285,-0.06871149688959122,-0.029574818909168243
1772094068839150300,0.517150390625,-0.05651062726974487,-0.08820027112960815,-0.02715848758816719
1772094068849099500,0.527099609375,-0.08075125515460968,-0.0992414727807045,-0.026635173708200455
1772094068859049500,0.537049560546875,-0.10247177630662918,-0.12068963050842285,-0.053237684071063995
1772094068868998400,0.546998291015625,-0.1250186264514923,-0.12098923325538635,-0.08271487802267075
1772094068878947600,0.556947509765625,-0.13431057333946228,-0.12875251471996307,-0.10450995713472366
1772094068888896500,0.566896484375,-0.13991013169288635,-0.12012280523777008,-0.11266881972551346
1772094068898845400,0.576845458984375,-0.13801197707653046,-0.08419444411993027,-0.12204794585704803
1772094068908795600,0.586795654296875,-0.144245907664299,-0.05966699495911598,-0.07998199015855789
1772094068918744600,0.59674462890625,-0.14055350422859192,-0.051846008747816086,0.010417496785521507
1772094068928693500,0.606693603515625,-0.12987875938415527,-0.04768535494804382,0.09515182673931122
1772094068938642400,0.616642333984375,-0.12455489486455917,-0.02815103903412819,0.16159285604953766
1772094068948591400,0.62659130859375,-0.11224895715713501,-0.05997341871261597,0.2057368904352188
1772094068958541300,0.636541259765625,-0.09962313622236252,-0.0699702650308609,0.21286475658416748
1772094068968490500,0.646490478515625,-0.10423146933317184,-0.04114368557929993,0.17768573760986328
1772094068978439700,0.656439697265625,-0.10562621802091599,0.01919371634721756,0.12156940996646881
1772094068988388600,0.666388671875,-0.08456967025995255,0.0929049551486969,0.0778253898024559
1772094068998338600,0.676338623046875,-0.09680121392011642,0.07765200734138489,0.08641812950372696
1772094069008287500,0.68628759765625,-0.10845120996236801,0.06050018221139908,0.1235191598534584
1772094069018236400,0.696236328125,-0.0863814577460289,0.05424032360315323,0.11679277569055557
1772094069028185600,0.706185546875,-0.0712837278842926,0.07006002962589264,0.09545046836137772
1772094069038134500,0.716134521484375,-0.05265491455793381,0.050743382424116135,0.11134494096040726
1772094069048084500,0.72608447265625,-0.021273819729685783,-0.07581642270088196,0.15364019572734833
1772094069058033400,0.736033447265625,0.00004094606265425682,-0.13414274156093597,0.20288507640361786
1772094069067982300,0.745982421875,-0.0025420538149774075,-0.1893324851989746,0.1959209144115448
1772094069077931500,0.755931640625,-0.0370648093521595,-0.13760614395141602,0.14744415879249573
1772094069087881500,0.765881591796875,-0.037162281572818756,-0.05668705701828003,0.059770241379737854
1772094069097830700,0.77583056640625,-0.0256790854036808,-0.03607097640633583,-0.0033798119984567165
1772094069107779600,0.785779541015625,-0.02543460763990879,-0.024491552263498306,0.0010543507523834705
1772094069117728500,0.795728515625,-0.01375100202858448,-0.06565898656845093,0.040347471833229065
1772094069127677400,0.805677490234375,-0.005243001040071249,-0.1094735786318779,0.08642628788948059
1772094069137627600,0.815627685546875,0.0003396151587367058,-0.16828489303588867,0.12406433373689651
1772094069147576600,0.82557666015625,0.014679672196507454,-0.15594381093978882,0.1503252238035202
1772094069157525500,0.835525390625,0.004264295566827059,-0.1251131296157837,0.11088288575410843
1772094069167474400,0.845474365234375,0.0038427175022661686,-0.06665488332509995,0.058188244700431824
1772094069177424400,0.85542431640625,0.008779266849160194,-0.026269393041729927,0.01028401218354702
1772094069187373300,0.865373291015625,0.010085280984640121,0.0070177242159843445,-0.023932546377182007
1772094069197322500,0.875322509765625,0.018170706927776337,0.036625511944293976,-0.04402086138725281
1772094069207271700,0.885271728515625,0.012674742378294468,0.04051106423139572,-0.05083136260509491
1772094069217220600,0.895220703125,0.005789265036582947,0.027456559240818024,-0.048624828457832336
1772094069227170600,0.905170654296875,-0.004353916272521019,0.024274613708257675,-0.040549326688051224
1772094069237119500,0.915119384765625,-0.006749420426785946,0.015832513570785522,-0.020025819540023804
1772094069247068400,0.925068359375,0.0033394326455891132,-0.0049433400854468346,0.00035774940624833107
1772094069257017600,0.935017578125,0.007838165387511253,-0.02345418743789196,0.026691529899835587
1772094069266967600,0.944967529296875,0.015744024887681007,-0.027867579832673073,0.04689613729715347
1772094069276916500,0.95491650390625,0.01476593129336834,-0.02212262712419033,0.035869959741830826
1772094069286865400,0.964865478515625,0.0025406917557120323,0.023516230285167694,0.0045796833001077175
1772094069296814300,0.974814453125,0.00459320517256856,0.042135898023843765,-0.04299257695674896
1772094069306763500,0.984763427734375,0.008114170283079147,0.056882087141275406,-0.06468988955020905
1772094069316713500,0.99471337890625,0.011090373620390892,0.060697849839925766,-0.07789392024278641
1772094069326662700,1.00466259765625,0.012280807830393314,0.06868040561676025,-0.08133206516504288
1772094069336611600,1.014611572265625,0.017310593277215958,0.06966520100831985,-0.07947833836078644
1772094069346560500,1.024560546875,0.016216300427913666,0.06809606403112411,-0.06334198266267776
1772094069356509400,1.034509521484375,0.017706725746393204,0.05137645825743675,-0.03789610415697098
1772094069366459600,1.044459716796875,0.013249658048152924,0.0318690724670887,-0.007580541539937258
1772094069376408600,1.05440869140625,0.008700985461473465,0.014150056056678295,0.011817587539553642
1772094069386357500,1.064357421875,0.005771774798631668,0.010039467364549637,0.0049913725815713406
1772094069396306400,1.074306396484375,0.004038546700030565,0.024897120893001556,-0.025089487433433533
1772094069406256400,1.08425634765625,-0.005659620743244886,0.046294551342725754,-0.057962484657764435
1772094069416205300,1.094205322265625,-0.0088026262819767,0.05087922140955925,-0.08020176738500595
1772094069426154500,1.104154541015625,-0.011592021211981773,0.05498421564698219,-0.0948648676276207
1772094069436103700,1.114103759765625,-0.01844937354326248,0.05989736691117287,-0.09808947890996933
1772094069446052600,1.124052490234375,-0.02522791549563408,0.05414653941988945,-0.08190545439720154
1772094069456002600,1.13400244140625,-0.022549204528331757,0.0325268879532814,-0.04623357206583023
1772094069465951500,1.143951416015625,-0.011724252253770828,0.012801386415958405,-0.008452637121081352
1772094069475900400,1.153900390625,-0.005176899489015341,0.00506466394290328,0.007746053393930197
1772094069485849300,1.163849365234375,0.0024645086377859116,0.010571548715233803,0.011955978348851204
1772094069495799600,1.173799560546875,-0.0007557575590908527,0.024668965488672256,0.005124690476804972
1772094069505748500,1.18374853515625,-0.00668049231171608,0.05054237321019173,0.00405836058780551
1772094069515697400,1.193697509765625,-0.004606441128998995,0.042567092925310135,0.004410908557474613
1772094069525646300,1.203646240234375,0.0040600174106657505,0.033171191811561584,-0.0020539150573313236
1772094069535595500,1.213595458984375,0.004725075326859951,0.04151550307869911,-0.01807984709739685
1772094069545545500,1.22354541015625,0.0009119613096117973,0.027163997292518616,-0.024127885699272156
1772094069555494700,1.23349462890625,-0.008259449154138565,0.01849469728767872,-0.038454145193099976
1772094069565443600,1.243443603515625,-0.00895639881491661,0.029887966811656952,-0.07123792916536331
1772094069575392500,1.253392578125,-0.007874132134020329,0.030571209266781807,-0.10050491988658905
1772094069585342500,1.263342529296875,-0.007768138311803341,0.040727175772190094,-0.13437606394290924
1772094069595291600,1.273291748046875,-0.005193871911615133,0.08149908483028412,-0.16359995305538177
1772094069605240600,1.283240478515625,0.010529431514441967,0.08833514899015427,-0.13537071645259857
1772094069615189500,1.293189453125,0.008925403468310833,0.050457749515771866,-0.06165913864970207
1772094069625138400,1.303138427734375,-0.009551075287163258,0.020247383043169975,0.01465001329779625
1772094069635088400,1.31308837890625,-0.03214237466454506,-0.014035753905773163,0.05459163337945938
1772094069645037300,1.323037353515625,-0.02474864199757576,0.025610992684960365,0.04060843959450722
1772094069654986500,1.332986572265625,-0.00989329069852829,0.02406662330031395,0.030643358826637268
1772094069664935700,1.342935791015625,0.0009724060073494911,0.015870478004217148,0.030010592192411423
1772094069674885600,1.3528857421875,0.004976547788828611,0.030515387654304504,0.015372445806860924
1772094069684834600,1.36283447265625,-0.00023126322776079178,0.0444951169192791,-0.003134926315397024
1772094069694783500,1.372783447265625,-0.009194664657115936,0.04215925931930542,-0.018264077603816986
1772094069704732400,1.382732421875,-0.017245134338736534,0.07126254588365555,-0.04151800274848938
1772094069714681300,1.392681396484375,-0.004122587852180004,0.07597233355045319,-0.07214637100696564
1772094069724631600,1.402631591796875,0.0007992004975676537,0.0625329539179802,-0.08641159534454346
1772094069734580500,1.41258056640625,-0.0011420082300901413,0.051346078515052795,-0.11337883025407791
1772094069744529400,1.422529296875,-0.010736046358942986,0.057471878826618195,-0.1497751921415329
1772094069754478300,1.432478271484375,-0.015286638401448727,0.07056885957717896,-0.18189303576946259
1772094069764428300,1.44242822265625,-0.012401902116835117,0.06965166330337524,-0.1736534833908081
1772094069774377500,1.45237744140625,-0.006042246241122484,0.05164496973156929,-0.10642989724874496
1772094069784326400,1.462326416015625,-0.0016243283171206713,0.01613091677427292,-0.015140729956328869
1772094069794275600,1.472275634765625,0.004792977124452591,-0.012071141041815281,0.05322856456041336
1772094069804225500,1.4822255859375,0.007651081308722496,-0.026462063193321228,0.10226508229970932
1772094069814174500,1.492174560546875,0.020213976502418518,-0.030979828909039497,0.10899064689874649
1772094069824123400,1.502123291015625,0.035068292170763016,-0.011952608823776245,0.08851572871208191
1772094069834072300,1.512072265625,0.04452991858124733,0.015594327822327614,0.06322862207889557
1772094069844021200,1.522021240234375,0.043848149478435516,0.045153021812438965,0.030788656324148178
1772094069853971500,1.531971435546875,0.02754928544163704,0.07156340032815933,0.0019180073868483305
1772094069863920400,1.54192041015625,0.012123191729187965,0.08206957578659058,-0.003130547236651182
1772094069873869300,1.551869384765625,0.006928069517016411,0.07549791783094406,-0.002709808759391308
1772094069883818500,1.561818603515625,0.012272766791284084,0.06794305890798569,0.016908898949623108
1772094069893768200,1.571768310546875,0.00874568335711956,0.051235780119895935,0.019672924652695656
1772094069903717600,1.581717529296875,0.013930058106780052,0.03767070546746254,0.01457936316728592
1772094069913666600,1.59166650390625,0.014565532095730305,0.012644571252167225,0.011605333536863327
1772094069923615500,1.601615478515625,0.01565130427479744,0.004607950337231159,0.0009516235440969467
1772094069933564400,1.611564453125,0.02643365040421486,-0.0060008736327290535,-0.021260540932416916
1772094069943514400,1.621514404296875,0.03216131031513214,-0.016977891325950623,-0.040562331676483154
1772094069953463300,1.63146337890625,0.03900136053562164,-0.04255616292357445,-0.05531663820147514
1772094069963412500,1.64141259765625,0.041651736944913864,-0.04894508421421051,-0.06114682927727699
1772094069973361400,1.651361328125,0.038584377616643906,-0.06601768732070923,-0.06230266019701958
1772094069983311400,1.661311279296875,0.035982999950647354,-0.0697607547044754,-0.04366878792643547
1772094069993260300,1.67126025390625,0.031293872743844986,-0.0769280418753624,-0.02428334951400757
1772094070003209500,1.68120947265625,0.037600237876176834,-0.07257696986198425,-0.008069491013884544
1772094070013158400,1.691158447265625,0.03670763224363327,-0.06497180461883545,-0.008897356688976288
1772094070023107600,1.701107666015625,0.03321223333477974,-0.04931747540831566,-0.0160205140709877
1772094070033057500,1.7110576171875,0.03032451495528221,-0.03719655051827431,-0.01973840408027172
1772094070043006500,1.72100634765625,0.03080521523952484,-0.02722647413611412,-0.012301793321967125
1772094070052955400,1.730955322265625,0.0369640477001667,-0.03183580935001373,0.010752055794000626
1772094070062904300,1.740904296875,0.0361616387963295,-0.036669980734586716,0.034647002816200256
1772094070072854500,1.7508544921875,0.028544824570417404,-0.03712872043251991,0.045269861817359924
1772094070082803500,1.760803466796875,0.02321743592619896,-0.032806407660245895,0.039789874106645584
1772094070092752400,1.77075244140625,0.025477617979049683,-0.028099393472075462,0.021766744554042816
1772094070102701300,1.780701416015625,0.02991178072988987,-0.02225508727133274,0.0015714620240032673
1772094070112651300,1.7906513671875,0.027767030522227287,-0.012159023433923721,-0.017280427739024162
1772094070122600200,1.80060009765625,0.026806160807609558,-0.011156609281897545,-0.025064313784241676
1772094070132549600,1.810549560546875,0.030734263360500336,-0.021639324724674225,-0.025668904185295105
1772094070142498600,1.82049853515625,0.0341191403567791,-0.01818760111927986,-0.035845909267663956
1772094070152447500,1.830447509765625,0.02306380867958069,0.0005957344546914101,-0.03927885368466377
1772094070162397400,1.8403974609375,0.015244502574205399,0.011534402146935463,-0.025807252153754234
1772094070172346400,1.850346435546875,0.007413915824145079,-0.0014408244751393795,-0.020498014986515045
1772094070182295300,1.86029541015625,0.00984751246869564,0.004530515521764755,-0.01222490519285202
1772094070192244500,1.870244384765625,0.013711027801036835,0.01382533647119999,-0.012635048478841782
1772094070202194400,1.8801943359375,0.020892241969704628,0.02117752470076084,-0.00877719558775425
1772094070212143400,1.890143310546875,0.02743089571595192,0.015021341852843761,0.014501549303531647
1772094070222092300,1.90009228515625,0.029331061989068985,0.0041119689121842384,0.05520982667803764
1772094070232041500,1.91004150390625,0.028018007054924965,0.005149106029421091,0.08573640882968903
1772094070241990400,1.919990478515625,0.02751653455197811,0.012339374050498009,0.08888159692287445
1772094070251940600,1.929940673828125,0.03424676135182381,0.024674296379089355,0.06370797008275986
1772094070261889500,1.9398896484375,0.039416488260030746,0.0350627563893795,0.03256602957844734
1772094070271838500,1.94983837890625,0.03999488055706024,0.0369124673306942,0.002251875353977084
1772094070281787400,1.959787353515625,0.04448497295379639,0.02440599352121353,-0.019682718440890312
1772094070291737300,1.9697373046875,0.04049689695239067,0.02202226035296917,-0.040379010140895844
1772094070301686500,1.9796865234375,0.03507443517446518,0.026937656104564667,-0.04612318426370621
1772094070311635500,1.989635498046875,0.018907302990555763,0.02133120968937874,-0.04105827957391739
1772094070321584400,1.99958447265625,0.00910633709281683,0.02212803065776825,-0.029663680121302605
1772094070331534300,2.009534423828125,0.008638396859169006,0.010108258575201035,-0.0013954215683043003
1772094070341483300,2.019483154296875,0.013880563899874687,-0.011348296888172626,0.03027728572487831
1772094070351432400,2.029432373046875,0.02306217886507511,-0.020462682470679283,0.03589732572436333
1772094070361381600,2.039381591796875,0.031281229108572006,-0.012480655685067177,0.020893875509500504
1772094070371330600,2.04933056640625,0.02570497803390026,0.010489359498023987,-0.0013440796174108982
1772094070381280500,2.059280517578125,0.0143833477050066,0.030916336923837662,-0.01776912435889244
1772094070391229400,2.0692294921875,0.004637541715055704,0.029053783044219017,-0.009241160936653614
1772094070401178400,2.079178466796875,0.0019205850549042225,0.025089668110013008,0.005156420636922121
1772094070411127300,2.089127197265625,0.0037387548945844173,0.02246970869600773,0.01666472852230072
1772094070421077500,2.099077392578125,0.010802524164319038,0.012332919985055923,0.022449113428592682
1772094070431026400,2.1090263671875,0.013268953189253807,0.004933636169880629,0.025735706090927124
1772094070440975400,2.118975341796875,0.00022851862013339996,0.002288851188495755,0.015945127233862877
1772094070450924300,2.12892431640625,-0.013183116912841797,0.003622152842581272,-0.003237698692828417
1772094070460874200,2.138874267578125,-0.029360756278038025,0.0085721705108881,-0.015468265861272812
1772094070470823400,2.148823486328125,-0.04058249294757843,0.008237059228122234,-0.012644990347325802
1772094070480772600,2.158772705078125,-0.04605742171406746,0.0021543996408581734,-0.006533303298056126
1772094070490721500,2.168721435546875,-0.03748621046543121,0.0031622648239135742,-0.003842134028673172
1772094070500670500,2.17867041015625,-0.01664910465478897,0.0193265862762928,-0.0023792600259184837
1772094070510620400,2.188620361328125,-0.005218899808824062,0.040477897971868515,0.015601880848407745
1772094070520569300,2.1985693359375,0.005583946593105793,0.03242956101894379,0.05216814950108528
1772094070530518300,2.208518310546875,0.00857582502067089,0.02931876853108406,0.09315364807844162
1772094070540467500,2.218467529296875,0.0005160337314009666,0.025730423629283905,0.10462574660778046
1772094070550417400,2.22841748046875,-0.010800814256072044,0.022458136081695557,0.09837751090526581
1772094070560366300,2.238366455078125,-0.020611101761460304,0.0025392889510840178,0.0822392925620079
1772094070570315300,2.248315185546875,-0.02269829250872135,-0.012750101275742054,0.04810510575771332
1772094070580264400,2.258264404296875,-0.019657496362924576,-0.00737238023430109,0.0046537709422409534
1772094070590213400,2.26821337890625,-0.017244284972548485,-0.004556929226964712,-0.026910977438092232
1772094070600163600,2.27816357421875,-0.020554859191179276,-0.015200784429907799,-0.04236077144742012
1772094070610112500,2.288112548828125,-0.030120857059955597,-0.02516627311706543,-0.04924067482352257
1772094070620061400,2.2980615234375,-0.027210023254156113,-0.022014955058693886,-0.046456072479486465
1772094070630010400,2.30801025390625,-0.020189817994832993,-0.033221229910850525,-0.02781624346971512
1772094070639960600,2.317960693359375,-0.014894387684762478,-0.0384863018989563,-0.002028057351708412
1772094070649909500,2.327909423828125,-0.009134676307439804,-0.033854953944683075,0.019491538405418396
1772094070659858400,2.3378583984375,-0.0056997304782271385,-0.024399936199188232,0.028938835486769676
1772094070669807400,2.347807373046875,-0.001847660867497325,-0.018224148079752922,0.036836083978414536
1772094070679757300,2.35775732421875,0.0031942357309162617,-0.025042107328772545,0.04035545140504837
1772094070689706200,2.367706298828125,0.0027932352386415005,-0.02010868489742279,0.03253632411360741
1772094070699655200,2.3776552734375,0.0012994683347642422,-0.022905269637703896,0.013911508023738861
1772094070709604600,2.3876044921875,-0.006662698462605476,-0.030289456248283386,-0.00164464907720685
1772094070719553500,2.397553466796875,-0.01636778935790062,-0.029387976974248886,-0.020548831671476364
1772094070729503500,2.40750341796875,-0.017830591648817062,-0.03963897377252579,-0.030088288709521294
1772094070739453000,2.417452880859375,-0.013215066865086555,-0.04686732590198517,-0.031306952238082886
1772094070749401900,2.42740185546875,-0.00773680629208684,-0.05543014779686928,-0.03345782682299614
1772094070759350800,2.437350830078125,0.005546508822590113,-0.052401069551706314,-0.03440404683351517
1772094070769300700,2.44730078125,0.004037466365844011,-0.04619608446955681,-0.02526405081152916
1772094070779249700,2.457249755859375,0.0021484862081706524,-0.03569550812244415,-0.013374103233218193
1772094070789198600,2.467198486328125,0.0028221183456480503,-0.035535141825675964,-0.0007791118696331978
1772094070799147800,2.477147705078125,0.007711149752140045,-0.045349691063165665,0.006005557253956795
1772094070809097700,2.48709765625,0.01830679178237915,-0.057609885931015015,0.013820137828588486
1772094070819046700,2.497046630859375,0.020924145355820656,-0.056284159421920776,0.0070482525043189526
1772094070828995600,2.50699560546875,0.015588182955980301,-0.04798274114727974,-0.010795315727591515
1772094070838944800,2.51694482421875,0.0028633316978812218,-0.03863957151770592,-0.02214677259325981
1772094070848893700,2.526893798828125,-0.00893106497824192,-0.03238718956708908,-0.033785708248615265
1772094070858844000,2.536843994140625,-0.0126317935064435,-0.034217048436403275,-0.04066039249300957
1772094070868792800,2.546792724609375,-0.009837495163083076,-0.02803095243871212,-0.0380297414958477
1772094070878741800,2.55674169921875,-0.005997216794639826,-0.035824693739414215,-0.02899550274014473
1772094070888690700,2.566690673828125,-0.004256740678101778,-0.04090975597500801,-0.01871953159570694
1772094070898640600,2.576640625,-0.006361969746649265,-0.04470289871096611,-0.012384136207401752
1772094070908589800,2.58658984375,-0.011183169670403004,-0.04021718353033066,-0.003774437587708235
1772094070918538800,2.596538818359375,-0.015685509890317917,-0.03765255957841873,-0.00038955966010689735
1772094070928487700,2.60648779296875,-0.010782172903418541,-0.03382590785622597,-0.0027917171828448772
1772094070938437600,2.616437744140625,-0.0107190553098917,-0.014289758168160915,-0.015624159947037697
1772094070948386600,2.626386474609375,-0.006390098016709089,-0.004062357824295759,-0.01462906040251255
1772094070958335700,2.636335693359375,-0.004871829878538847,-0.006037624087184668,-0.0007585189305245876
1772094070968285000,2.646284912109375,0.0020285435020923615,-0.01377679593861103,0.017499804496765137
1772094070978233900,2.65623388671875,0.006205179262906313,-0.010391119867563248,0.01939411088824272
1772094070988183800,2.666183837890625,0.015452904626727104,-0.00980466604232788,0.01698644831776619
1772094070998132700,2.6761328125,0.019366154447197914,-0.013071566820144653,0.008875524625182152
1772094071008081700,2.68608154296875,0.014710457995533943,-0.02008647657930851,-0.0005228482186794281
1772094071018030600,2.696030517578125,0.017129674553871155,-0.029212595894932747,-0.003696537110954523
1772094071027980800,2.705980712890625,0.012922603636980057,-0.030993370339274406,-0.015076936222612858
1772094071037929700,2.7159296875,0.014009440317749977,-0.029953407123684883,-0.02312261238694191
1772094071047878700,2.725878662109375,0.009313786402344704,-0.021699143573641777,-0.028713393956422806
1772094071057827600,2.73582763671875,0.011594783514738083,-0.009574037045240402,-0.029673997312784195
1772094071067777500,2.745777587890625,0.012259485200047493,0.006876576691865921,-0.028731029480695724
1772094071077726700,2.755726806640625,0.015991106629371643,0.014525441452860832,-0.015850918367505074
1772094071087676000,2.765676025390625,0.020902477204799652,-0.004631394986063242,-0.0009873476810753345
1772094071097624800,2.775624755859375,0.01727658323943615,-0.0066929473541677,0.024612821638584137
1772094071107573800,2.78557373046875,0.014279250055551529,-0.005716447718441486,0.040183380246162415
1772094071117523700,2.795523681640625,0.010164666920900345,-0.005751867778599262,0.039640095084905624
1772094071127472600,2.80547265625,0.00587418582290411,0.006347835995256901,0.028850264847278595
1772094071137421800,2.815421875,-0.00012431805953383446,0.013551952317357063,0.013395674526691437
1772094071147370800,2.825370849609375,-0.0033626165241003036,0.01360318809747696,0.0015083635225892067
1772094071157320700,2.83532080078125,-0.009316379204392433,0.005358574446290731,-0.007449711207300425
1772094071167269600,2.84526953125,-0.011866099201142788,-0.005320762749761343,-0.018821075558662415
1772094071177218600,2.855218505859375,-0.0063693346455693245,-0.013036208227276802,-0.0345023013651371
1772094071187167700,2.865167724609375,-0.0010841106995940208,-0.019854143261909485,-0.048272017389535904
1772094071197117000,2.875116943359375,0.0059783258475363255,-0.00370127335190773,-0.0505913645029068
1772094071207067000,2.88506689453125,0.008243541233241558,-0.010412031784653664,-0.048371072858572006
1772094071217015800,2.895015869140625,-0.0018037664704024792,-0.02302183397114277,-0.0182413998991251
1772094071226964700,2.90496484375,-0.010890352539718151,-0.020062079653143883,0.01660343073308468
1772094071236913700,2.91491357421875,-0.01759885624051094,-0.01306702010333538,0.031076911836862564
1772094071246864000,2.92486376953125,-0.00581748504191637,0.01011743862181902,0.02710958756506443
1772094071256812800,2.934812744140625,0.011335669085383415,0.016624871641397476,0.027143144980072975
1772094071266761700,2.94476171875,0.02078656665980816,0.020854402333498,0.025440018624067307
1772094071276710700,2.954710693359375,0.02030267007648945,0.030498240143060684,0.027478402480483055
1772094071286660600,2.96466064453125,0.01317879930138588,0.03383942320942879,0.021189194172620773
1772094071296609500,2.974609619140625,0.00432592025026679,0.045857205986976624,0.019013123586773872
1772094071306558700,2.984558837890625,-0.0002869213931262493,0.036591000854969025,0.021886197850108147
1772094071316508000,2.9945078125,0.002806073985993862,0.02723398432135582,0.017078660428524017
1772094071326456800,3.004456787109375,0.010707259178161621,0.017459815368056297,0.012403389438986778
1772094071336406800,3.01440673828125,0.01635449007153511,0.002085918327793479,0.008425159379839897
1772094071346355700,3.024355712890625,0.013254348188638687,-0.012418332509696484,0.007735590450465679
1772094071356304600,3.0343046875,0.0043820277787745,-0.006065095774829388,-0.00551177142187953
1772094071366253800,3.04425390625,-0.015891406685113907,0.004960882477462292,-0.020369384437799454
1772094071376203800,3.054203857421875,-0.027300387620925903,0.009923949837684631,-0.022293785586953163
1772094071386152700,3.064152587890625,-0.031375702470541,0.0106773991137743,-0.007301682140678167
1772094071396101600,3.0741015625,-0.022996867075562477,-0.0017523723654448986,0.0176987424492836
1772094071406050600,3.084050537109375,-0.01471785455942154,-0.008491378277540207,0.04090358689427376
1772094071416000800,3.094000732421875,-0.014711463823914528,-0.004836190491914749,0.044427745044231415
1772094071425949700,3.10394970703125,-0.01758013479411602,-0.004766435362398624,0.03889887034893036
1772094071435899000,3.11389892578125,-0.024818073958158493,0.003060328308492899,0.020746231079101562
1772094071445847800,3.123847900390625,-0.030846470966935158,0.008698791265487671,-0.002263534814119339
1772094071455797800,3.1337978515625,-0.03507263958454132,0.003969816491007805,-0.01538013480603695
1772094071465746700,3.14374658203125,-0.03679044172167778,-0.0028213653713464737,-0.02260420471429825
1772094071475695900,3.15369580078125,-0.03504021465778351,-0.011538424529135227,-0.025413308292627335
1772094071485644800,3.163644775390625,-0.02551073022186756,-0.017828380689024925,-0.02561994455754757
1772094071495593700,3.17359375,-0.022822270169854164,-0.029820328578352928,-0.028311867266893387
1772094071505543700,3.183543701171875,-0.02453729137778282,-0.019468437880277634,-0.02423977293074131
1772094071515492600,3.19349267578125,-0.021803023293614388,-0.03571052476763725,-0.03390837833285332
1772094071525441500,3.203441650390625,-0.025603577494621277,-0.02407691441476345,-0.04262471944093704
1772094071535391000,3.213390869140625,-0.026255253702402115,-0.006859578657895327,-0.04461489990353584
1772094071545340700,3.223340576171875,-0.028352433815598488,0.01094483770430088,-0.032156653702259064
1772094071555289900,3.233289794921875,-0.029169490560889244,0.025009790435433388,-0.013706538826227188
1772094071565238800,3.24323876953125,-0.02340802550315857,0.037029705941677094,0.005319294985383749
1772094071575187700,3.253187744140625,-0.0160803385078907,0.0433906652033329,0.0171932652592659
1772094071585136600,3.26313671875,-0.013373428955674171,0.04869959503412247,0.03263738006353378
1772094071595086800,3.2730869140625,-0.010344881564378738,0.05340779572725296,0.040831394493579865
1772094071605035800,3.283035888671875,-0.014571614563465118,0.055579811334609985,0.05215463042259216
1772094071614984700,3.292984619140625,-0.016171377152204514,0.05181516706943512,0.054521650075912476
1772094071624933600,3.30293359375,-0.016690662130713463,0.04836749657988548,0.04749489203095436
1772094071634883600,3.312883544921875,-0.017245665192604065,0.050780054181814194,0.029599778354167938
1772094071644832800,3.322832763671875,-0.012484623119235039,0.04829755797982216,0.010432718321681023
1772094071654781700,3.33278173828125,-0.010590849444270134,0.04380827024579048,-0.00614359462633729
1772094071664731000,3.34273095703125,-0.009750451892614365,0.03387729823589325,-0.01970844715833664
1772094071674680800,3.352680908203125,0.0008276235312223434,0.029172027483582497,-0.025532782077789307
1772094071684629800,3.362629638671875,0.010653771460056305,0.013223647139966488,-0.01804620586335659
1772094071694578700,3.37257861328125,0.022011620923876762,-0.004723927937448025,-0.011274052783846855
1772094071704528000,3.38252783203125,0.02552943304181099,-0.01256574783474207,-0.011366009712219238
1772094071714476800,3.392476806640625,0.02012614533305168,-0.017126943916082382,-0.010483171790838242
1772094071724426800,3.4024267578125,0.0064870500937104225,-0.008170878514647484,-0.012902259826660156
1772094071734375700,3.412375732421875,0.00017535826191306114,-0.0028533446602523327,-0.013367779552936554
1772094071744324600,3.42232470703125,0.003832020331174135,-0.005937510635703802,-0.01204562559723854
1772094071754273500,3.4322734375,0.009998835623264313,0.00786805059760809,-0.014459246769547462
1772094071764223700,3.4422236328125,0.013213042169809341,0.007983077317476273,-0.004426595289260149
1772094071774172700,3.452172607421875,0.013469506055116653,0.007139920257031918,0.01032784953713417
1772094071784121900,3.462121826171875,0.008562817238271236,-0.0038885977119207382,0.02009987272322178
1772094071794070800,3.47207080078125,0.00653774943202734,-0.006532849743962288,0.02233266644179821
1772094071804020700,3.482020751953125,0.00362073490396142,-0.011418604291975498,0.0176890566945076
1772094071813970000,3.491969970703125,0.0011173635721206665,-0.020805448293685913,0.01029851846396923
1772094071823918800,3.5019189453125,0.00395983038470149,-0.02525634691119194,-0.007013107184320688
1772094071833867800,3.51186767578125,0.009063245728611946,-0.024012384936213493,-0.019084149971604347
1772094071843816700,3.521816650390625,0.006551640573889017,-0.028783969581127167,-0.025002170354127884
1772094071853766700,3.5317666015625,0.0010271789506077766,-0.020726576447486877,-0.02954951673746109
1772094071863715600,3.541715576171875,0.0007096659392118454,-0.015347380191087723,-0.03337646275758743
1772094071873664800,3.551664794921875,0.00514516094699502,-0.04416171833872795,-0.02552945539355278
1772094071883614000,3.561614013671875,0.01031913049519062,-0.056105587631464005,-0.012548274360597134
1772094071893563600,3.571563720703125,0.014482183381915092,-0.05467759817838669,-0.01850443333387375
1772094071903512800,3.581512939453125,0.010818002745509148,-0.04312402382493019,-0.026847263798117638
1772094071913461800,3.591461669921875,0.009015308693051338,-0.0375329852104187,-0.03383833169937134
1772094071923410700,3.60141064453125,0.006906299851834774,-0.03430595248937607,-0.039174359291791916
1772094071933361000,3.61136083984375,0.009245087392628193,-0.021290283650159836,-0.03873094171285629
1772094071943309800,3.621309814453125,0.010455089621245861,-0.006766368169337511,-0.046486303210258484
1772094071953258800,3.6312587890625,0.007875551469624043,-0.0047343759797513485,-0.03408289700746536
1772094071963207700,3.641207763671875,0.009365025907754898,-0.00453416770324111,-0.013172011822462082
1772094071973156600,3.651156494140625,0.009296581149101257,-0.003690477926284075,0.004388606175780296
1772094071983106800,3.66110693359375,0.012518355622887611,-0.010631107725203037,0.01925579458475113
1772094071993055700,3.6710556640625,0.01659618876874447,-0.014954750426113605,0.03245628625154495
1772094072003004700,3.681004638671875,0.014721440151333809,-0.01978209614753723,0.036811262369155884
1772094072012953900,3.690953857421875,0.008199360221624374,-0.010893531143665314,0.01981789618730545
1772094072022903800,3.70090380859375,-0.0015108021907508373,0.011072427034378052,-0.0019906614907085896
1772094072032852700,3.710852783203125,-0.006462950259447098,0.030340131372213364,-0.001298772171139717
1772094072042802000,3.720802001953125,-0.011789614334702492,0.02715161070227623,0.008590697310864925
1772094072052750800,3.730750732421875,-0.02062305435538292,0.02618781290948391,0.015012910589575768
1772094072062700800,3.74070068359375,-0.019980410113930702,0.02714521810412407,0.016774116083979607
1772094072072649700,3.750649658203125,-0.013009320013225079,0.01632266491651535,0.022602178156375885
1772094072082598700,3.7605986328125,-0.00578074436634779,0.0022048584651201963,0.02120249718427658
1772094072092547600,3.770547607421875,-0.0031109252013266087,-0.00266899261623621,0.007648340426385403
1772094072102497800,3.780497802734375,0.004624363966286182,0.00012003397569060326,-0.008553832769393921
1772094072112446700,3.79044677734375,0.00021044118329882622,0.014574607834219933,-0.01919529214501381
1772094072122395600,3.800395751953125,-0.008993443101644516,0.018902510404586792,-0.015445295721292496
1772094072132344800,3.8103447265625,-0.013750648126006126,0.008518844842910767,-0.012369876727461815
1772094072142293800,3.820293701171875,-0.014876432716846466,0.010351916775107384,0.0008819582872092724
1772094072152244000,3.830243896484375,-0.012463342398405075,0.0065001873299479485,0.013603612780570984
1772094072162193000,3.84019287109375,-0.010771050117909908,0.003669413737952709,0.013733483850955963
1772094072172141800,3.850141845703125,-0.006833832710981369,0.014795567840337753,0.0001713368110358715
1772094072182090800,3.8600908203125,-0.005871195811778307,0.029584592208266258,-0.012175388634204865
1772094072192040700,3.870040771484375,-0.0082203708589077,0.03924307972192764,-0.01280602440237999
1772094072201989600,3.87998974609375,-0.008897986263036728,0.04299483820796013,0.0012767943553626537
1772094072211938800,3.889938720703125,-0.007652958855032921,0.04282759130001068,0.012725723907351494
1772094072221887700,3.8998876953125,0.0023964918218553066,0.03791465237736702,0.026329349726438522
1772094072231837700,3.909837646484375,0.00530200032517314,0.03489010035991669,0.03558703139424324
1772094072241786600,3.91978662109375,0.005342904943972826,0.03400728106498718,0.033446475863456726
1772094072251735800,3.92973583984375,0.003317837603390217,0.0377972275018692,0.020943202078342438
1772094072261684700,3.939684814453125,0.00191497802734375,0.06656873226165771,-0.0030060294084250927
1772094072271634000,3.949634033203125,-0.005198591388761997,0.04969200864434242,-0.01720041036605835
1772094072281583900,3.959583984375,-0.0007636272348463535,0.023539379239082336,-0.015152247622609138
1772094072291532800,3.96953271484375,0.0007722177542746067,0.014063052833080292,-0.025671467185020447
1772094072301481700,3.979481689453125,-0.004170863423496485,0.019941512495279312,-0.035812582820653915
1772094072311430700,3.9894306640625,-0.00011380389332771301,0.011397557333111763,-0.02873123809695244
1772094072321380900,3.999380859375,-0.0034327025059610605,0.003842187812551856,-0.003917024936527014
1772094072331329800,4.009329833984375,-0.0020851430017501116,0.002604616805911064,0.012570072896778584
1772094072341278700,4.01927880859375,0.0015393341891467571,0.0037434054538607597,0.023357894271612167
1772094072351227600,4.0292275390625,0.003447755705565214,0.003197457641363144,0.020762376487255096
1772094072361176800,4.0391767578125,0.006458478979766369,0.0016070555429905653,0.010987373068928719
1772094072371126500,4.04912646484375,0.0031798616982996464,0.003894444555044174,0.0017296925652772188
1772094072381076000,4.059075927734375,0.00239929324015975,-0.0071591841988265514,-0.010075829923152924
1772094072391025000,4.06902490234375,0.0070747388526797295,-0.01606692560017109,-0.02882155403494835
1772094072400973800,4.078973876953125,0.011211009696125984,-0.01935296133160591,-0.04479695484042168
1772094072410923800,4.088923828125,0.010415257886052132,-0.012966168113052845,-0.04615916311740875
1772094072420872700,4.098872802734375,-0.000783972442150116,-0.011053728871047497,-0.03520894795656204
1772094072430821600,4.108821533203125,-0.00311104254797101,-0.013729673810303211,-0.020767422392964363
1772094072440770800,4.118770751953125,-0.004428774584084749,-0.00706963986158371,-0.004848910961300135
1772094072450720800,4.128720703125,0.0017236601561307907,-0.006127679720520973,0.011778002604842186
1772094072460669700,4.138669677734375,0.01067245751619339,-0.018093138933181763,0.024350175634026527
1772094072470618600,4.14861865234375,0.016898127272725105,-0.018600471317768097,0.021343465894460678
1772094072480567800,4.15856787109375,0.018249105662107468,-0.01598323881626129,0.013165509328246117
1772094072490516700,4.168516845703125,0.009319527074694633,-0.01839606463909149,-0.0009047696366906166
1772094072500467000,4.178467041015625,-0.0023269755765795708,-0.008710884489119053,-0.016956182196736336
1772094072510416000,4.188415771484375,-0.009885558858513832,-0.014807659201323986,-0.030128976330161095
1772094072520364800,4.19836474609375,-0.0062192087061703205,-0.023973993957042694,-0.028008094057440758
1772094072530313700,4.208313720703125,-0.0027270056307315826,-0.038435228168964386,-0.026067717000842094
1772094072540263700,4.218263671875,-0.002566323149949312,-0.04382827877998352,-0.02238927036523819
1772094072550212900,4.228212890625,-0.0023940165992826223,-0.05505776405334473,-0.02454935759305954
1772094072560161800,4.238161865234375,-0.007150731980800629,-0.05094390735030174,-0.02700050175189972
1772094072570110700,4.24811083984375,-0.010334007441997528,-0.047049567103385925,-0.026321928948163986
1772094072580060700,4.258060791015625,-0.012455733492970467,-0.045697279274463654,-0.02608451060950756
1772094072590009600,4.268009521484375,-0.00977206602692604,-0.03627714514732361,-0.02643738128244877
1772094072599958800,4.277958740234375,-0.01023058407008648,-0.024685632437467575,-0.012296348810195923
1772094072609907700,4.28790771484375,-0.013651680201292038,-0.02381557784974575,0.006886134389787912
1772094072619857000,4.29785693359375,-0.01109316386282444,-0.029424522072076797,0.025098556652665138
1772094072629806800,4.307806884765625,-0.0052251555025577545,-0.026683595031499863,0.02794494293630123
1772094072639755800,4.317755859375,-0.0020314925350248814,-0.013792297802865505,0.018385261297225952
1772094072649704700,4.32770458984375,0.009947406128048897,-0.008269701153039932,0.009690040722489357
1772094072659653600,4.337653564453125,0.012825332581996918,-0.0038722506724298,0.0022878856398165226
1772094072669603800,4.347603759765625,0.010687347501516342,-0.009810034185647964,0.004043174907565117
1772094072679552800,4.357552734375,0.011333320289850235,-0.01607096567749977,0.0007067881524562836
1772094072689501700,4.367501708984375,0.003830396104604006,-0.02455686219036579,-0.0016714148223400116
1772094072699450600,4.37745068359375,0.0018783677369356155,-0.026316162198781967,-0.003935577813535929
1772094072709399800,4.38739990234375,0.0021406891755759716,-0.027334289625287056,-0.007677851710468531
1772094072719349800,4.397349853515625,0.0037437197752296925,-0.030345484614372253,-0.004300179425626993
1772094072729299000,4.407298828125,0.008276686072349548,-0.02737392857670784,-0.0017374195158481598
1772094072739246800,4.417246826171875,0.007207055110484362,-0.029873672872781754,0.005669388920068741
1772094072749195800,4.42719580078125,0.010340530425310135,-0.03443726897239685,0.008924837224185467
1772094072759146000,4.43714599609375,0.014632577076554298,-0.028957773000001907,-0.0012289532460272312
1772094072769095000,4.447094970703125,0.011040238663554192,-0.014270705170929432,-0.017182353883981705
1772094072779043800,4.4570439453125,0.0012859897688031197,-0.0009286380372941494,-0.018268221989274025
1772094072788992800,4.46699267578125,-0.008381551131606102,0.004699153825640678,-0.0015659397467970848
1772094072798942700,4.476942626953125,-0.009464684873819351,0.013873028568923473,0.020418129861354828
1772094072808892000,4.486891845703125,-0.009477200917899609,0.008438847959041595,0.03793107718229294
1772094072818841000,4.496841064453125,-0.0011397970374673605,0.002095360541716218,0.04366716369986534
1772094072828790000,4.5067900390625,-0.0012276812922209501,0.005431502591818571,0.04217233136296272
1772094072838739000,4.516739013671875,-0.0026140217669308186,-0.003282175399363041,0.03252527117729187
1772094072848689000,4.52668896484375,-0.003910981118679047,-0.014838695526123047,0.014857861213386059
1772094072858637800,4.536637939453125,-0.014713317155838013,-0.025484416633844376,0.0001819203607738018
1772094072868587000,4.5465869140625,-0.014768179506063461,-0.035048894584178925,-0.015788257122039795
1772094072878536000,4.556535888671875,-0.019005203619599342,-0.03076010011136532,-0.028791693970561028
1772094072888486000,4.56648583984375,-0.025948330760002136,-0.03485391288995743,-0.027951201424002647
1772094072898434800,4.576434814453125,-0.026122670620679855,-0.050098519772291183,-0.018789349123835564
1772094072908383700,4.5863837890625,-0.03258190304040909,-0.05679876729846001,-0.014602325856685638
1772094072918333000,4.5963330078125,-0.041322410106658936,-0.04017285630106926,-0.008396492339670658
1772094072928283000,4.606282958984375,-0.04887034744024277,-0.02290944755077362,-0.000683977734297514
1772094072938232000,4.616232177734375,-0.050519783049821854,-0.0223125908523798,-0.0004801414906978607
1772094072948181000,4.626180908203125,-0.053658053278923035,0.00707539077848196,0.011274518445134163
1772094072958130000,4.6361298828125,-0.038764484226703644,0.008922006003558636,0.010532999411225319
1772094072968078800,4.646078857421875,-0.02579435706138611,0.04339582473039627,0.009298357181251049
1772094072978029000,4.656029052734375,-0.009859828278422356,0.05589907988905907,0.02669890969991684
1772094072987978000,4.66597802734375,-0.0007624702993780375,0.05616699531674385,0.04862631484866142
1772094072997927000,4.675927001953125,0.01245204359292984,0.0547468326985836,0.06061335653066635
1772094073007875800,4.685875732421875,0.01967640034854412,0.04445531591773033,0.05734698846936226
1772094073017825800,4.69582568359375,0.02835579216480255,0.03422766923904419,0.04535706713795662
1772094073027774700,4.705774658203125,0.033561207354068756,0.02297102101147175,0.015498505905270576
1772094073037724000,4.715723876953125,0.03717299550771713,0.02265496551990509,-0.014744151383638382
1772094073047673000,4.725673095703125,0.03599907457828522,0.01633581891655922,-0.0342310331761837
1772094073057622000,4.7356220703125,0.028758559376001358,0.0031374366953969,-0.03888186812400818
1772094073067572000,4.745572021484375,0.019338425248861313,-0.007295763585716486,-0.040657930076122284
1772094073077521000,4.75552099609375,0.015306983143091202,-0.016382284462451935,-0.034163426607847214
1772094073087469800,4.7654697265625,0.012600945308804512,-0.01725899800658226,-0.025790181010961533
1772094073097419000,4.7754189453125,0.012787546962499619,-0.017072681337594986,-0.012156844139099121
1772094073107369000,4.785368896484375,0.016179081052541733,-0.02262643724679947,0.002727295970544219
1772094073117318000,4.79531787109375,0.014722110703587532,-0.013446539640426636,0.008710083551704884
1772094073127266800,4.805266845703125,0.004785324912518263,-0.0017757676541805267,0.004325988236814737
1772094073137215700,4.8152158203125,-0.0030960519798099995,0.01069935318082571,-0.0035580438561737537
1772094073147166000,4.825166015625,-0.014258159324526787,0.019317341968417168,-0.0009140572510659695
1772094073157115000,4.835114990234375,-0.015630725771188736,0.00047013629227876663,0.01925187185406685
1772094073167064000,4.84506396484375,-0.009469236247241497,-0.00958356261253357,0.02947894297540188
1772094073177013000,4.855012939453125,0.0008244700729846954,-0.007706505246460438,0.026930348947644234
1772094073186962000,4.8649619140625,0.004255686886608601,-0.0077951885759830475,0.012209990993142128
1772094073196911900,4.874911865234375,0.0014577563852071762,-0.005510667338967323,-0.0012596063315868378
1772094073206861000,4.884861083984375,0.0010620104148983955,-0.012503862380981445,-0.012156995013356209
1772094073216810000,4.89481005859375,0.005520898383110762,-0.023405633866786957,-0.02568391151726246
1772094073226759000,4.904759033203125,0.005664176773279905,-0.022594168782234192,-0.036386892199516296
1772094073236708900,4.914708984375,0.003797463607043028,-0.011821252293884754,-0.042313992977142334
1772094073246657800,4.92465771484375,-0.002239656401798129,-0.01347800437361002,-0.03434182330965996
1772094073256606700,4.934606689453125,-0.001070864498615265,-0.012891968712210655,-0.022075019776821136
1772094073266556000,4.944555908203125,0.002216541673988104,-0.022167757153511047,-0.0139132309705019
1772094073276505900,4.954505859375,0.000699769239872694,-0.019690852612257004,-0.002325523179024458
1772094073286455000,4.964455078125,-0.00407607713714242,-0.02201526053249836,0.005505502223968506
1772094073296404000,4.974404052734375,-0.0076735373586416245,-0.01901811733841896,0.010020839050412178
1772094073306353000,4.984352783203125,-0.012017952278256416,-0.015514462254941463,0.003527786349877715
1772094073316301800,4.9943017578125,-0.010371309705078602,-0.006264177151024342,-0.0012220293283462524
1772094073326252000,5.004251953125,-0.012391051277518272,0.0049048541113734245,-0.00443992717191577
1772094073336201000,5.014200927734375,-0.016319628804922104,0.008495548740029335,-0.0031828153878450394
1772094073346150000,5.02414990234375,-0.018868274986743927,0.007813779637217522,0.0011695888824760914
1772094073356098800,5.034098876953125,-0.030364492908120155,0.004483213648200035,0.00643882853910327
1772094073366048800,5.044048828125,-0.035000789910554886,-0.002941146492958069,0.005486215464770794
1772094073375998000,5.053998046875,-0.029021279886364937,0.0011414994951337576,0.007146318443119526
1772094073385947000,5.06394677734375,-0.023953551426529884,-0.0010976861231029034,0.004648006986826658
1772094073395896000,5.07389599609375,-0.024042733013629913,-0.005570936482399702,0.005562261212617159
1772094073405845000,5.083844970703125,-0.02371436543762684,0.005972535349428654,-0.0017382618971168995
1772094073415795000,5.093794921875,-0.020178666338324547,0.020211638882756233,-0.011470671743154526
1772094073425744000,5.103743896484375,-0.01778448559343815,0.021627109497785568,-0.00684715760871768
1772094073435693000,5.113693115234375,-0.01160281989723444,0.014428336173295975,-0.006694347131997347
1772094073445642000,5.12364208984375,-0.0053550442680716515,-0.0006941566243767738,-0.0021387431770563126
1772094073455592000,5.133592041015625,0.0001933220773935318,-0.01164919137954712,0.000581428874284029
1772094073465540900,5.143540771484375,0.006025910843163729,-0.016634363681077957,-0.003376560751348734
1772094073475489800,5.15348974609375,0.008469233289361,-0.020321611315011978,-0.007850440219044685
1772094073485438700,5.163438720703125,0.0064034187234938145,-0.017185473814606667,-0.014602884650230408
1772094073495389000,5.173388916015625,0.01006234996020794,-0.016449254006147385,-0.020540276542305946
1772094073505337900,5.183337890625,0.010662626475095749,-0.006034430582076311,-0.023283066228032112
1772094073515287000,5.193287109375,0.011047173291444778,-0.000985997263342142,-0.021687958389520645
1772094073525236000,5.203236083984375,0.013090616092085838,0.0027576081920415163,-0.01401752233505249
1772094073535185000,5.213184814453125,0.015895456075668335,-0.0020062546245753765,0.0016101738438010216
1772094073545135000,5.223135009765625,0.017897620797157288,-0.005909649655222893,0.013912912458181381
1772094073555084000,5.233083984375,0.017830776050686836,-0.00037853047251701355,0.020215816795825958
1772094073565033000,5.243032958984375,0.01605764403939247,-0.0070084696635603905,0.020605169236660004
1772094073574982000,5.25298193359375,0.013102548196911812,-0.016407214105129242,0.018680648878216743
1772094073584931800,5.262931884765625,0.011872433125972748,-0.01934627816081047,0.013523705303668976
1772094073594880800,5.272880859375,0.004460384137928486,-0.012212224304676056,0.004116671625524759
1772094073604830000,5.282829833984375,-0.0032436081673949957,-0.013393336907029152,-0.004999594762921333
1772094073614779000,5.29277880859375,-0.004077194724231958,-0.013526351191103458,-0.009887157008051872
1772094073624728000,5.30272802734375,-0.00522981071844697,-0.012725538574159145,-0.009648537263274193
1772094073634677800,5.312677734375,-0.00012842239812016487,-0.007165554910898209,-0.0063907187432050705
1772094073644627000,5.322626953125,0.005718813743442297,-0.0018485542386770248,0.003819041885435581
1772094073654575900,5.332575927734375,0.010250216349959373,-0.008657662197947502,0.015946004539728165
1772094073664524800,5.34252490234375,0.015432728454470634,-0.016841024160385132,0.029552627354860306
1772094073674475000,5.35247509765625,0.014413569122552872,-0.017124323174357414,0.019764700904488564
1772094073684424000,5.362423828125,0.01356135867536068,-0.01420736312866211,0.000528422649949789
1772094073694372900,5.372372802734375,0.011576170101761818,-0.01174992136657238,-0.028941301628947258
1772094073704321800,5.38232177734375,0.004938241560012102,-0.009278773330152035,-0.04205869883298874
1772094073714270700,5.392270751953125,0.0030036349780857563,-0.009740013629198074,-0.03951229900121689
1772094073724221000,5.402220947265625,0.007118751294910908,-0.009498730301856995,-0.025762129575014114
1772094073734169900,5.412169921875,0.012187795713543892,-0.013212365098297596,-0.005693210754543543
1772094073744119000,5.422119140625,0.006786105688661337,-0.011571324430406094,0.01835140585899353
1772094073754068200,5.432068115234375,0.008748259395360947,-0.006482354365289211,0.028830889612436295
1772094073764018200,5.44201806640625,0.014165662229061127,0.0007396056316792965,0.03296970948576927
1772094073773967000,5.451967041015625,0.012531351298093796,0.0020579956471920013,0.039384450763463974
1772094073783916300,5.461916259765625,0.01864250749349594,0.0006044423207640648,0.027665475383400917
1772094073793865200,5.471865234375,0.01737111434340477,0.001881694421172142,0.007034500129520893
1772094073803814100,5.481814208984375,0.008806122466921806,0.003008477855473757,-0.010519193485379219
1772094073813764000,5.49176416015625,0.007928771898150444,-0.013578590005636215,-0.022572102025151253
1772094073823713000,5.501713134765625,0.009734129533171654,-0.024777716025710106,-0.023979848250746727
1772094073833662000,5.511661865234375,0.01382676512002945,-0.030331451445817947,-0.018963690847158432
1772094073843611000,5.52161083984375,0.012184394523501396,-0.02998870238661766,-0.013081032782793045
1772094073853561000,5.53156103515625,0.013170139864087105,-0.022615762427449226,-0.011715194210410118
1772094073863510000,5.541510009765625,0.01735955849289894,-0.02119869366288185,-0.005392583552747965
1772094073873459200,5.551459228515625,0.02409406378865242,-0.019386187195777893,-0.009382841177284718
1772094073883408100,5.561408203125,0.02499554306268692,-0.022353747859597206,-0.011938144452869892
1772094073893358300,5.5713583984375,0.026414375752210617,-0.02307298593223095,-0.0052517191506922245
1772094073903307300,5.581307373046875,0.021033724769949913,-0.02884378843009472,-0.002485760021954775
1772094073913256200,5.591256103515625,0.02223474159836769,-0.033613819628953934,-0.016078250482678413
1772094073923205000,5.601205078125,0.018726292997598648,-0.023709256201982498,-0.0370599664747715
1772094073933154000,5.611154052734375,0.007996469736099243,-0.0025971271097660065,-0.03350985050201416
1772094073943104000,5.62110400390625,-0.0013762596063315868,-0.012135238386690617,-0.042451146990060806
1772094073953053200,5.63105322265625,-0.006786936894059181,-0.006138294469565153,-0.02783840149641037
1772094073963002000,5.641002197265625,-0.011489813216030598,-0.015927542001008987,-0.006020188797265291
1772094073972951300,5.650951416015625,-0.009755875915288925,-0.0210413821041584,0.011493368074297905
1772094073982901000,5.66090087890625,-0.013723187148571014,-0.020354820415377617,0.021494604647159576
1772094073992850200,5.67085009765625,-0.01231003925204277,-0.008730612695217133,0.022825637832283974
1772094074002799000,5.680799072265625,-0.01194571889936924,-0.004111360292881727,0.011292817071080208
1772094074012748000,5.690748046875,-0.011496409773826599,0.015225115232169628,-0.00002748984843492508
1772094074022697200,5.700697265625,-0.01747014746069908,0.02405136451125145,-0.006097632925957441
1772094074032647200,5.710647216796875,-0.019012674689292908,0.029188867658376694,0.0025013876147568226
1772094074042596000,5.72059619140625,-0.012233598157763481,0.03444887697696686,0.002707249950617552
1772094074052545000,5.730544921875,-0.010324055328965187,0.034948013722896576,0.006637060549110174
1772094074062494000,5.740493896484375,-0.003273069392889738,0.036394111812114716,0.010904509574174881
1772094074072444200,5.750444091796875,0.0009955945424735546,0.02759312093257904,0.021011104807257652
1772094074082393000,5.76039306640625,0.00536024896427989,0.025452207773923874,0.022658536210656166
1772094074092342000,5.770342041015625,0.009240536019206047,0.029675159603357315,0.0150507353246212
1772094074102291200,5.780291259765625,0.008022671565413475,0.029908452183008194,0.012910619378089905
1772094074112240000,5.790240234375,0.010459627956151962,0.028536558151245117,0.004360033664852381
1772094074122190300,5.8001904296875,0.006531464401632547,0.02974856272339821,0.002084895269945264
1772094074132139300,5.81013916015625,0.003232623916119337,0.027699913829565048,0.005372428800910711
1772094074142088200,5.820088134765625,0.005944254342466593,0.020507514476776123,0.008458233438432217
1772094074152037000,5.830037109375,0.011090496554970741,0.00316802179440856,0.014990050345659256
1772094074161987000,5.839987060546875,0.01612919755280018,-0.0029045185074210167,0.015657171607017517
1772094074171936000,5.84993603515625,0.015457263216376305,-0.008775312453508377,0.008892878890037537
1772094074181885000,5.859885009765625,0.013371208682656288,-0.020454606041312218,-0.006090597715228796
1772094074191834000,5.869834228515625,0.007823044434189796,-0.019466307014226913,-0.028588980436325073
1772094074201783300,5.879783203125,0.003387283533811569,-0.007545465137809515,-0.04919545724987984
1772094074211733000,5.88973291015625,-0.005987716838717461,0.0044531566090881824,-0.047845736145973206
1772094074221682200,5.89968212890625,-0.0124855637550354,-0.0032100891694426537,-0.04211141914129257
1772094074231631000,5.909631103515625,-0.015183085575699806,-0.004465562757104635,-0.01750240847468376
1772094074241580000,5.919580078125,-0.013584654778242111,-0.016158437356352806,0.00020415149629116058
1772094074251530200,5.9295302734375,-0.004979017190635204,-0.020789243280887604,0.004518500529229641
1772094074261479200,5.939479248046875,-0.0025502145290374756,-0.02443138137459755,-0.0009095547720789909
1772094074271428000,5.949427978515625,-0.0006025442853569984,-0.014409273862838745,-0.0018760436214506626
1772094074281377000,5.959376953125,-0.010768363252282143,-0.006697291973978281,-0.002815340179949999
1772094074291327200,5.9693271484375,-0.01854400895535946,0.011901571415364742,-0.00461336737498641
1772094074301276200,5.979276123046875,-0.029959382489323616,0.02323918044567108,-0.008945265784859657
1772094074311225000,5.98922509765625,-0.023806339129805565,0.01966593787074089,-0.010817287489771843
1772094074321174300,5.99917431640625,-0.027478039264678955,0.015766803175210953,-0.010488653555512428
1772094074331123200,6.009123291015625,-0.016606612130999565,0.005992366001009941,-0.006329628173261881
1772094074341073200,6.0190732421875,-0.008338028565049171,-0.0023617036640644073,0.00038073863834142685
1772094074351022000,6.02902197265625,-0.0037274183705449104,-0.00798687431961298,0.0031926664523780346
1772094074360971300,6.03897119140625,-0.004436618182808161,-0.0027031628414988518,-0.0004758378490805626
1772094074370920200,6.048920166015625,-0.007035985589027405,0.009288474917411804,-0.00538228452205658
1772094074380870100,6.0588701171875,-0.011527406983077526,0.010787036269903183,-0.011571205221116543
1772094074390819000,6.068819091796875,-0.01542970072478056,0.007351888343691826,-0.01460508443415165
1772094074400768000,6.07876806640625,-0.012671730481088161,0.010224107652902603,-0.01473051868379116
1772094074410717000,6.088717041015625,-0.010406720452010632,0.0041776057332754135,-0.01268993690609932
1772094074420666000,6.098666015625,-0.0026361490599811077,-0.0067069996148347855,-0.009663786739110947
1772094074430616000,6.108615966796875,0.009045951999723911,-0.016239561140537262,-0.00810407754033804
1772094074440565000,6.11856494140625,0.0149640291929245,-0.021428197622299194,-0.009931271895766258
1772094074450514200,6.12851416015625,0.012396106496453285,-0.017292410135269165,-0.01642349734902382
1772094074460463000,6.138463134765625,0.004183183889836073,-0.008756179362535477,-0.016567308455705643
1772094074470413300,6.148413330078125,-0.00364929367788136,-0.003283159341663122,-0.017744263634085655
1772094074480362200,6.1583623046875,-0.004620814695954323,-0.0006868438795208931,-0.013953253626823425
1772094074490311200,6.168311279296875,0.00031930580735206604,0.0038422713987529278,-0.007156258448958397
1772094074500260000,6.178260009765625,0.013831919059157372,0.002316812751814723,0.0019882379565387964
1772094074510209000,6.188208984375,0.020929673686623573,-0.008670425042510033,0.010616375133395195
1772094074520159000,6.198158935546875,0.026403801515698433,-0.02098221890628338,0.01725776493549347
1772094074530108200,6.208108154296875,0.03061147965490818,-0.0197313129901886,0.008489665575325489
1772094074540057000,6.21805712890625,0.026681454852223396,-0.011904549784958363,-0.006475967820733786
1772094074550006300,6.22800634765625,0.013812173157930374,0.0015324477571994066,-0.016567595303058624
1772094074559955200,6.237955078125,0.006292738951742649,0.00942818820476532,-0.017544977366924286
1772094074569905200,6.2479052734375,0.005597793497145176,0.0029217738192528486,-0.012962582521140575
1772094074579854000,6.25785400390625,0.0075200628489255905,-0.0035901879891753197,-0.004317696206271648
1772094074589803300,6.26780322265625,0.015107312239706516,-0.01241227239370346,0.0022614076733589172
1772094074599752200,6.277752197265625,0.022640328854322433,-0.02088858187198639,-0.0028902115300297737
1772094074609702100,6.2877021484375,0.022941829636693,-0.018888277933001518,-0.014999540522694588
1772094074619651000,6.297651123046875,0.01692201942205429,-0.005427863448858261,-0.02559892274439335
1772094074629600000,6.30760009765625,0.005912150721997023,0.00582022313028574,-0.02752815932035446
1772094074639549000,6.317548828125,-0.0015718641225248575,0.005730741191655397,-0.018776744604110718
1772094074649499100,6.3274990234375,-0.006831759586930275,0.026355013251304626,0.0011653690598905087
1772094074659448000,6.337447998046875,-0.00842486321926117,0.04055951163172722,0.015160546638071537
1772094074669397000,6.34739697265625,-0.003268212080001831,0.048019587993621826,0.031637273728847504
1772094074679346200,6.35734619140625,-0.00015977025032043457,0.05479466915130615,0.0341518297791481
1772094074689295000,6.367295166015625,0.002572879195213318,0.044313058257102966,0.03670034185051918
1772094074699245300,6.377245361328125,0.002480200957506895,0.039430148899555206,0.026854101568460464
1772094074709194200,6.3871943359375,-0.005369782447814941,0.043798089027404785,0.014939267188310623
1772094074719143200,6.39714306640625,-0.007108826190233231,0.0405208021402359,0.0016836491413414478
1772094074729092000,6.407092041015625,-0.009717615321278572,0.04009668156504631,-0.004339165985584259
1772094074739042600,6.41704248046875,-0.007654997520148754,0.03294662758708,-0.0065037840977311134
1772094074748992500,6.426992431640625,0.00003510294482111931,0.017512420192360878,-0.009377524256706238
1772094074758941400,6.43694140625,0.004116131458431482,0.016363266855478287,-0.010945593938231468
1772094074768890400,6.446890380859375,0.010937387123703957,0.00964053999632597,-0.01590876281261444
1772094074778839600,6.456839599609375,0.01426980085670948,0.006912930402904749,-0.016460835933685303
1772094074788789500,6.46678955078125,0.014348838478326797,0.018265951424837112,-0.012063931673765182
1772094074798738400,6.476738525390625,0.010490183718502522,0.026714563369750977,-0.011601073667407036
1772094074808687400,6.486687255859375,0.008607880212366581,0.012384917587041855,-0.016217226162552834
1772094074818636500,6.496636474609375,0.012070788070559502,0.000966082327067852,-0.0101204514503479
1772094074828586500,6.50658642578125,0.01431518979370594,-0.0032154126092791557,-0.019463831558823586
1772094074838535400,6.516535400390625,0.016702447086572647,-0.0014494704082608223,-0.025643164291977882
1772094074848484600,6.526484619140625,0.012920739129185677,-0.0036267261020839214,-0.024960726499557495
1772094074858433500,6.53643359375,0.015361260622739792,0.0016958676278591156,-0.02042296528816223
1772094074868382500,6.546382568359375,0.015840783715248108,0.01148220431059599,-0.00820775143802166
1772094074878332700,6.556332763671875,0.015863953158259392,0.016313444823026657,0.012173687107861042
1772094074888281600,6.566281494140625,0.018889330327510834,0.015958715230226517,0.03187687695026398
1772094074898230500,6.57623046875,0.021663011983036995,0.023389998823404312,0.033309660851955414
1772094074908179500,6.586179443359375,0.033856622874736786,0.027758626267313957,0.026565521955490112
1772094074918128400,6.59612841796875,0.03928813710808754,0.023423800244927406,0.01048349030315876
1772094074928078300,6.606078369140625,0.03877021372318268,0.0193736981600523,-0.005438773427158594
1772094074938027300,6.61602734375,0.035080939531326294,0.009122392162680626,-0.016443222761154175
1772094074947976700,6.625976806640625,0.028553923591971397,0.005987630691379309,-0.02498999796807766
1772094074957925600,6.635925537109375,0.018233641982078552,0.0023822432849556208,-0.03317735344171524
1772094074967875600,6.64587548828125,0.01683054491877556,-0.005659128539264202,-0.0316360779106617
1772094074977824500,6.655824462890625,0.012011287733912468,-0.010585976764559746,-0.031078943982720375
1772094074987773400,6.6657734375,0.009990048594772816,-0.011633830145001411,-0.026169966906309128
1772094074997722400,6.675722412109375,0.011899801902472973,-0.007000196725130081,-0.021573085337877274
1772094075007671600,6.685671630859375,0.009008499793708324,0.0005435128696262836,-0.01043597050011158
1772094075017621500,6.69562158203125,0.009800258092582226,0.004706033505499363,-0.009144870564341545
1772094075027570400,6.7055703125,0.002716020680963993,0.009142391383647919,-0.00565187307074666
1772094075037519400,6.715519287109375,-0.0058918483555316925,0.01101193018257618,-0.012388871982693672
1772094075047468500,6.725468505859375,-0.012380827218294144,0.008365733548998833,-0.00885014794766903
1772094075057418500,6.73541845703125,-0.011136066168546677,-0.00374392606317997,-0.006524142809212208
1772094075067367700,6.74536767578125,-0.011739315465092659,-0.006373388692736626,-0.0007455381564795971
1772094075077316600,6.755316650390625,-0.005126952193677425,-0.004854055121541023,0.0021290776785463095
1772094075087265500,6.765265625,-0.0016050513368099928,-0.00997062399983406,0.002575654536485672
1772094075097214500,6.77521435546875,0.0003837975673377514,-0.019370250403881073,-0.0056031798012554646
1772094075107164400,6.785164306640625,0.0057985433377325535,-0.021799258887767792,-0.015405280515551567
1772094075117113600,6.795113525390625,0.0067604766227304935,-0.02389143779873848,-0.02089405618607998
1772094075127062500,6.8050625,0.010897034779191017,-0.016466116532683372,-0.027680622413754463
1772094075137011500,6.815011474609375,0.004584011156111956,-0.016125498339533806,-0.026961037889122963
1772094075146961400,6.82496142578125,0.003289931919425726,-0.02405524253845215,-0.020706988871097565
1772094075156910300,6.834910400390625,0.0024347910657525063,-0.024637941271066666,-0.012474093586206436
1772094075166859300,6.844859375,0.00695528369396925,-0.03415276110172272,-0.003718495834618807
1772094075176808700,6.85480859375,0.012576683424413204,-0.04156060889363289,0.00032258499413728714
1772094075186757600,6.864757568359375,0.012666173279285431,-0.03841935470700264,-0.007218226324766874
1772094075196707600,6.87470751953125,0.007215480785816908,-0.034593723714351654,-0.012366915121674538
1772094075206656500,6.884656494140625,-0.003825138323009014,-0.027778245508670807,-0.008370191790163517
1772094075216605400,6.89460546875,-0.011487851850688457,-0.03080039843916893,-0.011195007711648941
1772094075226554400,6.904554443359375,-0.020297115668654442,-0.022123321890830994,-0.013992900028824806
1772094075236504600,6.914504638671875,-0.02190246991813183,-0.008510841988027096,-0.01287676952779293
1772094075246453500,6.92445361328125,-0.017230600118637085,-0.006010058335959911,-0.0013404721394181252
1772094075256402400,6.93440234375,-0.009783336892724037,-0.011693776585161686,0.017989816144108772
1772094075266351400,6.944351318359375,-0.006505267694592476,-0.019282100722193718,0.02976706251502037
1772094075276300500,6.954300537109375,-0.0008037060033529997,-0.021060293540358543,0.030532188713550568
1772094075286250500,6.96425048828125,-0.003502949606627226,-0.01594233140349388,0.017680536955595016
1772094075296199700,6.97419970703125,-0.009405046701431274,-0.00636640377342701,0.0015806620940566063
1772094075306148600,6.984148681640625,-0.011914903298020363,-0.008412018418312073,-0.007404884789139032
1772094075316097500,6.99409765625,-0.005332901142537594,-0.00850815698504448,-0.007994774729013443
1772094075326046500,7.00404638671875,0.004019975196570158,-0.010942244902253151,0.001527994405478239
1772094075335996400,7.013996337890625,0.010052567347884178,-0.01388983242213726,0.003672637976706028
1772094075345945600,7.023945556640625,0.010863889008760452,-0.024313051253557205,0.002287672134116292
1772094075355894500,7.03389453125,0.007752516772598028,-0.02300836890935898,-0.0011613876558840275
1772094075365843500,7.043843505859375,0.005671515129506588,-0.015527721494436264,-0.013954461552202702
1772094075375793400,7.05379345703125,0.0037559038028120995,-0.010706868022680283,-0.016609366983175278
1772094075385742300,7.063742431640625,0.008591405116021633,-0.0126110278069973,-0.013245527632534504
1772094075395691500,7.07369140625,0.013966728933155537,-0.012274937704205513,-0.010069175623357296
1772094075405640700,7.083640625,0.023000434041023254,-0.015395156107842922,-0.005086063873022795
1772094075415589600,7.093589599609375,0.031475409865379333,-0.022437885403633118,0.003053887514397502
1772094075425539600,7.10353955078125,0.03288818150758743,-0.02728457748889923,0.00883953832089901
1772094075435488500,7.113488525390625,0.043442290276288986,-0.031343769282102585,0.007195568643510342
1772094075445437400,7.1234375,0.049913808703422546,-0.030479243025183678,-0.005949532613158226
1772094075455386400,7.133386474609375,0.052919454872608185,-0.023112405091524124,-0.016235724091529846
1772094075465336600,7.143336669921875,0.04981979355216026,-0.02552368864417076,-0.017566701397299767
1772094075475285500,7.153285400390625,0.044658321887254715,-0.03148970380425453,-0.018030358478426933
1772094075485234400,7.163234375,0.04073885828256607,-0.03824218735098839,-0.01240473985671997
1772094075495183400,7.173183349609375,0.03543011099100113,-0.042795926332473755,-0.008092282339930534
1772094075505132500,7.183132568359375,0.029738888144493103,-0.04977279528975487,-0.012556124478578568
1772094075515082500,7.19308251953125,0.019447900354862213,-0.0314803421497345,-0.014533255249261856
1772094075525031700,7.20303173828125,0.011044887825846672,-0.020137634128332138,-0.012723395600914955
1772094075534980600,7.212980712890625,-0.0017191104125231504,-0.019892092794179916,-0.003220170736312866
1772094075544929500,7.222929443359375,-0.002583707682788372,-0.021058985963463783,0.006760327145457268
1772094075554878500,7.23287841796875,-0.006401615217328072,-0.014191757887601852,0.01621055416762829
1772094075564828400,7.242828369140625,-0.004396163392812014,-0.011315504088997841,0.019655127078294754
1772094075574777600,7.252777587890625,-0.012200823053717613,-0.007303186226636171,0.013361012563109398
1772094075584726500,7.2627265625,-0.02853284403681755,0.009092220105230808,0.010450627654790878
1772094075594675500,7.272675537109375,-0.04003476724028587,0.015435070730745792,0.01436920277774334
1772094075604625400,7.28262548828125,-0.03532363101840019,0.00922330655157566,0.023306701332330704
1772094075614574300,7.29257421875,-0.026241453364491463,0.00502243684604764,0.0303180031478405
1772094075624523500,7.3025234375,-0.017369583249092102,-0.001247256062924862,0.025680825114250183
1772094075634472700,7.31247265625,-0.010088767856359482,-0.005205778405070305,0.019629325717687607
1772094075644421600,7.322421630859375,-0.009793102741241455,-0.003562633413821459,0.004668531473726034
1772094075654371600,7.33237158203125,-0.01313270628452301,0.005035115405917168,-0.011545326560735703
1772094075664320500,7.342320556640625,-0.022087804973125458,0.0014613354578614235,-0.019933633506298065
1772094075674269400,7.35226953125,-0.02360926941037178,-0.003745410591363907,-0.017588986083865166
1772094075684218400,7.36221826171875,-0.014492517337203026,-0.012527365237474442,-0.013128841295838356
1772094075694168600,7.37216845703125,-0.003385271178558469,-0.02401784062385559,-0.013292625546455383
1772094075704117500,7.382117431640625,0.005654922686517239,-0.03021705150604248,-0.0172562412917614
1772094075714066400,7.39206640625,0.017698269337415695,-0.034221380949020386,-0.023434774950146675
1772094075724015400,7.402015380859375,0.015186876058578491,-0.03098919242620468,-0.029588911682367325
1772094075733964500,7.411964599609375,0.008720986545085907,-0.028884492814540863,-0.02612893283367157
1772094075743913700,7.421913818359375,0.006160156801342964,-0.022183144465088844,-0.023854881525039673
1772094075753863000,7.43186279296875,-0.002451973268762231,-0.0125315822660923,-0.013254435732960701
1772094075763811800,7.441811767578125,-0.000418736832216382,-0.012573640793561935,-0.00020505813881754875
1772094075773760800,7.4517607421875,0.004532346036285162,-0.011984283104538918,0.0125309769064188
1772094075783709700,7.461709716796875,0.006276146974414587,-0.007427354343235493,0.023401666432619095
1772094075793659600,7.47165966796875,0.008185368031263351,-0.011134209111332893,0.023467179387807846
1772094075803608600,7.481608642578125,0.012559495866298676,-0.004824390634894371,0.012148723006248474
1772094075813557800,7.491557861328125,0.007719733286648989,0.004516114015132189,0.0011826246045529842
1772094075823507000,7.5015068359375,-0.00044829025864601135,0.012618116103112698,-0.006578679662197828
1772094075833456600,7.51145654296875,-0.0056989784352481365,0.008776240050792694,-0.0053264605812728405
1772094075843405800,7.52140576171875,-0.009884322993457317,0.0004891445860266685,0.004727761261165142
1772094075853354800,7.531354736328125,-0.005441371351480484,-0.00276656961068511,0.005986903794109821
1772094075863303700,7.5413037109375,-0.003092681523412466,0.0006762808188796043,0.0037619508802890778
1772094075873252600,7.551252685546875,0.003674411214888096,-0.004568548407405615,-0.003239765763282776
1772094075883202800,7.561202880859375,0.01082202885299921,-0.004060748964548111,-0.003261599224060774
1772094075893151700,7.57115185546875,0.012919001281261444,-0.004034649580717087,-0.003196085337549448
1772094075903100700,7.5811005859375,0.008344624191522598,0.009616876021027565,-0.009023385122418404
1772094075913049600,7.591049560546875,-0.000848074909299612,0.024293823167681694,-0.003571095410734415
1772094075922999800,7.600999755859375,-0.00877533107995987,0.020591724663972855,0.0084098931401968
1772094075932948700,7.61094873046875,-0.008192896842956543,0.020048439502716064,0.021421831101179123
1772094075942898000,7.62089794921875,0.002028815448284149,0.022130198776721954,0.02402755431830883
1772094075952846800,7.630846923828125,0.018800338730216026,0.01814158447086811,0.025757810100913048
1772094075962795800,7.640795654296875,0.022798709571361542,0.011438602581620216,0.026671152561903
1772094075972745700,7.650745849609375,0.01712271384894848,0.01892927661538124,0.01601877436041832
1772094075982695000,7.66069482421875,0.006985916290432215,0.02933545969426632,0.006793729029595852
1772094075992643800,7.670643798828125,-0.0017045109998434782,0.03468175604939461,0.005075990222394466
1772094076002592800,7.6805927734375,-0.00037003750912845135,0.03228410333395004,0.00399361364543438
1772094076012541700,7.690541748046875,0.00178126385435462,0.030662506818771362,0.00222793803550303
1772094076022491600,7.70049169921875,0.005550921894609928,0.02362731844186783,0.008086242713034153
1772094076032440600,7.710440673828125,0.009990144520998001,0.01702028140425682,0.012294836342334747
1772094076042389500,7.720389404296875,0.010270224884152412,0.009494000114500523,0.008352905511856079
1772094076052339000,7.7303388671875,0.00926248449832201,-0.0005682213231921196,-0.0033554155379533768
1772094076062288000,7.740287841796875,0.01666899584233761,0.0007472643628716469,-0.00686425156891346
1772094076072237800,7.75023779296875,0.0090361088514328,-0.0026831538416445255,-0.009837671183049679
1772094076082186800,7.760186767578125,0.008161515928804874,-0.006621554959565401,-0.002767900936305523
1772094076092135700,7.7701357421875,0.012481430545449257,-0.008904416114091873,0.0052514090202748775
1772094076102084600,7.780084716796875,0.0145180094987154,0.0010753388050943613,0.0032803057692945004
1772094076112034800,7.790034912109375,0.015318822115659714,0.0012455147225409746,0.000723671168088913
1772094076121983700,7.799983642578125,0.02532900869846344,-0.005502351094037294,-0.0008474192582070827
1772094076131932700,7.8099326171875,0.029284600168466568,-0.016557931900024414,0.0020370506681501865
1772094076141881600,7.819881591796875,0.03217503800988197,-0.019784346222877502,0.004016862716525793
1772094076151830800,7.829830810546875,0.028756335377693176,-0.009043019264936447,0.005252036731690168
1772094076161780700,7.83978076171875,0.01937330700457096,-0.004745285026729107,0.011330356821417809
1772094076171730000,7.84972998046875,0.009303363040089607,0.0013682674616575241,0.014500316232442856
1772094076181678800,7.859678955078125,0.010308528319001198,0.007514823228120804,0.015297780744731426
1772094076191627800,7.869627685546875,0.012552240863442421,0.006855424959212542,0.013835704885423183
1772094076201576700,7.87957666015625,0.010077085345983505,0.0039425496943295,0.01787699945271015
1772094076211526700,7.889526611328125,0.004872468765825033,0.0031246929429471493,0.01835210807621479
1772094076221475800,7.899475830078125,0.003349239006638527,0.00016655167564749718,0.01563272625207901
1772094076231424800,7.9094248046875,-0.002613312564790249,0.00036389194428920746,0.006119114812463522
1772094076241373700,7.919373779296875,-0.009110669605433941,0.005638425704091787,-0.0018468564376235008
1772094076251323600,7.92932373046875,-0.01570092886686325,0.003020005766302347,-0.0014236802235245705
1772094076261272600,7.9392724609375,-0.019694071263074875,-0.00034676259383559227,0.007275535725057125
1772094076271221800,7.9492216796875,-0.021515142172574997,-0.005491191055625677,0.013275638222694397
1772094076281171000,7.9591708984375,-0.015631740912795067,-0.008507462218403816,0.00872424803674221
1772094076291119900,7.969119873046875,-0.012235678732395172,-0.0052576069720089436,-0.000478571280837059
1772094076301069800,7.97906982421875,-0.014857056550681591,-0.0038021355867385864,-0.004206069279462099
1772094076311018800,7.989018798828125,-0.019476043060421944,-0.005202425643801689,-0.005908362101763487
1772094076320967700,7.9989677734375,-0.020343078300356865,0.004237509332597256,-0.00522636016830802
1772094076330916600,8.00891650390625,-0.02212313376367092,0.013302110135555267,-0.0029861093498766422
1772094076340865800,8.01886572265625,-0.021179191768169403,0.024422811344265938,-0.0008035884238779545
1772094076350815700,8.028815673828126,-0.01976718381047249,0.027285177260637283,0.00925943162292242
1772094076360764700,8.0387646484375,-0.009212088771164417,0.02128707617521286,0.02399897202849388
1772094076370713600,8.048713623046876,-0.007456000428646803,0.008171274326741695,0.03053916245698929
1772094076380662800,8.058662841796876,0.0032431576400995255,-0.002642264124006033,0.01613488420844078
1772094076390611700,8.06861181640625,0.00453612208366394,-0.010569429956376553,0.0017602064181119204
1772094076400562000,8.07856201171875,0.00239010713994503,-0.016738705337047577,-0.019982635974884033
1772094076410510800,8.0885107421875,0.001617257483303547,-0.01263850461691618,-0.041218679398298264
1772094076420459800,8.098459716796874,0.000998958945274353,-0.008097567595541477,-0.054987113922834396
1772094076430408700,8.10840869140625,-0.0023749996908009052,0.001486349618062377,-0.05427711457014084
1772094076440358700,8.118358642578125,-0.005078290589153767,0.005992872640490532,-0.03931315615773201
1772094076450307800,8.128307861328125,-0.0002960523124784231,0.008710894733667374,-0.012881284579634666
1772094076460256800,8.1382568359375,0.004513492342084646,0.010715847834944725,0.005514435935765505
1772094076470205700,8.148205810546875,0.014442555606365204,0.007293685805052519,0.018672581762075424
1772094076480155000,8.15815478515625,0.019449252635240555,0.004416226409375668,0.02192232385277748
1772094076490104600,8.1681044921875,0.01634613797068596,0.010076243430376053,0.018645036965608597
1772094076500053800,8.1780537109375,0.006769357714802027,0.01681475155055523,0.012177119962871075
1772094076510003000,8.1880029296875,0.0017303903587162495,0.020738385617733,0.00432638730853796
1772094076519952000,8.197951904296875,-0.0038001479115337133,0.024580445140600204,0.00035067182034254074
1772094076529900800,8.20790087890625,-0.005351971834897995,0.01931910403072834,0.0025496440939605236
1772094076539850800,8.217850830078126,-0.009773079305887222,0.005509720649570227,0.0064299157820641994
1772094076549799700,8.227799560546876,-0.008593831211328506,0.002481706440448761,0.005479167215526104
1772094076559748600,8.23774853515625,-0.014083819463849068,0.003540984820574522,0.003265608800575137
1772094076569697800,8.24769775390625,-0.010350333526730537,0.005486157722771168,0.0012043220922350883
1772094076579647700,8.257647705078124,-0.006988572422415018,-0.002362203784286976,0.0035809732507914305
1772094076589596700,8.2675966796875,0.00012499699369072914,0.004577993880957365,0.0060918014496564865
1772094076599545600,8.277545654296874,0.0005840305238962173,0.006571538280695677,0.007950185798108578
1772094076609494800,8.287494873046874,0.004097805358469486,0.00030778348445892334,0.016640346497297287
1772094076619443700,8.297443603515624,0.009004640392959118,-0.0020031058229506016,0.02202792651951313
1772094076629394000,8.307393798828125,0.009229145012795925,-0.0025503854267299175,0.018321339040994644
1772094076639342800,8.3173427734375,0.014505572617053986,-0.006003213115036488,0.014575562439858913
1772094076649291800,8.327291748046875,0.012538563460111618,-0.012654458172619343,0.00964871421456337
1772094076659240700,8.33724072265625,0.00799560733139515,-0.011618917807936668,0.009005863219499588
1772094076669189600,8.347189697265625,0.000018641352653503418,0.000091534573584795,0.0005838824436068535
1772094076679139800,8.357139892578125,-0.006457891780883074,0.008388730697333813,-0.016262618824839592
1772094076689088800,8.3670888671875,-0.009598291479051113,0.008110163733363152,-0.016562489792704582
1772094076699037700,8.37703759765625,-0.0076715354807674885,-0.00590105913579464,-0.011046547442674637
1772094076708987000,8.38698681640625,-0.007178051397204399,-0.007351416163146496,-0.011678515002131462
1772094076718935800,8.396935791015625,-0.006852305959910154,-0.01471019722521305,-0.02021821215748787
1772094076728885800,8.4068857421875,-0.011338400654494762,-0.019354749470949173,-0.01992313377559185
1772094076738835000,8.4168349609375,-0.018821310251951218,-0.01977546513080597,-0.017861850559711456
1772094076748783900,8.426783935546876,-0.02491728588938713,-0.02128015086054802,-0.02114979177713394
1772094076758732800,8.43673291015625,-0.02872253768146038,-0.02142554707825184,-0.025951385498046875
1772094076768682800,8.446682861328124,-0.025901449844241142,-0.01872590184211731,-0.02868325635790825
1772094076778631700,8.456631591796874,-0.023359065875411034,-0.0214846208691597,-0.030556946992874146
1772094076788580900,8.466580810546875,-0.019221579656004906,-0.011546771042048931,-0.03568406403064728
1772094076798529800,8.47652978515625,-0.021475719287991524,-0.015762031078338623,-0.03486175090074539
1772094076808478700,8.486478759765625,-0.02272207848727703,-0.007831403985619545,-0.024579817429184914
1772094076818428700,8.4964287109375,-0.02842702344059944,-0.00881962850689888,-0.02223643660545349
1772094076828377600,8.506377685546875,-0.03190697729587555,-0.007132783066481352,-0.0091153085231781
1772094076838326800,8.516326904296875,-0.03379964455962181,-0.010792700573801994,0.005180268082767725
1772094076848276000,8.52627587890625,-0.03359964117407799,-0.016192791983485222,0.013661637902259827
1772094076858225000,8.536224853515625,-0.031344905495643616,-0.017697151750326157,0.01696309819817543
1772094076868174800,8.5461748046875,-0.030397353693842888,-0.007840526290237904,0.013372625224292278
1772094076878123800,8.556123779296875,-0.028217023238539696,0.0017808293923735619,0.007017673458904028
1772094076888072700,8.56607275390625,-0.025824440643191338,0.009904801845550537,0.001367777120321989
1772094076898021600,8.576021728515625,-0.021334748715162277,0.007732090540230274,0.00012191338464617729
1772094076907970800,8.585970703125,-0.01545821875333786,-0.003843871410936117,0.003960327245295048
1772094076917920800,8.595920654296876,-0.014885686337947845,-0.004734937101602554,0.009681019932031631
1772094076927869700,8.60586962890625,-0.011141815222799778,-0.01578279584646225,0.014094410464167595
1772094076937819000,8.61581884765625,-0.012845478951931,-0.018869349732995033,0.01773347519338131
1772094076947767800,8.625767822265624,-0.004873573314398527,-0.01306978426873684,0.006117032840847969
1772094076957718000,8.635718017578125,-0.0017853316385298967,-0.011948109604418278,-0.005563446320593357
1772094076967667000,8.6456669921875,0.0003659701906144619,-0.012045313604176044,-0.013067967258393764
1772094076977616000,8.655615966796875,0.003826481755822897,-0.014842965640127659,-0.0155641483142972
1772094076987564800,8.665564697265625,0.0020986227318644524,-0.01383016537874937,-0.019676867872476578
1772094076997513700,8.675513671875,-0.006602100562304258,0.008139087818562984,-0.02092185616493225
1772094077007463700,8.685463623046875,-0.015849394723773003,0.0006140600889921188,-0.020817726850509644
1772094077017412900,8.695412841796875,-0.028542816638946533,-0.0000527380034327507,-0.008501213043928146
1772094077027361800,8.70536181640625,-0.025252215564250946,-0.002958513330668211,0.006137118674814701
1772094077037310700,8.715310791015625,-0.0171503908932209,-0.008054272271692753,0.013359347358345985
1772094077047260000,8.725260009765625,-0.005731821525841951,-0.024206344038248062,0.015516774728894234
1772094077057209900,8.7352099609375,-0.002083779312670231,-0.037239786237478256,0.004361323080956936
1772094077067158800,8.74515869140625,0.0010550222359597683,-0.03914447873830795,-0.010669823735952377
1772094077077108000,8.75510791015625,-0.008492321707308292,-0.033612847328186035,-0.0294876080006361
1772094077087057000,8.765056884765626,-0.013178952038288116,-0.018616054207086563,-0.04170592501759529
1772094077097005800,8.775005859375,-0.026359034702181816,-0.0013778344728052616,-0.04075773432850838
1772094077106955800,8.784955810546874,-0.03377620503306389,0.004600163083523512,-0.023488998413085938
1772094077116904700,8.79490478515625,-0.02746547944843769,0.003793759271502495,0.0006693471223115921
1772094077126853600,8.804853515625,-0.01386018842458725,0.00848385225981474,0.02081482857465744
1772094077136802600,8.814802490234374,0.00012659840285778046,0.007546943612396717,0.02958720177412033
1772094077146752000,8.824751953125,0.0032715252600610256,0.011853807605803013,0.020349759608507156
1772094077156701700,8.83470166015625,0.0002050735056400299,0.010577640496194363,0.01179184578359127
1772094077166651000,8.84465087890625,0.0005187937058508396,-0.000708836130797863,0.011800900101661682
1772094077176599800,8.854599853515625,-0.00014641927555203438,-0.010155744850635529,0.00723616499453783
1772094077186548700,8.864548828125,0.006545572075992823,-0.014107609167695045,-0.002234301995486021
1772094077196499000,8.8744990234375,0.01170455664396286,-0.011811469681560993,-0.012429988011717796
1772094077206447900,8.88444775390625,0.01699013262987137,-0.014149724505841732,-0.019206667318940163
1772094077216396800,8.894396728515625,0.013366860337555408,-0.016464821994304657,-0.02635226398706436
1772094077226345700,8.904345703125,0.00994576420634985,-0.01211934071034193,-0.024341844022274017
1772094077236294700,8.914294677734375,0.013827987015247345,-0.02252979762852192,-0.01579359360039234
1772094077246244600,8.92424462890625,0.01259174756705761,-0.02205122821033001,-0.007271478418260813
1772094077256193800,8.93419384765625,0.01437087170779705,-0.014045661315321922,-0.0014604241587221622
1772094077266142700,8.944142822265626,0.02243945002555847,-0.0005037542432546616,0.003140985732898116
1772094077276092000,8.954091796875,0.026666421443223953,0.010330840945243835,0.012267831712961197
1772094077286040800,8.964040771484376,0.03180898353457451,0.0028675985522568226,0.028032679110765457
1772094077295990800,8.97399072265625,0.03301183879375458,0.0029874956235289574,0.03629771247506142
1772094077305939700,8.983939697265624,0.025165366008877754,-0.002541226800531149,0.03473630174994469
1772094077315889000,8.993888916015624,0.021411294117569923,-0.004659845028072596,0.011069788597524166
1772094077325837800,9.003837890625,0.01886291429400444,-0.0032409136183559895,-0.00625487370416522
1772094077335786800,9.013786865234374,0.02166539989411831,0.00014317501336336136,-0.015934329479932785
1772094077345736700,9.02373681640625,0.014265540987253189,-0.0036568893119692802,-0.01189591083675623
1772094077355685600,9.033685546875,0.01263439655303955,-0.009840359911322594,-0.0009567867964506149
1772094077365634600,9.043634521484375,0.02033253014087677,-0.01643408089876175,0.008994647301733494
1772094077375584000,9.053583984375,0.02272414043545723,-0.017402898520231247,0.009271922521293163
1772094077385533000,9.063532958984375,0.020185083150863647,-0.01934114843606949,0.000581229105591774
1772094077395483000,9.07348291015625,0.01113717071712017,-0.005065254867076874,-0.011036657728254795
1772094077405431800,9.083431884765625,0.0019942731596529484,-0.0030106259509921074,-0.021012593060731888
1772094077415380700,9.093380615234375,-0.0027958196587860584,-0.0025272532366216183,-0.02998124063014984
1772094077425329700,9.10332958984375,-0.006809203419834375,-0.0022406973876059055,-0.019724342972040176
1772094077435280000,9.11327978515625,-0.008957887068390846,-0.0018382640555500984,-0.0086554866284132
1772094077445228800,9.123228759765626,-0.010223420336842537,0.00338605884462595,0.0012978119775652885
1772094077455177700,9.133177734375,-0.0042450688779354095,0.011937620118260384,0.01117430068552494
1772094077465126700,9.143126708984376,0.005044835619628429,0.008523980155587196,0.013022800907492638
1772094077475075800,9.153075927734376,0.015043804422020912,0.004223989322781563,0.01810346357524395
1772094077485025800,9.16302587890625,0.0185711607336998,-0.00951153039932251,0.01304692029953003
1772094077494975000,9.17297509765625,0.018144704401493073,-0.010573271661996841,0.0021878036204725504
1772094077504924000,9.182923828125,0.018945250660181046,-0.010237712413072586,-0.019856778904795647
1772094077514872800,9.192872802734374,0.015887808054685593,-0.0036638043820858,-0.039254747331142426
1772094077524821800,9.20282177734375,0.014609758742153645,0.002999957650899887,-0.040748514235019684
1772094077534771700,9.212771728515625,0.018610801547765732,0.004950797650963068,-0.02507094107568264
1772094077544721000,9.222720947265625,0.019464612007141113,0.003823215374723077,-0.0014103534631431103
1772094077554669800,9.232669921875,0.025060489773750305,0.00021038250997662544,0.025376860052347183
1772094077564618800,9.24261865234375,0.028305817395448685,0.00048735132440924644,0.02861206792294979
1772094077574567700,9.252567626953125,0.03404364362359047,-0.0013464759103953838,0.02641785517334938
1772094077584517600,9.262517578125,0.03385136276483536,-0.007646982092410326,0.023127252236008644
1772094077594466600,9.272466552734375,0.025878923013806343,-0.0069547295570373535,0.005909607745707035
1772094077604416000,9.282416015625,0.016642281785607338,0.0006448673084378242,-0.022402722388505936
1772094077614365000,9.292364990234375,0.006619428750127554,0.005572333466261625,-0.04407644271850586
1772094077624313900,9.30231396484375,0.004524053540080786,0.007576095871627331,-0.05497383326292038
1772094077634263800,9.312263916015626,-0.0010523421224206686,0.002835877239704132,-0.05004637688398361
1772094077644212700,9.322212646484376,0.002731211017817259,-0.001421984750777483,-0.028970124199986458
1772094077654161700,9.33216162109375,0.0013714507222175598,-0.013041061349213123,-0.02387472614645958
1772094077664110800,9.34211083984375,-0.0010546892881393433,-0.018248338252305984,-0.009048376232385635
1772094077674059800,9.352059814453124,-0.0005300017073750496,-0.026126645505428314,-0.005485942121595144
1772094077684009700,9.362009765625,0.00023112958297133446,-0.026665136218070984,-0.0024430141784250736
1772094077693958700,9.371958740234374,0.0017028329893946648,-0.03917504474520683,-0.007029814179986715
1772094077703907800,9.381907958984375,-0.0017536839004606009,-0.04709821566939354,-0.01843799650669098
1772094077713856800,9.391856689453125,-0.0039055603556334972,-0.04344107583165169,-0.023821957409381866
1772094077723807000,9.401806884765625,-0.009036406874656677,-0.044685568660497665,-0.024577230215072632
1772094077733756000,9.411755859375,0.0008931467309594154,-0.04895559325814247,-0.022220980376005173
1772094077743704000,9.4217041015625,0.006932663731276989,-0.0543769933283329,-0.010995221324265003
1772094077753653000,9.431653076171875,0.00365053815767169,-0.06637651473283768,-0.0052397889085114
1772094077763602000,9.441601806640625,0.004937378223985434,-0.06699010729789734,0.012144794687628746
1772094077773552000,9.45155224609375,0.007474083453416824,-0.04280193895101547,-0.005557963624596596
1772094077783501000,9.4615009765625,0.01774003729224205,-0.014302389696240425,-0.020902033895254135
1772094077793450200,9.4714501953125,0.02191111259162426,0.004490953404456377,-0.019519176334142685
1772094077803399200,9.481399169921875,0.03039434552192688,0.0093698650598526,-0.008671856485307217
1772094077813348000,9.49134814453125,0.034509945660829544,0.01987212523818016,0.0032331536058336496
1772094077823298300,9.50129833984375,0.03365933150053024,0.017743725329637527,0.02564125694334507
1772094077833247200,9.511247314453126,0.0417330339550972,-0.010018305853009224,0.06433688849210739
1772094077843196200,9.521196044921876,0.04861117899417877,-0.007383640855550766,0.08594977855682373
1772094077853145000,9.53114501953125,0.04553468897938728,-0.0043570734560489655,0.0817975178360939
1772094077863094000,9.541093994140626,0.04225953295826912,0.017140761017799377,0.06139051169157028
1772094077873044000,9.5510439453125,0.032200995832681656,0.024413997307419777,0.05129854008555412
1772094077882993200,9.5609931640625,0.023093251511454582,0.03337739780545235,0.018177339807152748
1772094077892942000,9.570942138671874,0.013878896832466125,0.049319155514240265,-0.016049258410930634
1772094077902891300,9.580891357421875,0.010494550690054893,0.041434600949287415,-0.030991457402706146
1772094077912840200,9.590840087890625,0.005256556905806065,0.033000025898218155,-0.019859248772263527
