time,seconds_elapsed,z,y,x
1772031812477404000,0.08040380859375,2.1600737553298472,0.5344938301920891,0.8443651774626225
1772031812487352800,0.090352783203125,2.37624105605185,0.4519602161511779,0.7027953640200197
1772031812497300700,0.10030078125,2.5877555625319477,0.4158183509290218,0.5574699609035626
1772031812507250000,0.11025,2.737275092869997,0.3603907704785466,0.37009876575078815
1772031812517198800,0.12019873046875,2.843281644695997,0.3006897504925728,0.14664913513404315
1772031812527146800,0.130146728515625,2.886695254486799,0.2569467626169324,-0.06765594277950003
1772031812537095700,0.140095703125,2.7715193077772855,0.22024697125107048,-0.19566464745197443
1772031812547044900,0.150044921875,2.485745386865735,0.21033318774104118,-0.27378831782983615
1772031812556992800,0.15999267578125,2.1626111648529767,0.19278876322209834,-0.3931870881324634
1772031812566941700,0.169941650390625,1.8920640391677617,0.15393237834423779,-0.5382667728595435
1772031812576890600,0.179890625,1.6109955194681882,0.1454074188441038,-0.5997657821781933
1772031812586838800,0.1898388671875,1.209310907831788,0.14471914431899785,-0.5277630971649662
1772031812596787700,0.19978759765625,0.7369482473820448,0.12746931883245705,-0.4153858777958899
1772031812606737000,0.20973681640625,0.3190916686236858,0.11571370684802532,-0.2642158220381476
1772031812616684800,0.219684814453125,-0.009747487032413482,0.10958324126899242,-0.14173479474596679
1772031812626634000,0.229634033203125,-0.19293781630396842,0.08462824823260306,0.028919037829153237
1772031812636583000,0.2395830078125,-0.1986725605636835,0.0322355054333806,0.16250881230328232
1772031812646530800,0.24953076171875,-0.1906429833650589,-0.056399640353024,0.23396085943011566
1772031812656479700,0.259479736328125,-0.2372755552023649,-0.16755495324432848,0.2578826186949387
1772031812666429000,0.269428955078125,-0.1601432156831026,-0.18845833280235527,0.2284429727914743
1772031812676376800,0.279376953125,0.049506665968894956,-0.21185849761217831,0.13395807806355878
1772031812686325800,0.28932568359375,0.3208265295922756,-0.3087067604705691,-0.04787374927112832
1772031812696274000,0.29927392578125,0.5280360323548317,-0.4533236134588718,-0.22855890905503182
1772031812706222800,0.309222900390625,0.6791741038054228,-0.5812792545035481,-0.33744434078559277
1772031812716171800,0.319171875,0.7830424745589494,-0.8060814048409461,-0.4146462749423459
1772031812726119700,0.32911962890625,0.8002928845673799,-1.0526546574816107,-0.43464338984303175
1772031812736068600,0.339068603515625,0.7364899822205304,-1.233722003249824,-0.3874575315045193
1772031812746017800,0.349017822265625,0.6981400855600833,-1.347891695526242,-0.300881144878827
1772031812755965700,0.358965576171875,0.6379319928348064,-1.452744693402946,-0.19569018375203012
1772031812765914600,0.36891455078125,0.4560995079129934,-1.547371188558638,-0.0769695501729846
1772031812775863800,0.37886376953125,0.16709493451714516,-1.6176210750877855,0.05763429671451449
1772031812785812000,0.38881201171875,-0.09921323842406272,-1.6404285347014664,0.10034195019304752
1772031812795761000,0.398760986328125,-0.2850719101220369,-1.6206810471802948,-0.003825330441817641
1772031812805709800,0.408709716796875,-0.49136020638644695,-1.6768822423517702,-0.2368239389773458
1772031812815657700,0.41865771484375,-0.7456622997134924,-1.8671724667564034,-0.5874514403324574
1772031812825607000,0.42860693359375,-0.9778846631795167,-2.0753850090816615,-0.8810719100259244
1772031812835555800,0.438555908203125,-1.09813425989151,-2.2060005169853567,-1.1031830677136778
1772031812845503700,0.448503662109375,-1.2279045491427183,-2.253098952768743,-1.2183263542626053
1772031812855452700,0.45845263671875,-1.572455653193593,-2.2553730351805688,-1.0719779282413422
1772031812865401900,0.46840185546875,-2.197875954979658,-1.949251907289028,-0.5515840812027454
1772031812875349800,0.478349853515625,-3.1344419348210093,-1.3024486257344483,0.037637802868336435
1772031812885298700,0.488298583984375,-4.143832327854633,-0.5096458046615123,0.41664165001064535
1772031812895247600,0.49824755859375,-4.804599837353825,0.22990005799829957,0.6656297817733139
1772031812905195800,0.50819580078125,-4.796163432919979,0.821960234235227,0.7876027682118117
1772031812915144700,0.518144775390625,-4.310369628489017,1.1975997195109724,0.8077280760694294
1772031812925094000,0.528093994140625,-3.5556624370545147,1.4211679441392422,0.9001141718871891
1772031812935041800,0.538041748046875,-2.6996289605647323,1.4182228305980562,0.9693974784065037
1772031812944991000,0.547990966796875,-1.8978969831049441,1.2465353075936436,0.8469022216595709
1772031812954940000,0.55793994140625,-1.210694471144676,1.118997891961038,0.6330394715528935
1772031812964887800,0.5678876953125,-0.534658080843091,1.131364913842082,0.34443953343518074
1772031812974836700,0.577836669921875,0.026628479206562042,1.2162491826623678,-0.005083879135549068
1772031812984786000,0.587785888671875,0.34455285761654375,1.3738497281253337,-0.34934885972142216
1772031812994733800,0.59773388671875,0.7382704358965158,1.57172470857054,-0.6797241389036178
1772031813004682800,0.607682861328125,1.2274597279846668,1.6368921772688627,-0.9339263520527631
1772031813014631700,0.617631591796875,1.5992559818357228,1.533823724721372,-1.0728609946861862
1772031813024579800,0.627579833984375,1.7120073317468165,1.4078142493084072,-1.1192237366061657
1772031813034528800,0.63752880859375,1.7589795108020305,1.2665633656218647,-1.0915454560857265
1772031813044477700,0.647477783203125,1.704395103177428,1.0080389784246682,-1.026217974520102
1772031813054425600,0.657425537109375,1.6060563095003366,0.6714926093921065,-1.0479421689417212
1772031813064374800,0.667374755859375,1.5488836389482021,0.2344724804803729,-1.3497117505602538
1772031813074324000,0.677323974609375,1.2373749727994203,-0.051259647116065024,-1.4478798638455568
1772031813084271900,0.68727197265625,0.821453161495924,0.18875760800987482,-1.2813681360438465
1772031813094220800,0.697220703125,0.4222340631902218,0.9120856185793876,-1.047971175840497
1772031813104169700,0.707169677734375,-0.18418635457158086,1.5892179874241352,-0.8664959799237549
1772031813114118000,0.717117919921875,-0.7790384996145964,2.121613968554139,-0.6531085191786289
1772031813124066800,0.72706689453125,-1.214241934493184,2.362738892661035,-0.31305604172125456
1772031813134015700,0.737015625,-1.3066349715083836,2.2268103730410336,-0.08338128037881105
1772031813143964000,0.7469638671875,-1.1004010357797145,1.7828999000936745,-0.058133551473543044
1772031813153912800,0.756912841796875,-0.7053168453216553,1.2473588989362119,-0.007608063850924373
1772031813163861800,0.76686181640625,0.4971475576162338,0.7208432080164552,-0.02621998973721638
1772031813173809200,0.77680908203125,1.3079711885482073,0.4177691927358508,-0.4743087895488366
1772031813183758300,0.78675830078125,1.4135276585191487,0.44218964050412174,-0.464286759891361
1772031813193707300,0.796707275390625,1.507954247188568,0.7020338781282305,-0.35513705120142547
1772031813203655200,0.8066552734375,1.7326842090725898,0.6886956731274724,-0.36605968296043573
1772031813213604000,0.81660400390625,1.6764204700589178,0.4164449583947658,-0.48752519480083134
1772031813223553300,0.82655322265625,1.4315537290751934,0.27108605486750603,-0.46296113731078803
1772031813233501200,0.836501220703125,1.4174872097998856,0.16994477099031208,-0.3516733936788514
1772031813243450000,0.8464501953125,1.7475187901109457,-0.01478518893867731,-0.35472660723701116
1772031813253399000,0.85639892578125,2.2697581188857554,-0.028840017776191232,-0.46374136443566527
1772031813263347200,0.86634716796875,2.6071266179561614,-0.04819470658749342,-0.6592590776976197
1772031813273296100,0.876296142578125,2.4431606291145083,-0.11872867075502871,-0.7725684268176555
1772031813283245000,0.8862451171875,1.786897445297241,-0.26074644716084,-0.7125428510524332
1772031813293193200,0.896193115234375,1.05169574932158,-0.33294600645303724,-0.6020842882536351
1772031813303142100,0.90614208984375,0.4442746300846338,-0.2945689295247197,-0.47333417236302044
1772031813313090000,0.916090087890625,-0.040058454144001006,-0.2339163079023361,-0.2638431162682362
1772031813323039000,0.9260390625,-0.33010347650349137,-0.20240268700271843,-0.06493566923644394
1772031813332988200,0.93598828125,-0.454179353505373,-0.18052169458419084,0.02260927016045898
1772031813342936300,0.945936279296875,-0.3933312093108892,-0.14382833295911548,0.07543050403743982
1772031813352885200,0.95588525390625,-0.22475743441283702,-0.16854308749884367,0.09221795444292948
1772031813362834200,0.965834228515625,-0.029403204616904256,-0.2780149773478508,0.03642143108220771
1772031813372782300,0.9757822265625,0.24071488200128077,-0.4234823096856475,-0.0718405715203844
1772031813382731300,0.985731201171875,0.44860827537477016,-0.6019602234825492,-0.16678824318815022
1772031813392680200,0.99568017578125,0.5141834480911494,-0.7957765761867165,-0.21296247679870575
1772031813402628000,1.005628173828125,0.4353308606505394,-0.9405044883340596,-0.19363047474324702
1772031813412577300,1.015577392578125,0.3237029618114233,-1.0538377297863364,-0.14479189902795478
1772031813422526200,1.025526123046875,0.20602643045783042,-1.213876316051185,-0.14925359114455058
1772031813432474000,1.03547412109375,-0.04152443504333496,-1.4374705519035458,-0.18212951337331904
1772031813442423000,1.045423095703125,-0.30405718109905716,-1.7408742375299333,-0.2703068871885538
1772031813452372000,1.0553720703125,-0.4584416871249675,-2.0934271539896727,-0.39621180624850094
1772031813462320000,1.065320068359375,-0.37049218551516533,-2.327904602906108,-0.4687229157079011
1772031813472269000,1.07526904296875,-0.11852759522497654,-2.2558009052038193,-0.40248705059308554
1772031813482218200,1.08521826171875,-0.0927829131156206,-1.9471473362252114,-0.18889246816961094
1772031813492166400,1.09516650390625,-0.5446013827085495,-1.6319383542537689,0.06955309077086858
1772031813502115300,1.105115234375,-1.409476337301731,-1.3754986643761395,0.34224111007545144
1772031813512064300,1.115064208984375,-2.393818798318505,-1.1251198819726704,0.5927765078127384
1772031813522012200,1.12501220703125,-3.2447610891491174,-0.880480520004034,0.675560808679089
1772031813531961000,1.134961181640625,-3.862733413016796,-0.5675713394075632,0.6473268670372665
1772031813541910300,1.14491015625,-4.427424813073873,-0.15459230355769396,0.6884797653544694
1772031813551858200,1.154858154296875,-5.081401347258686,0.3352247650399804,0.8723975321177393
1772031813561807000,1.16480712890625,-5.570089119565487,0.8019358294688165,1.124275832363963
1772031813571756000,1.174756103515625,-5.7100891264081,1.0856275372788309,1.351401018821448
1772031813581704200,1.1847041015625,-5.473779785889387,1.1696188027821481,1.5357865492269396
1772031813591653000,1.194653076171875,-4.8987856030046935,1.1814566862225533,1.7104769073091446
1772031813601602000,1.20460205078125,-4.0366181538045405,1.1640027164660394,1.8383166668891906
1772031813611550200,1.21455029296875,-3.157410137954354,1.062662695146352,1.9446382760137317
1772031813621499100,1.2244990234375,-2.468720017784834,0.9679723409742116,2.117949308566749
1772031813631448300,1.2344482421875,-1.8670213678479193,0.9215867296352982,2.3664342400476337
1772031813641396200,1.244396240234375,-1.2108376790076494,0.9564593055739998,2.558250358845293
1772031813651345200,1.25434521484375,-0.6011188042223453,0.9557765840068458,2.6784932335555554
1772031813661294300,1.26429443359375,-0.007896890729665755,0.9344751450419425,2.6872821046888826
1772031813671242200,1.2742421875,0.5571323629796505,0.9115379215687512,2.6057781259566544
1772031813681191200,1.284191162109375,1.0517425110727547,0.838598065303266,2.4406299415931105
1772031813691140000,1.29414013671875,1.4997294396787881,0.8003063285708427,2.267433475330472
1772031813701088300,1.304088134765625,1.9198048635303973,0.8381824702396988,2.0835878970205783
1772031813711037200,1.314037109375,2.316324055227637,0.9174109052553773,1.884425360982865
1772031813720986000,1.323986083984375,2.646438053125143,1.0279469172045588,1.6565486255057156
1772031813730934000,1.33393408203125,2.802318935188651,1.1717857715576887,1.476142812386155
1772031813740883200,1.34388330078125,2.88217982288897,1.3178770810127258,1.2565684796996415
1772031813750832000,1.35383203125,2.9397721801578998,1.4418123805001377,1.0551609412141143
1772031813760780000,1.363780029296875,2.992575549584627,1.5546765431359408,0.8758527140729129
1772031813770729000,1.37372900390625,3.0257863297909497,1.643532638196647,0.7020400156080723
1772031813780678400,1.383678466796875,3.0023803197622296,1.6843188220933079,0.5247726466447115
1772031813790626300,1.393626220703125,2.9126065253347155,1.6619538455501197,0.32341639995500443
1772031813800575200,1.4035751953125,2.772743881136179,1.6510454980447888,0.17892372133564202
1772031813810524200,1.413524169921875,2.6823060698419807,1.6930948337450622,0.14261037200409918
1772031813820472300,1.423472412109375,2.7025013011306522,1.7356667320147157,0.10654836708512157
1772031813830421200,1.433421142578125,2.7786978211045263,1.7025886382773519,0.010559314871951936
1772031813840370200,1.4433701171875,2.8018665152460334,1.5781816296249627,-0.10090626954492181
1772031813850318000,1.453318115234375,2.7778596167147156,1.4310396420732139,-0.17958295242935418
1772031813860267300,1.463267333984375,2.6832442274749275,1.315765203425288,-0.19517047072686253
1772031813870216200,1.47321630859375,2.5824732382148503,1.2821572405949235,-0.20530162331461904
1772031813880164000,1.4831640625,2.511320557627082,1.233162323540449,-0.2330568049961701
1772031813890113000,1.493113037109375,2.5108102700173855,1.1182777609929442,-0.32907994214203207
1772031813900062200,1.503062255859375,2.543692548921704,0.9201558200493455,-0.4645907478066161
1772031813910010000,1.513010009765625,2.4538170476853844,0.6950725146830081,-0.5423881271058694
1772031813919959000,1.522958984375,2.258400858569145,0.47931934771984813,-0.49669089988991616
1772031813929908200,1.532908203125,2.1290894190013407,0.33396073645353314,-0.397055380933173
1772031813939856100,1.542856201171875,2.054899562674761,0.19214958853572606,-0.2932566778823733
1772031813949805300,1.552805419921875,2.0030226604431864,0.03459522030204534,-0.22089484070055185
1772031813959754200,1.562754150390625,1.9445611191242933,-0.14628946237564086,-0.14813176577407866
1772031813969702100,1.5727021484375,1.817275047904253,-0.33780864405333993,-0.10565642321407795
1772031813979651300,1.5826513671875,1.5767758544802666,-0.5161918653041124,-0.06030410044565797
1772031813989600300,1.592600341796875,1.254041445440054,-0.6168088330462574,-0.03221950414665043
1772031813999548200,1.602548095703125,0.9334902256578207,-0.6234384803190827,-0.04694375667832792
1772031814009497000,1.6124970703125,0.6537076541155576,-0.6189695182114839,-0.1808557488441467
1772031814019446000,1.622446044921875,0.3706751408666372,-0.6824059253334999,-0.3493234330192208
1772031814029394200,1.632394287109375,0.19827742376625537,-0.8160977719426155,-0.6096930827569216
1772031814039343000,1.642343017578125,0.10366495713591575,-0.9451721878841519,-0.8889882361084223
1772031814049292000,1.6522919921875,-0.08476853348612785,-1.0449307852312921,-1.0637539975143968
1772031814059240200,1.662240234375,-0.37514907141029835,-1.1456927144020794,-1.1160913568645716
1772031814069189000,1.672189208984375,-0.5929062716722489,-1.236952363473177,-1.1359624707654117
1772031814079138300,1.68213818359375,-0.7362152569323778,-1.3311474814742803,-1.1428855480268596
1772031814089086000,1.6920859375,-0.9372054467886686,-1.4026248639717698,-1.0849318831648678
1772031814099035100,1.70203515625,-1.2018109074652195,-1.3349874980285763,-0.9643418024521321
1772031814108984300,1.711984375,-1.5619377663105725,-1.2197910930529237,-0.778917795844376
1772031814118932200,1.72193212890625,-1.8844985723495482,-1.1202797484651208,-0.6256194776199757
1772031814128881200,1.731881103515625,-2.0604706408053635,-1.1649389744028449,-0.625855916724354
1772031814138830000,1.741830078125,-2.098321940293908,-1.3928437669306992,-0.8975823153220116
1772031814148778200,1.7517783203125,-1.962199067145586,-1.644330802837014,-1.2952213048294186
1772031814158727200,1.76172705078125,-1.7538240277349948,-1.7965318273440003,-1.6081677486963568
1772031814168676000,1.771676025390625,-1.6205378393173218,-2.0082824806675315,-1.8795000334098935
1772031814178624500,1.78162451171875,-1.552488969963789,-2.3378157560676334,-2.055590029156953
1772031814188573700,1.79157373046875,-1.5689374159395695,-2.664548879355192,-2.0424596216879785
1772031814198522600,1.801522705078125,-1.83848559371531,-2.9336422991007565,-1.7963202304199337
1772031814208470500,1.811470458984375,-2.4652199007093905,-2.9916753858745095,-1.3567879725567995
1772031814218419500,1.82141943359375,-3.429345503127575,-2.7079583974927663,-0.8057485196247697
1772031814228368600,1.83136865234375,-4.658291670277714,-2.135372444793582,-0.10607260279953479
1772031814238316500,1.841316650390625,-5.81754996869564,-1.3673545208871363,0.5451495181106031
1772031814248265500,1.851265380859375,-6.4150108349323265,-0.4415156867653131,0.9287089827306568
1772031814258214400,1.86121435546875,-6.302607860067487,0.45884734531641,1.0468009630173445
1772031814268162600,1.87116259765625,-5.650822113925218,1.1124223129630089,0.8299266830697655
1772031814278111500,1.881111572265625,-4.694316923382878,1.4007137696534395,0.3868298645928502
1772031814288059400,1.891059326171875,-3.561059327661991,1.4163742801219223,-0.053143853427469724
1772031814298008300,1.90100830078125,-2.503874917796254,1.220085107563436,-0.33154461522251366
1772031814307957500,1.91095751953125,-1.6920903328776358,0.8978086714237928,-0.538008414184302
1772031814317905400,1.920905517578125,-1.082345154607296,0.5944909105151891,-0.5833116371139884
1772031814327854300,1.930854248046875,-0.565044451278448,0.35824557514339683,-0.5407241028837859
1772031814337803500,1.940803466796875,-0.15233926393389702,0.26003099236786364,-0.5011427647322416
1772031814347751700,1.950751708984375,0.13356383631527424,0.2853060111388564,-0.4414385298758745
1772031814357700600,1.96070068359375,0.31512977925539015,0.4357034933552146,-0.384364643523097
1772031814367649500,1.9706494140625,0.3937029652327299,0.644197482970357,-0.313185805580765
1772031814377598500,1.980598388671875,0.31351299170851704,0.8865311983451246,-0.2458519526287913
1772031814387546600,1.990546630859375,0.13884732967615127,1.185890284755826,-0.16116218346729874
1772031814397495600,2.00049560546875,0.07045242336392402,1.5033619509622453,-0.11414762657508254
1772031814407443500,2.010443359375,0.16992168237566946,1.7967416707023978,-0.10970292212590575
1772031814417392400,2.020392333984375,0.42924072708189487,2.0252549505174158,-0.15979732485488057
1772031814427341600,2.030341552734375,0.7776356470793485,2.196670963104069,-0.2505363110527396
1772031814437289500,2.04028955078125,1.197201367843151,2.341637944704294,-0.3558350068703294
1772031814447238400,2.05023828125,1.6208119800835847,2.3986732526123524,-0.4586190895184874
1772031814457187300,2.060187255859375,1.9955559778243301,2.338746899437904,-0.5396154109895229
1772031814467135500,2.070135498046875,2.3412089056372642,2.1902543740600344,-0.5730049087636172
1772031814477084400,2.08008447265625,2.6033663886398077,1.9974112503021955,-0.5851297924518585
1772031814487033600,2.09003369140625,2.753517202618718,1.77302381824553,-0.5843472637720406
1772031814496981500,2.0999814453125,2.8584675233900545,1.553249725203216,-0.5922630053326488
1772031814506930700,2.1099306640625,2.9365473728924987,1.372049692966044,-0.5871295879669487
1772031814516879600,2.119879638671875,3.0049352649420498,1.2329027958214283,-0.5526300831243396
1772031814526827500,2.12982763671875,3.01258139578104,1.120042724838853,-0.49647331161648034
1772031814536776400,2.1397763671875,2.9573610283404586,1.0459259337484836,-0.4053707528032362
1772031814546725600,2.1497255859375,2.85457869925797,1.0120762711167335,-0.30596885993927714
1772031814556673500,2.159673583984375,2.7038573919147253,1.0001301049962639,-0.22162593145407736
1772031814566622500,2.16962255859375,2.3780974975734948,0.9126973207369447,-0.12361746570989489
1772031814576571400,2.1795712890625,2.1031939302444456,0.9435004552796482,-0.05699672946333885
1772031814586519600,2.18951953125,1.9418828398257493,1.011676165883243,-0.04250321694761514
1772031814596468500,2.199468505859375,1.8210726866215465,1.018412780661881,-0.055847851689159865
1772031814606417400,2.20941748046875,1.710420939338207,1.0497872853517531,-0.08868819114789366
1772031814616365300,2.219365234375,1.583475644379854,1.1066577580869197,-0.07544080623574555
1772031814626314500,2.229314453125,1.4769810167759656,1.140691837374866,-0.07912497464120388
1772031814636263700,2.239263671875,1.3758750964730977,1.1372720920592545,-0.09314297859966754
1772031814646211300,2.24921142578125,1.2519044334113598,1.0845882573589682,-0.11207673858515918
1772031814656160500,2.259160400390625,1.0756950490683317,0.9759534028559923,-0.10186718699894845
1772031814666109400,2.269109375,0.9474667285621166,0.8610176946431398,-0.09052391867507248
1772031814676057600,2.2790576171875,0.8437415656715631,0.6992436628878116,-0.08450432959198952
1772031814686006500,2.289006591796875,0.7987374718189238,0.5337225535586476,-0.11354885696433484
1772031814695955500,2.29895556640625,0.7836416094958781,0.389094302393496,-0.10821918637417256
1772031814705903600,2.308903564453125,0.7764028904139995,0.2497776016399264,-0.10765084843430668
1772031814715852500,2.3188525390625,0.8322966270714998,0.008918342731893063,-0.15575469840057193
1772031814725801500,2.328801513671875,0.9281938728153705,-0.2574929983228445,-0.23821773142330346
1772031814735749400,2.338749267578125,1.0359896461457014,-0.4773831189602613,-0.25865119191464037
1772031814745698600,2.348698486328125,1.0465069485068321,-0.7136319614633917,-0.2514556909199804
1772031814755647500,2.3586474609375,0.8487783907949924,-0.9008943624794483,-0.13795673751197754
1772031814765595400,2.368595458984375,0.4918056120663881,-0.9777318107053637,0.09496650423239916
1772031814775544300,2.37854443359375,-0.013290858727693557,-1.0259767861753701,0.36655795133877545
1772031814785493500,2.388493408203125,-0.6533575255036354,-1.0828870063990355,0.5792286055840552
1772031814795441400,2.39844140625,-1.3946248051285743,-1.1760004666432737,0.6733239895377308
1772031814805390600,2.408390625,-2.252253441855311,-1.3817822746902704,0.6787094819683581
1772031814815339500,2.418339599609375,-2.9915859540253877,-1.6262959644526243,0.6034568917810916
1772031814825287700,2.42828759765625,-3.365841291466355,-1.7063149653241036,0.5694775383550673
1772031814835236600,2.438236572265625,-3.276802241054177,-1.5622612991765141,0.5364774782899767
1772031814845185500,2.448185546875,-2.8999165551096198,-1.4183900038585067,0.4679837147131562
1772031814855133400,2.458133544921875,-2.441674774470925,-1.3046323995143174,0.42552557901628313
1772031814865082600,2.46808251953125,-2.1730331901460884,-1.3829425506412982,0.33398499411195515
1772031814875031600,2.478031494140625,-2.058430074888468,-1.6578735904991626,0.20277152031511067
1772031814884979500,2.4879794921875,-2.0211270569324493,-1.8174980430051684,0.29304639613255856
1772031814894928400,2.497928466796875,-2.2005963198542595,-1.6903247845098375,0.5938735823344439
1772031814904877300,2.507877197265625,-2.651056945097446,-1.3925357238948344,0.9900115926943719
1772031814914825500,2.517825439453125,-3.2445553374439475,-0.9106588006466627,1.2986404656231403
1772031814924774400,2.5277744140625,-3.7533611841499805,-0.34123686493635175,1.5378436278872192
1772031814934723600,2.5377236328125,-4.271582509455085,0.26734832964390515,1.7154620022453366
1772031814944671500,2.54767138671875,-4.5555987730443475,0.9676730657666921,1.8250903978303075
1772031814954620700,2.55762060546875,-4.414372439277172,1.6818877955541014,1.800303162576258
1772031814964569600,2.567569580078125,-3.816196118247509,2.1811457694530487,1.5844553030669688
1772031814974517500,2.577517578125,-2.871146387699246,2.391374035514891,1.2432152232602238
1772031814984466400,2.587466552734375,-1.7864952942371368,2.380734568078816,0.8929672958072274
1772031814994415600,2.59741552734375,-0.7498503990530967,2.216729124009609,0.6233574509721249
1772031815004363500,2.607363525390625,0.14571838448941707,1.9128554827839135,0.45207142144069073
1772031815014312400,2.6173125,0.8842050934851169,1.5987150068268179,0.299181537886709
1772031815024261400,2.627261474609375,1.5235703339934348,1.3974866243004798,0.20179054645374417
1772031815034209500,2.63720947265625,2.105101225170493,1.2997551488667727,0.1439458218589425
1772031815044158500,2.647158447265625,2.602925659134984,1.2446391185835004,0.08790368970669805
1772031815054107400,2.657107421875,2.993485650166869,1.174573356449604,0.02624861304350197
1772031815064055600,2.6670556640625,3.331436333039403,1.0979983585521578,-0.03014898148290813
1772031815074004500,2.67700439453125,3.5969723525643347,0.97618136639297,-0.06977715445086359
1772031815083953700,2.68695361328125,3.7950814340263603,0.8133885129839181,-0.11361125467605888
1772031815093901300,2.6969013671875,3.808462893646955,0.5779030560687184,-0.1369066439371556
1772031815103850500,2.7068505859375,3.690589962938428,0.36275925317555663,-0.1482921074349433
1772031815113799700,2.716799560546875,3.5319062984138725,0.24504823503047227,-0.21284699719287453
1772031815123747600,2.72674755859375,3.367581413131952,0.17145400650948284,-0.3744884155444801
1772031815133696500,2.736696533203125,3.1888983321517705,0.13052782962024212,-0.5426711452983319
1772031815143645400,2.7466455078125,2.9346237113535403,0.14699877968877553,-0.6763922180019318
1772031815153594400,2.756594482421875,2.6197242337226867,0.24207038826346397,-0.7472420431856066
1772031815163542500,2.76654248046875,2.330806754088402,0.3813338975250721,-0.8267834896732121
1772031815173495000,2.7764951171875,2.1283704570770263,0.47566579364836215,-0.8556508338477462
1772031815183444000,2.78644384765625,1.9651842204362153,0.48577393068671226,-0.8766523400180041
1772031815193392000,2.79639208984375,1.7838848194777965,0.3879419174879789,-0.9138624920587987
1772031815203341000,2.806341064453125,1.4936322918474674,0.1964250738978386,-0.950943683957681
1772031815213290000,2.8162900390625,1.0662076742768287,-0.0402852486371994,-0.9568553922194987
1772031815223238000,2.82623779296875,0.5393798486679792,-0.25920155580639836,-0.8623886907353997
1772031815233187000,2.83618701171875,-0.04535714507400989,-0.44226855095922946,-0.7359464499283581
1772031815243135000,2.846135009765625,-0.6141355221837759,-0.5820271502614021,-0.5459643416248262
1772031815253084000,2.856083984375,-1.085888526302576,-0.6461942097455263,-0.34484446097426114
1772031815263033000,2.866033203125,-1.3042951303839683,-0.654687897324562,-0.1786067278083414
1772031815272982000,2.87598193359375,-1.259645256796479,-0.6693588122338057,-0.08879428187087178
1772031815282930200,2.88593017578125,-1.1794716498851776,-0.8169853684321046,-0.07264817984253168
1772031815292879000,2.895879150390625,-1.0848860712617636,-1.0120072975337504,-0.04751549215167761
1772031815302828000,2.905828125,-0.9032125762939452,-1.2071876320675015,0.04156644755415618
1772031815312776200,2.915776123046875,-0.6832996593028307,-1.4464602063059806,0.09661036244928836
1772031815322725000,2.92572509765625,-0.4259089523106813,-1.6786074587091802,0.027255013607069847
1772031815332674000,2.935674072265625,-0.12535714898407457,-1.8214669466361402,-0.1445492676448077
1772031815342622000,2.9456220703125,0.11692483620345592,-1.8483631368681788,-0.3306196093320846
1772031815352571100,2.955571044921875,0.20531974349319934,-1.8491338289797306,-0.4821593934513628
1772031815362520000,2.96552001953125,0.16600480119287966,-1.8211098037615416,-0.623682225947082
1772031815372468000,2.975468017578125,0.038110242685675616,-1.710275393387675,-0.726957014721632
1772031815382417000,2.9854169921875,-0.16015782873034476,-1.5368679147228597,-0.7819060909401625
1772031815392365800,2.99536572265625,-0.4130278434276581,-1.3585998442843557,-0.7772959667962044
1772031815402314000,3.00531396484375,-0.6516372775822877,-1.207509119106829,-0.7294961778104305
1772031815412263200,3.01526318359375,-0.892679491841793,-1.0564449896752834,-0.616113105867058
1772031815422212000,3.025212158203125,-1.1883832706153392,-0.983872797678411,-0.5394140431985259
1772031815432160300,3.03516015625,-1.5789485223442314,-1.1750886124953628,-0.6543474133238196
1772031815442109200,3.045109130859375,-1.7535902189791202,-1.564570160640776,-0.9427011215955018
1772031815452058000,3.05505810546875,-1.6546084512233734,-1.8932091175496577,-1.1813846438996494
1772031815462006000,3.065006103515625,-1.487114872777462,-1.9927283531829714,-1.3134893674477934
1772031815471955000,3.074954833984375,-1.2528519433945418,-1.9690090394213795,-1.3928202399246394
1772031815481904000,3.084904052734375,-1.0228595309376716,-1.8830141790106891,-1.3664499732628463
1772031815491852000,3.09485205078125,-1.0398463215738534,-1.6966902278885245,-1.1802464336499572
1772031815501801000,3.104801025390625,-1.483013282677531,-1.4707751478731632,-0.8109215383484959
1772031815511750000,3.11475,-2.159483388221264,-1.1215393931373954,-0.37268238903582096
1772031815521698000,3.124697998046875,-2.9962019233882424,-0.7674512299343943,0.041128421463072294
1772031815531647000,3.13464697265625,-3.9050715025305744,-0.44510669699460265,0.4032430931247771
1772031815541596000,3.144595947265625,-4.546328255873918,0.03810761233717203,0.6700580465443432
1772031815551544000,3.1545439453125,-4.706913954627514,0.5689557795032858,0.7830949353985488
1772031815561493200,3.1644931640625,-4.471760798406601,1.0039604769393802,0.6767642661847174
1772031815571442200,3.174442138671875,-3.939067880156636,1.276415774333477,0.39575098380371926
1772031815581390000,3.18439013671875,-3.2438451433479782,1.4191981053709983,0.11040522517636418
1772031815591339000,3.194339111328125,-2.5093846211284396,1.473321325224638,-0.056293111238628624
1772031815601288200,3.2042880859375,-1.9183996729075907,1.4473159463524818,-0.10433262726441025
1772031815611236000,3.214236083984375,-1.4577964238345622,1.4051967602863906,-0.09573547931089997
1772031815621185000,3.22418505859375,-1.0489537571370602,1.4198948554635047,-0.08288958787173033
1772031815631134000,3.234134033203125,-0.7072615496486425,1.5074530196681617,-0.08611834065988659
1772031815641082000,3.24408203125,-0.4382850342810154,1.6051505928322671,-0.09878493000939488
1772031815651031000,3.254031005859375,-0.2342085688471794,1.738594017638266,-0.12220949860811232
1772031815660980000,3.26397998046875,-0.032384266254305835,1.9235466804072259,-0.1324133511058986
1772031815670928100,3.27392822265625,0.19698738395571708,2.130382673682272,-0.11575929955542087
1772031815680877000,3.283876953125,0.4029395801335573,2.2649425352975725,-0.1440584884531796
1772031815690826000,3.293825927734375,0.5232008672833443,2.3242650773599745,-0.25065862225815655
1772031815700774000,3.30377392578125,0.5314280128806829,2.393647533404827,-0.3892424786925316
1772031815710723000,3.31372314453125,0.5843734211266041,2.5357298994794486,-0.3993191246140748
1772031815720672300,3.32367236328125,0.699616003331542,2.6602754398196935,-0.31809133247472343
1772031815730620200,3.3336201171875,0.8584276781499385,2.8121687135517597,-0.20538331024870277
1772031815740569000,3.343569091796875,1.088880109333992,2.8851135382533073,-0.07713065901882946
1772031815750518000,3.35351806640625,1.2699521312773228,2.8827903560027477,0.08586904207393527
1772031815760466200,3.363466064453125,1.3648960218191146,2.7617706517010925,0.2368041748309508
1772031815770415000,3.3734150390625,1.3956833742707966,2.576257724700868,0.3407680783808231
1772031815780364000,3.383364013671875,1.4499854578226803,2.396372866715491,0.3793514184709638
1772031815790312000,3.39331201171875,1.6002479154825209,2.2047624996230004,0.34537031147927044
1772031815800261000,3.40326123046875,1.8926777871519327,1.9399796365529298,0.25522834132649
1772031815810210000,3.4132099609375,2.2080799536079168,1.614580392217636,0.132622463811934
1772031815820158000,3.423157958984375,2.4447563738733527,1.3178259353473782,0.0312903700703755
1772031815830107000,3.43310693359375,2.6048978359907866,1.1009575006186962,-0.012338014982268214
1772031815840056000,3.44305615234375,2.640242705616355,0.9444748532697558,0.01533964448366314
1772031815850004000,3.45300390625,2.536844874984026,0.8667997851759195,0.10088318093027919
1772031815859953000,3.462952880859375,2.3666601577579973,0.8450912267148494,0.2274555874556303
1772031815869902000,3.472902099609375,2.1662030518651005,0.796372496253252,0.3704766226198524
1772031815879850200,3.482850341796875,1.976581812763214,0.7072077736347914,0.4845706923767924
1772031815889799200,3.492799072265625,1.762809298223257,0.6221031400620937,0.576293794241175
1772031815899748000,3.502748046875,1.5736971776872872,0.5878258996680379,0.6252567087221891
1772031815909696000,3.512696044921875,1.403002757373452,0.5446694795086979,0.628279490609467
1772031815919645200,3.522645263671875,1.2999264137804507,0.48381607461720705,0.5577462570942938
1772031815929594000,3.532593994140625,1.2028642159104346,0.4250266165181994,0.4487810746584087
1772031815939542000,3.5425419921875,1.071785182148218,0.37176205932050943,0.39543570730946953
1772031815949491000,3.552490966796875,1.0047487047076225,0.33898499435633417,0.37715343350265174
1772031815959440000,3.56243994140625,0.9372679906308651,0.28165391837209464,0.39255704660061747
1772031815969388000,3.572387939453125,0.8654594764828681,0.1616892760813236,0.4463799683334306
1772031815979337000,3.5823369140625,0.8441261810749768,0.04307312579005956,0.4928007605835795
1772031815989286000,3.592285888671875,0.7531798357367515,-0.08326952710002661,0.5459007748693228
1772031815999234000,3.602234130859375,0.5970937864899635,-0.23678514133691786,0.6355317998252809
1772031816009183000,3.612182861328125,0.5091700038433075,-0.4140720917835831,0.6501670588992535
1772031816019132200,3.622132080078125,0.4837281040728092,-0.6014058044701814,0.5985132978990674
1772031816029080000,3.632080078125,0.4960276136755943,-0.8265610060289502,0.49491556078046556
1772031816039029200,3.642029296875,0.4972586167752742,-1.0770718903794885,0.36680801710970695
1772031816048978200,3.651978271484375,0.43143560677766796,-1.2798708832234142,0.2699836465835571
1772031816058926000,3.661926025390625,0.26833938650786876,-1.3606763582974672,0.2513824064880609
1772031816068875000,3.671875,0.14208967259824276,-1.2941846552580594,0.3078102500222623
1772031816078824000,3.681823974609375,0.012981062126159668,-1.1969070610716939,0.3496055378962308
1772031816088772000,3.691772216796875,-0.24447277323007582,-1.1258940812155604,0.4048272935763001
1772031816098721000,3.701720947265625,-0.5564595782846212,-1.087507651937008,0.4514765242874622
1772031816108670000,3.711669921875,-0.7958569479465484,-1.0169687193334103,0.4827169542688876
1772031816118618000,3.7216181640625,-1.0167524462342261,-0.9050158263236284,0.49988041664622723
1772031816128567000,3.731567138671875,-1.3555921869009733,-0.9940174673348665,0.31208982703760263
1772031816138516000,3.741515869140625,-1.71394034563601,-1.3980854669764637,-0.1479316035594791
1772031816148465200,3.751465087890625,-1.855056204766035,-1.7592673878327012,-0.6398838575549424
1772031816158413000,3.7614130859375,-1.7688357189059256,-1.8953221641808746,-0.9631580725602805
1772031816168362200,3.7713623046875,-1.6279051532149313,-1.940079589796066,-1.1241725911851972
1772031816178306300,3.781306396484375,-1.3378829272091388,-2.0366978432908653,-1.1966687953364104
1772031816188255200,3.791255126953125,-0.9922492886185645,-2.1032202337294814,-1.031163541163504
1772031816198204200,3.8012041015625,-0.8720885392338037,-1.9540458635672926,-0.44925643708519636
1772031816208153600,3.811153564453125,-1.1873474978268146,-1.602021647156775,0.42622590930536386
1772031816218101200,3.821101318359375,-1.8965268637955188,-1.105122219082713,1.2016216685034333
1772031816228050400,3.831050537109375,-2.808803036510944,-0.5545011376932263,1.7631477363973855
1772031816237998600,3.84099853515625,-3.5590965031564235,-0.08387187690734862,2.0113596961557865
1772031816247947500,3.850947509765625,-3.8333506666660306,0.6086068218901753,2.1746697053067385
1772031816257896400,3.860896484375,-3.4267028796643015,1.5887001010298727,2.2102307019010183
1772031816267845400,3.870845458984375,-2.7365795118212697,2.35278916105479,1.9218124039605258
1772031816277793300,3.880793212890625,-2.024087075781822,2.5237086222961542,1.2397808648973703
1772031816287742500,3.890742431640625,-1.394559923198819,2.251438910602033,0.46897827870845793
1772031816297691400,3.90069140625,-0.6838701526671648,2.1068191350042818,0.04518544176891446
1772031816307639300,3.910639404296875,-0.001717325311899185,1.9557170116499065,-0.25280308694094417
1772031816317588200,3.920588134765625,0.52091480217278,1.7259204140260815,-0.5037099118065088
1772031816327537400,3.930537353515625,0.9117179543107747,1.4935764700070022,-0.6451042225517332
1772031816337485300,3.9404853515625,1.2462345710813998,1.2276415142923593,-0.7030771035708486
1772031816347434200,3.950434326171875,1.4883371080487966,0.8866060171470046,-0.6976330128207803
1772031816357383400,3.960383544921875,1.628993532973528,0.5327390954792499,-0.6390464568827301
1772031816367331300,3.970331298828125,1.699870903751254,0.21120470987856388,-0.5339082123238593
1772031816377280500,3.980280517578125,1.6894243285387753,-0.05645195506215095,-0.32696079456359145
1772031816387229400,3.9902294921875,1.685571744763851,-0.21189619927406309,-0.017933569967001677
1772031816397177300,4.00017724609375,1.602691216981411,-0.25241262631863354,0.328324045740813
1772031816407126500,4.01012646484375,1.4105968657642602,-0.23819939204901455,0.6929394481770694
1772031816417075500,4.020075439453125,1.053232457369566,-0.09917056832611561,0.9839841490983963
1772031816427023400,4.0300234375,0.6187316178023815,0.179523623457551,1.1596814922660588
1772031816436972300,4.03997216796875,0.2227531088531017,0.4845759530737996,1.1550275289803742
1772031816446921500,4.04992138671875,-0.04155073852837086,0.8175544004917145,0.9755540282748639
1772031816456869400,4.059869384765625,-0.09323942471146583,1.2040668696984649,0.692876612073928
1772031816466818300,4.069818359375,-0.01740121665596962,1.5622808806598185,0.39241979355439544
1772031816476767200,4.079767333984375,0.10776420914828777,1.792063742019236,0.09181151080019771
1772031816486715400,4.08971533203125,0.2540145085573196,1.8716385062545537,-0.1587242887958884
1772031816496664300,4.099664306640625,0.443028429415822,1.781606353151798,-0.31933198018558323
1772031816506613500,4.109613525390625,0.7292705523610115,1.5516218317404389,-0.4014200424160808
1772031816516561200,4.11956103515625,1.0755763911247254,1.2317585942223668,-0.4178860971137881
1772031816526510600,4.129510498046875,1.3586486518621443,0.8692714359864592,-0.34298590056076644
1772031816536459500,4.13945947265625,1.5717776078015564,0.5689733151599764,-0.23935024258457122
1772031816546407400,4.149407470703125,1.7315607580006123,0.3138017455220222,-0.15972206766158342
1772031816556356400,4.1593564453125,1.8199276082396507,0.08651976106762886,-0.11957856558263301
1772031816566305300,4.16930517578125,1.9003034597247839,-0.08638678233772516,-0.08109006416909396
1772031816576253400,4.17925341796875,1.9759826778262852,-0.18741437670737504,-0.03329991979449987
1772031816586202400,4.189202392578125,2.0180641622304916,-0.2535045132085681,0.024417598224058746
1772031816596151300,4.1991513671875,1.9728736058950422,-0.32854455662369725,0.06158756438493728
1772031816606099500,4.209099365234375,1.771817365065217,-0.39222763198316096,0.13452727451995014
1772031816616048400,4.21904833984375,1.4456769469738007,-0.45893385455608365,0.2595270614337176
1772031816625997300,4.228997314453125,1.1291022296071052,-0.47184711214303965,0.37979645882472396
1772031816635945200,4.2389453125,0.8720195656508207,-0.5045122411653399,0.5026647866677493
1772031816645894400,4.248894287109375,0.6599293051093816,-0.5724933059796691,0.6211964735459536
1772031816655843600,4.258843505859375,0.5244692797839641,-0.6590297259211539,0.6865724704284221
1772031816665791200,4.268791259765625,0.47435295748412604,-0.7848252663224935,0.6715079530917107
1772031816675740400,4.278740478515625,0.4323287562251091,-0.869706320272386,0.649183308558911
1772031816685689300,4.288689453125,0.4348761026203632,-0.9891340792074799,0.5169358886044472
1772031816695637500,4.298637451171875,0.5372235474169254,-1.0738058743208647,0.29941183951124545
1772031816705586400,4.30858642578125,0.7298860539108515,-1.1378232962012291,0.033358956505358216
1772031816715535400,4.318535400390625,0.8398322832733393,-1.1967284896343946,-0.19540486400462687
1772031816725483500,4.3284833984375,0.868518279531598,-1.1963257540524006,-0.4123461447738111
1772031816735432400,4.338432373046875,0.8209522262364626,-1.1716723743110895,-0.616976079371944
1772031816745381400,4.34838134765625,0.7149673017203807,-1.116912902380526,-0.7568740140795708
1772031816755329300,4.358329345703125,0.5514566554307937,-1.0158198415592312,-0.8256612076450138
1772031816765278500,4.368278564453125,0.33777181917428967,-0.9048840166375041,-0.8877448119185865
1772031816775227400,4.378227294921875,0.11530629509091377,-0.7789052286237478,-0.919812194243446
1772031816785175300,4.38817529296875,-0.07752455370724201,-0.6460293745726347,-0.8776444197952746
1772031816795124200,4.398124267578125,-0.25422785904705525,-0.5156345236822962,-0.7904461018789559
1772031816805073200,4.4080732421875,-0.47721594569981096,-0.46746319797039027,-0.7662615086931734
1772031816815021300,4.418021240234375,-0.7604045262932777,-0.5586854376405477,-0.8433324003487825
1772031816824970500,4.427970458984375,-1.0381395176559687,-0.7226663317903876,-0.9566370002284645
1772031816834919400,4.43791943359375,-1.2376438528686762,-0.7846437722757458,-0.959444751125574
1772031816844868400,4.447868408203125,-1.2894547041267155,-0.8216139050155877,-0.9295372502483427
1772031816854816500,4.45781640625,-1.3131792785853147,-0.99025285410434,-1.0551598452355713
1772031816864765400,4.467765380859375,-1.4366063362896442,-1.2428686017796395,-1.326647539706528
1772031816874714400,4.47771435546875,-1.5995289535582065,-1.5906646791011094,-1.700663807694614
1772031816884662300,4.487662353515625,-1.4912649781942366,-1.6387366360917686,-1.859414984497428
1772031816894611500,4.497611572265625,-1.1959347089082002,-1.1597282540172338,-1.6448470817960799
1772031816904560400,4.507560302734375,-1.145626663428545,-0.5102008081957697,-1.2328545727655291
1772031816914508300,4.51750830078125,-1.6263643535137176,0.05140373176187277,-0.7294762310009449
1772031816924457200,4.527457275390625,-2.393725859338045,0.5014288881972432,-0.15083492378555238
1772031816934406400,4.537406494140625,-3.1589819173157214,0.8404492461279034,0.34434769043326374
1772031816944354300,4.547354248046875,-3.74565952373147,1.1928928569942712,0.7424444336455315
1772031816954303200,4.55730322265625,-3.889404562321305,1.5492323062554,0.9077228933252394
1772031816964252400,4.56725244140625,-3.4935844588041305,1.8264923735827205,0.710051618758589
1772031816974200600,4.57720068359375,-2.6391858900398013,1.9365502466261386,0.19920484080947934
1772031816984149500,4.5871494140625,-1.6950409993767737,1.869200173191726,-0.2878908400002867
1772031816994098400,4.597098388671875,-0.9281044409662484,1.68052878216058,-0.6384715065389871
1772031817004046300,4.60704638671875,-0.3312789500236511,1.4062836787402628,-0.9121960201513022
1772031817013995500,4.61699560546875,0.10679624089896678,1.0913657886698842,-1.0822965662252158
1772031817023944400,4.6269443359375,0.3711638011664152,0.7434186124399303,-1.1286476177074014
1772031817033892400,4.636892333984375,0.4272995298862457,0.4185901537299156,-1.001755221980065
1772031817043841300,4.64684130859375,0.3443973747938871,0.18702333156317472,-0.7196740911718458
1772031817053790200,4.656790283203125,0.1498778422564268,0.09012596886605023,-0.3163237382803112
1772031817063738400,4.66673828125,-0.17017594939768313,0.1510956936135888,0.12862857187017798
1772031817073687300,4.676687255859375,-0.5808130982965231,0.39284254901111126,0.5854026180438697
1772031817083636200,4.68663623046875,-0.9356313293397426,0.686025577135384,0.9916970615632832
1772031817093584400,4.69658447265625,-1.2280647081404923,0.946143663264811,1.2710365655131637
1772031817103533300,4.706533203125,-1.3569067766308784,1.2234563375622034,1.4157183004312217
1772031817113482500,4.716482421875,-1.2327075655102728,1.526762700293958,1.41702222263664
1772031817123430400,4.726430419921875,-0.8920990616053343,1.7606088655695318,1.279498835040629
1772031817133379600,4.736379638671875,-0.34263328773081303,1.8860759046688675,1.038549267500639
1772031817143328500,4.74632861328125,0.2891121254235506,1.9117931142494082,0.7359777218494564
1772031817153276400,4.7562763671875,0.8951017505526542,1.7503201112672686,0.43288755915164945
1772031817163225300,4.766225341796875,1.4567828628778456,1.4342206101968884,0.18554361439943312
1772031817173174300,4.77617431640625,1.914070703792572,1.0739122573047877,-0.012564371084049343
1772031817183122700,4.786122802734375,2.300488772714138,0.6884419906273483,-0.13575582993421703
1772031817193071600,4.796071533203125,2.5888345899403093,0.28645868830531834,-0.21115257783252744
1772031817203020500,4.8060205078125,2.835348513609171,-0.0678740973085165,-0.27559447220265865
1772031817212968700,4.81596875,3.022214316523075,-0.36863662077635523,-0.3330078561754897
1772031817222917600,4.825917724609375,3.1430718160003424,-0.6323436713084578,-0.3268654809629544
1772031817232866600,4.835866455078125,3.135741326981783,-0.8278186048746109,-0.24757420984413472
1772031817242814500,4.845814453125,2.9868489886313676,-0.9716837627127766,-0.11207275652978568
1772031817252763400,4.855763427734375,2.6862410712033506,-1.040485203999281,0.060370735941082235
1772031817262712800,4.865712890625,2.311781151100993,-0.98107702948004,0.23286950226314365
1772031817272661800,4.875661865234375,1.9522014047443865,-0.8154474913403391,0.3435033120309934
1772031817282609700,4.885609619140625,1.6069582267761229,-0.6534998565837741,0.38973658235240727
1772031817292558600,4.89555859375,1.236060967591405,-0.5175356811285019,0.39562881872877476
1772031817302506800,4.9055068359375,0.8703577699184417,-0.38499271229356524,0.43591121782176195
1772031817312455700,4.91545556640625,0.6079518651127815,-0.21564590719640253,0.4759470948077738
1772031817322404600,4.925404541015625,0.42382863890528677,-0.08630757962167263,0.4817914369218051
1772031817332352500,4.9353525390625,0.31964871798455713,-0.07514496509432793,0.39103206552304326
1772031817342301700,4.9453017578125,0.2973889553815126,-0.14600041630119084,0.2500646384203806
1772031817352250600,4.955250732421875,0.3534825985252857,-0.2859077764242887,0.07217409605737775
1772031817362199600,4.965199462890625,0.4349842391699552,-0.4295934860423207,-0.09070910251624882
1772031817372147500,4.9751474609375,0.4477992970794439,-0.5717760976210237,-0.227171290621534
1772031817382096600,4.9850966796875,0.37805063807070255,-0.7684393641889095,-0.3003786387167871
1772031817392045800,4.9950458984375,0.2663110955506563,-0.9957587580442429,-0.31722938188314437
1772031817401993500,5.004993408203125,0.10933715755343437,-1.1368287322059274,-0.2607071745963767
1772031817411942700,5.014942626953125,-0.16259528501033782,-1.124766538490355,-0.11062248465623706
1772031817421891600,5.0248916015625,-0.5020271463513374,-0.9462430319860577,0.1248677945645526
1772031817431839700,5.03483984375,-0.8786486284017563,-0.6745166333884001,0.3906481077067554
1772031817441788700,5.04478857421875,-1.2830851690948009,-0.5453641837745905,0.4274225717440247
1772031817451737600,5.054737548828125,-1.604565194159746,-0.763024353402853,0.04754219749551266
1772031817461685800,5.064685791015625,-1.5941618735671041,-1.0446528450727461,-0.3233127569174394
1772031817471634700,5.074634765625,-1.3157763093411923,-0.9480933360278606,-0.32230526037532836
1772031817481583600,5.08458349609375,-1.0420534762293099,-0.7589440983518958,-0.26756642937399444
1772031817491531500,5.094531494140625,-1.0434715263336896,-0.9639566755920648,-0.3973161507612094
1772031817501480700,5.104480712890625,-1.1553764885485172,-1.2296546076804398,-0.4546680868703872
1772031817511429600,5.1144296875,-1.2311428004115819,-1.1714590238213538,-0.11808642732873559
1772031817521377500,5.12437744140625,-1.3631506394565105,-0.8915162932813167,0.42979916468225415
1772031817531326500,5.134326416015625,-1.7271067012012005,-0.5225535092905164,0.9564028261464088
1772031817541275600,5.144275634765625,-2.198621804910898,-0.003647416591644287,1.382495391395688
1772031817551223600,5.1542236328125,-2.709325594192743,0.5197624172672629,1.6413161311909557
1772031817561172700,5.1641728515625,-3.248055454519391,1.0074038953915239,1.7559020030528305
1772031817571121700,5.17412158203125,-3.5235008736401796,1.4972913988769054,1.783375554781407
1772031817581069800,5.18406982421875,-3.452665588438511,1.9647899604216217,1.7100582435056566
1772031817591018800,5.194018798828125,-3.009888503435254,2.26519826362431,1.5032508918032048
1772031817600967700,5.2039677734375,-2.3043992241561413,2.3648569077283144,1.171724250628799
1772031817610915600,5.21391552734375,-1.5116741444945334,2.307588960108161,0.8596949216067791
1772031817620864500,5.223864501953125,-0.7838894467771053,2.1742475343719123,0.5964433232245966
1772031817630813700,5.233813720703125,-0.1570668769776821,2.0128475966259836,0.4712795048555359
1772031817640761600,5.24376171875,0.35879531798064707,1.7639213511183858,0.4951067359710112
1772031817650710500,5.25371044921875,0.7482955708265304,1.4304741171449422,0.6274143982127308
1772031817660659500,5.263659423828125,1.1020324363738299,1.0801029286384582,0.8061786546703428
1772031817670607600,5.273607666015625,1.4224667517781258,0.7538432680815458,0.9372890334188938
1772031817680556500,5.283556640625,1.6585370228439569,0.48194092839509245,0.9978542690187692
1772031817690505700,5.293505615234375,1.8370587757825851,0.2716220614403486,0.9857964592173695
1772031817700453600,5.30345361328125,1.9373259071737527,0.15537527062892914,0.9766383163802325
1772031817710402800,5.31340283203125,1.9965525876462458,0.12338029595315456,0.9397784390818327
1772031817720351700,5.323351806640625,1.9978484726756809,0.15421557919979095,0.8646630654081702
1772031817730300700,5.33330078125,1.9130109656065701,0.24840046806782481,0.7703243011526762
1772031817740248600,5.34324853515625,1.741249792844057,0.40464842987805605,0.6615805794477463
1772031817750197800,5.35319775390625,1.603666199493408,0.5918363043531775,0.560401045919396
1772031817760146700,5.363146728515625,1.4993272886186837,0.7139528639808297,0.407440398684144
1772031817770094600,5.373094482421875,1.4233768523603676,0.8216717726826668,0.2823973388842307
1772031817780043500,5.38304345703125,1.369981362259388,0.9187570591673254,0.21658265832355245
1772031817789992400,5.392992431640625,1.3134949204057453,0.9156944567263126,0.10595860276473686
1772031817799940600,5.402940673828125,1.3071855911284684,0.8397066110670566,-0.02973983442643657
1772031817809889500,5.4128896484375,1.3670266041070223,0.7398635503068566,-0.1586587127463892
1772031817819838500,5.42283837890625,1.4463684363693,0.628055618725717,-0.2793958920459263
1772031817829786600,5.43278662109375,1.5313403834730386,0.4534381797492504,-0.4047133848730474
1772031817839735800,5.44273583984375,1.6140250964224339,0.27843261823803184,-0.4836147798914462
1772031817849684700,5.452684814453125,1.6611878296136855,0.09420242452472448,-0.5296583363270386
1772031817859632600,5.462632568359375,1.6261334673672914,-0.07060995201319456,-0.5415266879709437
1772031817869581800,5.472581787109375,1.5670961719870566,-0.19815204382091758,-0.5187896632449701
1772031817879530800,5.48253076171875,1.5020932462006806,-0.2891013117685914,-0.4835715618042275
1772031817889478700,5.492478759765625,1.3469161284923552,-0.33802345584779975,-0.4601324532235041
1772031817899427600,5.502427490234375,1.077176812058687,-0.35829262915551663,-0.3828070388175547
1772031817909376500,5.51237646484375,0.8174187914133071,-0.3514633676573634,-0.22977044026926158
1772031817919324700,5.52232470703125,0.5729758287996053,-0.3723667472153902,-0.08185608923868276
1772031817929273600,5.532273681640625,0.3096598234117031,-0.43210313077569007,0.06876761208213865
1772031817939222500,5.542222412109375,0.08187807274162769,-0.5158855758339166,0.22492581324968486
1772031817949170700,5.552170654296875,-0.08616144914925097,-0.5647954449534416,0.3426211223689839
1772031817959119600,5.56211962890625,-0.2034574567526579,-0.6282432502523064,0.387110873491317
1772031817969068500,5.572068603515625,-0.22708675414323806,-0.7014736138969659,0.35800066047161816
1772031817979016400,5.582016357421875,-0.16692951482236384,-0.7542822440207004,0.2497296708449721
1772031817988965600,5.591965576171875,-0.008844985234737396,-0.8209504726707935,0.0033694307673256844
1772031817998914800,5.601914794921875,0.14407587797939778,-0.871987416946888,-0.23744636345831677
1772031818008862700,5.61186279296875,0.2467828037381172,-0.9301040903508663,-0.4400872979300096
1772031818018811600,5.621811767578125,0.3029787382125854,-1.0398498287051916,-0.6444267616815864
1772031818028760600,5.631760498046875,0.31157179451286793,-1.148886249746382,-0.8287232986293732
1772031818038708700,5.641708740234375,0.303005626219511,-1.200414776931703,-0.9131011522974818
1772031818048657700,5.65165771484375,0.23974048401117323,-1.182118949523568,-0.9188429108198731
1772031818058606600,5.661606689453125,0.06989712756872177,-1.141407876689732,-0.847650848069787
1772031818068555500,5.671555419921875,-0.1662777729153633,-1.0534639280378817,-0.7407229436151683
1772031818078503700,5.681503662109375,-0.40152211455106734,-0.8561243696436286,-0.55261638339255
1772031818088452600,5.69145263671875,-0.5680693520575761,-0.6394838984519243,-0.2827666288543492
1772031818098401500,5.701401611328125,-0.7391156545490026,-0.5097366978153586,-0.037861163295432924
1772031818108349400,5.711349365234375,-0.9360428327500819,-0.45857846524715423,0.16786661300938577
1772031818118298600,5.721298583984375,-1.1136410411030053,-0.4496256357237696,0.26913013502676036
1772031818128247800,5.731247802734375,-1.223246494203806,-0.7110594806268811,0.09358988211695105
1772031818138195500,5.741195556640625,-1.0157862315505743,-1.1845371165812015,-0.31552118972577153
1772031818148144600,5.75114453125,-0.6234399416238069,-1.3843319591730832,-0.645498190305382
1772031818158093600,5.761093505859375,-0.47830900163352486,-1.6201742667019365,-1.0482153598599135
1772031818168041700,5.771041748046875,-0.5790139399200678,-2.0116054876103995,-1.442794377274811
1772031818177990100,5.780990234375,-0.622865356606245,-2.017951349505782,-1.4041864142000675
1772031818187939300,5.790939208984375,-0.8095294994682073,-1.5208923469558357,-0.9262228650033474
1772031818197887200,5.80088720703125,-1.337977619755268,-0.9003060411974787,-0.2849470416333526
1772031818207836400,5.81083642578125,-1.9961025057911872,-0.3913523104533553,0.3189510545765981
1772031818217785300,5.820785400390625,-2.70375510058403,0.15539572889506817,0.8084009338296949
1772031818227733200,5.830733154296875,-3.2911148440450426,0.7285910456642508,1.136095303364843
1772031818237682400,5.840682373046875,-3.5767484797030686,1.254078562580049,1.1565605107013135
1772031818247631400,5.85063134765625,-3.3896249026358127,1.7371888270154594,0.8867546318374574
1772031818257579300,5.860579345703125,-2.797274511280656,2.0567539583697916,0.3177384639164433
1772031818267528200,5.870528076171875,-1.969513774073124,2.0843483599990607,-0.28138551322687416
1772031818277477400,5.880477294921875,-1.1626479408562183,1.8226809986010193,-0.7602586880818009
1772031818287425300,5.89042529296875,-0.5011778360456228,1.4524679222881793,-1.0808370150666684
1772031818297374200,5.900374267578125,0.05073240837156772,1.1001812555491923,-1.2222575562316924
1772031818307323100,5.9103232421875,0.43914428145885465,0.7670163456484675,-1.2317229383870958
1772031818317271300,5.920271240234375,0.6282172390282154,0.4345627988874912,-1.0938533677019178
1772031818327220200,5.93022021484375,0.6381131946206092,0.1602688878893852,-0.8008802560012787
1772031818337169400,5.94016943359375,0.5572498518794775,0.03640197746306657,-0.36326157667450604
1772031818347117300,5.950117431640625,0.3520703936398029,0.055359483650326724,0.14707644803486764
1772031818357066500,5.96006640625,-0.07035889986157418,0.2194301019102335,0.6517810699671507
1772031818367015400,5.970015380859375,-0.6348579922169446,0.5222887208744883,1.07005222087577
1772031818376963300,5.97996337890625,-1.1785451826900244,0.854361159363389,1.2962994554549454
1772031818386912300,5.989912353515625,-1.5097142425984142,1.2555918897524476,1.3140106148429214
1772031818396861400,5.999861328125,-1.5615817924797535,1.6946406018823383,1.1563634537592529
1772031818406809300,6.009809326171875,-1.4590087222337722,2.0961568712145087,0.8949762975420802
1772031818416758300,6.01975830078125,-1.2722089702934025,2.3953823943734167,0.6583623480536043
1772031818426707200,6.029707275390625,-1.0155436549663543,2.562390819650888,0.4666747510064393
1772031818436656000,6.03965625,-0.6385024861991405,2.561860073775053,0.3094200233064592
1772031818446604300,6.049604248046875,-0.14446458503603934,2.404113982361555,0.1815778891062364
1772031818456553200,6.05955322265625,0.2688385682016611,2.155244143216312,0.0957719845295418
1772031818466502100,6.069502197265625,0.5143792629241943,1.8513494592025874,0.12343640092140994
1772031818476450300,6.0794501953125,0.7033353161156177,1.5742892983615397,0.19211614292385054
1772031818486399500,6.0893994140625,0.9950801281303167,1.3805752369880675,0.24857067353557794
1772031818496348400,6.099348388671875,1.4560171392023562,1.2237205414563417,0.19895579795185475
1772031818506296300,6.10929638671875,1.9707967996209859,1.0179515928909182,0.06136783895334229
1772031818516245200,6.119245361328125,2.422149989789724,0.7651403226435184,-0.0960327452244237
1772031818526194400,6.1291943359375,2.746717459475994,0.510349569016695,-0.22590746296448633
1772031818536142300,6.139142333984375,2.9168817184358833,0.2727481428608298,-0.2622167937080376
1772031818546091300,6.14909130859375,2.9684026468366382,0.06330722778439521,-0.2751578708836809
1772031818556040200,6.159040283203125,2.933443561658263,-0.08471680329889059,-0.27883634020071474
1772031818565988400,6.16898828125,2.819504463267326,-0.16612433591932058,-0.2529599032041617
1772031818575937300,6.178937255859375,2.607674314966798,-0.18720336430519818,-0.17538020350988953
1772031818585886200,6.18888623046875,2.3254642240166663,-0.169575645416975,-0.05492304672813043
1772031818595834400,6.19883447265625,2.068549317842722,-0.14253537053912876,0.01113254818264395
1772031818605783300,6.208783203125,1.8051608317404984,-0.15506021333038805,0.07668706170348451
1772031818615732200,6.218732177734375,1.563082260170579,-0.17447276980876922,0.0846790285717696
1772031818625680100,6.22868017578125,1.3568600148797034,-0.1607905736759305,0.09397409566156566
1772031818635629000,6.238629150390625,1.1769091059207915,-0.15226444513201712,0.126393889886979
1772031818645578500,6.24857861328125,1.0335533589094876,-0.1932043582856655,0.10971210094620473
1772031818655526400,6.2585263671875,0.9013771775603294,-0.2641182616814971,0.07902076534805819
1772031818665475300,6.268475341796875,0.8094026582181453,-0.33944179821312426,0.07885672475961036
1772031818675424300,6.27842431640625,0.7201847441077232,-0.39285394718796013,0.19740232143215833
1772031818685372400,6.288372314453125,0.5939695169895887,-0.4639467142820358,0.3339253728792071
1772031818695321300,6.2983212890625,0.4128425499886274,-0.6001628186717629,0.4070526780081913
1772031818705270300,6.308270263671875,0.20098317559361456,-0.7386421918183564,0.43672278993297364
1772031818715219200,6.31821923828125,0.09928688818216323,-0.811935976088047,0.4226836701212451
1772031818725167400,6.32816748046875,0.10891863988041878,-0.8301964399218559,0.3589602262187749
1772031818735116300,6.3381162109375,0.133224813619256,-0.8505538760349154,0.26375468906611205
1772031818745065200,6.348065185546875,0.058766661745309826,-0.8594631586775183,0.18929569694194942
1772031818755013000,6.35801318359375,-0.07870470340251923,-0.8352832416668534,0.1741663890070282
1772031818764962300,6.36796240234375,-0.23673370341062544,-0.8106865605488419,0.1747695607982576
1772031818774911500,6.377911376953125,-0.4448620745837688,-0.7792632482811808,0.24450956157650797
1772031818784859100,6.387859130859375,-0.5131535205215215,-0.7171390928015112,0.33778431332968173
1772031818794808300,6.397808349609375,-0.478890600913763,-0.6884276698410511,0.38073688147999346
1772031818804757200,6.40775732421875,-0.4386141201049089,-0.6967234967604279,0.3191063912687823
1772031818814705400,6.417705322265625,-0.4003758671253919,-0.7934867116838693,0.08378682897239922
1772031818824654300,6.427654296875,-0.368545727622509,-1.0559072295367717,-0.29577037773635234
1772031818834603300,6.437603271484375,-0.2764145564138889,-1.2189698397979138,-0.5145870604559779
1772031818844551400,6.447551513671875,-0.2425958734422922,-1.0997054547309875,-0.3581015270302072
1772031818854500400,6.457500244140625,-0.5475923812180757,-0.9849117853373288,-0.21888291635625062
1772031818864449300,6.46744921875,-1.0801859307467936,-1.2594593788355588,-0.425644748416543
1772031818874397200,6.477397216796875,-1.2789140208899974,-1.5930781699836254,-0.6017812136538326
1772031818884346400,6.487346435546875,-1.1698913361132144,-1.5096657272815703,-0.36776440451908854
1772031818894295300,6.49729541015625,-1.0197469518750906,-1.1994967853039502,0.012727744952216744
1772031818904243200,6.5072431640625,-0.9745353527516126,-0.8863260311618447,0.3757604082416743
1772031818914192100,6.517192138671875,-1.242269174581766,-0.5645511148035526,0.6923487157423048
1772031818924141300,6.527141357421875,-1.6522750398397446,-0.26140549559146165,0.9005825931165367
1772031818934089200,6.537089111328125,-1.959589761430025,0.14908084665983914,1.0179537117827684
1772031818944038400,6.547038330078125,-2.10602126262486,0.6221446411162614,1.0019893960621207
1772031818953987300,6.5569873046875,-2.1298972282528874,1.1041127497792242,0.9182105312004685
1772031818963935500,6.566935546875,-2.1063415806204078,1.5981693556427954,0.8587770030442625
1772031818973884400,6.576884521484375,-1.98794725638628,1.9387796131134032,0.7563902491506189
1772031818983833300,6.586833251953125,-1.8094968151181936,2.0803452618375418,0.6332767874401062
1772031818993781200,6.59678125,-1.5469932951569556,2.0420944416373965,0.47913785367310047
1772031819003730200,6.606730224609375,-1.1785294005990028,1.8375316539913416,0.26913214432075616
1772031819013679400,6.616679443359375,-0.8409598259985447,1.6696911618039012,0.12568181436117737
1772031819023628300,6.626628173828125,-0.42947979653477664,1.54909231326282,0.10572331443782895
1772031819033576200,6.636576171875,0.019501988327503203,1.323210550995171,0.10431023276951164
1772031819043525000,6.646525146484375,0.4449187732070684,1.0123679475396872,0.08215740113966166
1772031819053474300,6.656474365234375,0.8217840008854865,0.7020370929986238,0.08534921945091337
1772031819063422200,6.666422119140625,1.2075392219841479,0.48101650702655313,0.11740787048004567
1772031819073371400,6.676371337890625,1.506173208990693,0.3256453280508518,0.19223317516595123
1772031819083320300,6.6863203125,1.5885387729883194,0.22451047391444443,0.3119081137951463
1772031819093268500,6.6962685546875,1.5038053108155727,0.18081278648525476,0.4239451414244249
1772031819103217400,6.706217529296875,1.391688167154789,0.19829232907444239,0.4596741515293717
1772031819113166300,6.716166259765625,1.2722984021425245,0.28400194280296565,0.49338451528828586
1772031819123114200,6.7261142578125,1.2037222940444945,0.38103140744715924,0.47401813603918996
1772031819133063400,6.7360634765625,1.1239958463788031,0.4588286406159401,0.3226087003013119
1772031819143012400,6.746012451171875,1.0479349354833365,0.5747989525735377,0.1679471674323082
1772031819152960300,6.755960205078125,0.9359539854228496,0.6970493677139282,0.05410195786990225
1772031819162909200,6.7659091796875,0.7806646395117044,0.7345134214505553,-0.02382416237555444
1772031819172858000,6.775858154296875,0.7114817976921797,0.6958715561062098,-0.05509290513601154
1772031819182806000,6.785805908203125,0.7898024702131747,0.6121992934241891,-0.09971187212858348
1772031819192755200,6.795755126953125,0.9373989235341549,0.4869882749125361,-0.15525467645656316
1772031819202704100,6.8057041015625,1.0579852048546075,0.33526831192076206,-0.1894769169940613
1772031819212652300,6.81565234375,1.1665811886519193,0.1671858276709914,-0.20514736433466896
1772031819222601200,6.825601318359375,1.19964642290771,-0.02043722335100174,-0.19686739257154984
1772031819232550100,6.835550048828125,1.1280120962828397,-0.16198504415750503,-0.1358769538295455
1772031819242498000,6.845498046875,0.9557032265096902,-0.2734007615506649,-0.06552176202870905
1772031819252447200,6.855447265625,0.723034872841835,-0.36266017671525475,0.005887103543523699
1772031819262396200,6.865396240234375,0.5052373405694961,-0.39218262379765506,0.08139238985022529
1772031819272344000,6.875343994140625,0.3474813122838735,-0.44666678591817616,0.1405508091257885
1772031819282293000,6.88529296875,0.1704687948644161,-0.50764527849406,0.15667093646265565
1772031819292242200,6.8952421875,0.008078677037358284,-0.5324813213258981,0.21685931984046472
1772031819302191000,6.905191162109375,-0.05047288065254688,-0.5410954204142093,0.2710918818200938
1772031819312139000,6.915138916015625,-0.047664837494492525,-0.5747030909836292,0.2674219794020057
1772031819322088200,6.925088134765625,-0.009873743760585784,-0.6283198226198554,0.2710395123120397
1772031819332037000,6.935037109375,0.030437808361649513,-0.6357888433262705,0.285873910687305
1772031819341985300,6.9449853515625,0.1282891107827425,-0.6263815480336546,0.2858766141010448
1772031819351934200,6.954934326171875,0.2961135286182165,-0.6159580614358187,0.21411131804026662
1772031819361883100,6.964883056640625,0.4614449605941772,-0.6107435416579247,0.1349245667418465
1772031819371831300,6.974831298828125,0.5640601164162159,-0.5951759701699018,0.058310497209336606
1772031819381780200,6.9847802734375,0.5789660091251134,-0.5815688850998878,-0.04557639558156952
1772031819391729200,6.994729248046875,0.4317307903319597,-0.579060117149353,-0.15153879773858933
1772031819401677000,7.004677001953125,0.35077509313225747,-0.5610869458243251,-0.22359538662983103
1772031819411626000,7.0146259765625,0.5471241791844368,-0.5267600210696458,-0.395896456689015
1772031819421575200,7.0245751953125,0.9726619600951671,-0.6578881546705961,-0.6659511957474052
1772031819431523000,7.034523193359375,1.304386900320649,-0.9233069775566458,-0.9154134478278457
1772031819441472000,7.044471923828125,1.127217146512866,-0.7985702985584735,-0.8766725060231984
1772031819451421000,7.0544208984375,0.5019897369503975,-0.4737129060149193,-0.6438543686211109
1772031819461369000,7.064369140625,0.08030746242403984,-0.2911976995259523,-0.5110962957307696
1772031819471318300,7.074318359375,0.010959785431623459,-0.3326765418618917,-0.47942510964926327
1772031819481267200,7.08426708984375,0.010958031865954398,-0.36058833887726066,-0.36155312878880647
1772031819491215000,7.094215087890625,-0.009824643921852111,-0.3802499016806483,-0.1907868853477761
