time,seconds_elapsed,z,y,x
1772031812477404000,0.08040380859375,0.5225030183792114,0.16203653812408447,0.16949915885925293
1772031812487352800,0.090352783203125,0.5746476650238037,0.13475647568702698,0.07702954858541489
1772031812497300700,0.10030078125,0.6129849553108215,0.12245986610651016,-0.03804750740528107
1772031812507250000,0.11025,0.641258716583252,0.13673697412014008,-0.1680321991443634
1772031812517198800,0.12019873046875,0.6475086212158203,0.1790575236082077,-0.30812299251556396
1772031812527146800,0.130146728515625,0.6501940488815308,0.24263440072536469,-0.43012481927871704
1772031812537095700,0.140095703125,0.642870306968689,0.27956631779670715,-0.5298293232917786
1772031812547044900,0.150044921875,0.6144068241119385,0.30718520283699036,-0.5921209454536438
1772031812556992800,0.15999267578125,0.5500888228416443,0.34998324513435364,-0.6454228162765503
1772031812566941700,0.169941650390625,0.46314677596092224,0.37950268387794495,-0.6719966530799866
1772031812576890600,0.179890625,0.36913827061653137,0.3797903060913086,-0.6833664774894714
1772031812586838800,0.1898388671875,0.27111315727233887,0.3522588312625885,-0.661813497543335
1772031812596787700,0.19978759765625,0.1798328012228012,0.30574432015419006,-0.6087380051612854
1772031812606737000,0.20973681640625,0.09443909674882889,0.2296539843082428,-0.5369052290916443
1772031812616684800,0.219684814453125,0.0171339213848114,0.16000352799892426,-0.46043017506599426
1772031812626634000,0.229634033203125,-0.04381992295384407,0.13042931258678436,-0.38557928800582886
1772031812636583000,0.2395830078125,-0.08632636815309525,0.136396124958992,-0.28806737065315247
1772031812646530800,0.24953076171875,-0.11218734085559845,0.13000443577766418,-0.16244655847549438
1772031812656479700,0.259479736328125,-0.13757258653640747,0.12824702262878418,-0.03267497569322586
1772031812666429000,0.269428955078125,-0.18244805932044983,0.1577090173959732,0.09715967625379562
1772031812676376800,0.279376953125,-0.23580849170684814,0.21738380193710327,0.21105748414993286
1772031812686325800,0.28932568359375,-0.30506816506385803,0.27120742201805115,0.30781155824661255
1772031812696274000,0.29927392578125,-0.36846524477005005,0.323143869638443,0.36739471554756165
1772031812706222800,0.309222900390625,-0.4154917895793915,0.3659687638282776,0.38976263999938965
1772031812716171800,0.319171875,-0.454337477684021,0.3856005072593689,0.3890438377857208
1772031812726119700,0.32911962890625,-0.485676109790802,0.36461538076400757,0.37598127126693726
1772031812736068600,0.339068603515625,-0.4951034188270569,0.34784969687461853,0.3267359733581543
1772031812746017800,0.349017822265625,-0.47681599855422974,0.32634755969047546,0.2560631334781647
1772031812755965700,0.358965576171875,-0.4336288571357727,0.28389811515808105,0.17323614656925201
1772031812765914600,0.36891455078125,-0.36826518177986145,0.17951153218746185,0.097806416451931
1772031812775863800,0.37886376953125,-0.3110114634037018,0.06535566598176956,0.03445274755358696
1772031812785812000,0.38881201171875,-0.27415505051612854,-0.010276006534695625,-0.015865858644247055
1772031812795761000,0.398760986328125,-0.27794525027275085,-0.0745902806520462,-0.04031021520495415
1772031812805709800,0.408709716796875,-0.313337117433548,-0.13484881818294525,-0.043645113706588745
1772031812815657700,0.41865771484375,-0.3540826737880707,-0.15571974217891693,-0.04420597478747368
1772031812825607000,0.42860693359375,-0.3567868173122406,-0.07445496320724487,-0.06077034771442413
1772031812835555800,0.438555908203125,-0.3181803226470947,0.11615200340747833,-0.10353299230337143
1772031812845503700,0.448503662109375,-0.2626749575138092,0.36999407410621643,-0.20918193459510803
1772031812855452700,0.45845263671875,-0.18044745922088623,0.6220529675483704,-0.3556366264820099
1772031812865401900,0.46840185546875,-0.12785270810127258,0.7870262265205383,-0.41626375913619995
1772031812875349800,0.478349853515625,-0.14334698021411896,0.8055711984634399,-0.30395612120628357
1772031812885298700,0.488298583984375,-0.21612709760665894,0.6948444843292236,-0.03441229090094566
1772031812895247600,0.49824755859375,-0.32684722542762756,0.5176774263381958,0.2903956174850464
1772031812905195800,0.50819580078125,-0.46008625626564026,0.3071363866329193,0.5837464928627014
1772031812915144700,0.518144775390625,-0.5560569763183594,0.07199499011039734,0.7746836543083191
1772031812925094000,0.528093994140625,-0.5837619304656982,-0.160359188914299,0.8566144704818726
1772031812935041800,0.538041748046875,-0.555018961429596,-0.36314719915390015,0.8791970014572144
1772031812944991000,0.547990966796875,-0.5026507377624512,-0.558361828327179,0.9100631475448608
1772031812954940000,0.55793994140625,-0.44428813457489014,-0.738348662853241,0.9509479999542236
1772031812964887800,0.5678876953125,-0.4033550024032593,-0.8726038932800293,1.0158578157424927
1772031812974836700,0.577836669921875,-0.42982229590415955,-0.9846382737159729,1.1033560037612915
1772031812984786000,0.587785888671875,-0.5001207590103149,-1.0555442571640015,1.1795008182525635
1772031812994733800,0.59773388671875,-0.5847011804580688,-1.0516411066055298,1.2124137878417969
1772031813004682800,0.607682861328125,-0.6639787554740906,-1.01237154006958,1.1950997114181519
1772031813014631700,0.617631591796875,-0.7343569993972778,-0.9651131629943848,1.122609257698059
1772031813024579800,0.627579833984375,-0.781012237071991,-0.9484388828277588,0.9835668802261353
1772031813034528800,0.63752880859375,-0.781095027923584,-0.9733002781867981,0.804192066192627
1772031813044477700,0.647477783203125,-0.6825684309005737,-0.9184713363647461,0.570100724697113
1772031813054425600,0.657425537109375,-0.5345571041107178,-0.6937471628189087,0.30731090903282166
1772031813064374800,0.667374755859375,-0.39693087339401245,-0.4964655339717865,0.04978407919406891
1772031813074324000,0.677323974609375,-0.31019172072410583,-0.32334327697753906,-0.15212427079677582
1772031813084271900,0.68727197265625,-0.32569217681884766,-0.14505532383918762,-0.2505302131175995
1772031813094220800,0.697220703125,-0.4495813548564911,-0.049828141927719116,-0.257407546043396
1772031813104169700,0.707169677734375,-0.6395114660263062,-0.1614932268857956,-0.20414283871650696
1772031813114118000,0.717117919921875,-0.8115191459655762,-0.4131430387496948,-0.1051374152302742
1772031813124066800,0.72706689453125,-0.91001957654953,-0.6781432628631592,0.03678279370069504
1772031813134015700,0.737015625,-0.9255431294441223,-0.8783208131790161,0.17114032804965973
1772031813143964000,0.7469638671875,-0.882937490940094,-1.0336122512817383,0.2798987030982971
1772031813153912800,0.756912841796875,-0.7704865336418152,-0.9644627571105957,0.2545238137245178
1772031813163861800,0.76686181640625,-0.672878086566925,-0.7117014527320862,0.16538026928901672
1772031813173809200,0.77680908203125,-0.6303092837333679,-0.6302363872528076,0.15110599994659424
1772031813183758300,0.78675830078125,-0.603547215461731,-0.4929204285144806,0.11950811743736267
1772031813193707300,0.796707275390625,-0.5823849439620972,-0.3887910842895508,0.04556678608059883
1772031813203655200,0.8066552734375,-0.5576304197311401,-0.35846248269081116,-0.05875779688358307
1772031813213604000,0.81660400390625,-0.5329793691635132,-0.4291132390499115,-0.1764458268880844
1772031813223553300,0.82655322265625,-0.5150189995765686,-0.5040575265884399,-0.3355332016944885
1772031813233501200,0.836501220703125,-0.48753228783607483,-0.49552983045578003,-0.526559054851532
1772031813243450000,0.8464501953125,-0.46986109018325806,-0.35079723596572876,-0.754426121711731
1772031813253399000,0.85639892578125,-0.48185357451438904,-0.10176478326320648,-0.9687269926071167
1772031813263347200,0.86634716796875,-0.48362696170806885,0.14540500938892365,-1.0965908765792847
1772031813273296100,0.876296142578125,-0.4542842507362366,0.3204425871372223,-1.1016548871994019
1772031813283245000,0.8862451171875,-0.41428232192993164,0.3896671235561371,-1.0170055627822876
1772031813293193200,0.896193115234375,-0.3861215114593506,0.3394140601158142,-0.8906448483467102
1772031813303142100,0.90614208984375,-0.36186710000038147,0.2174200862646103,-0.7595936059951782
1772031813313090000,0.916090087890625,-0.32288244366645813,0.07215528935194016,-0.6357308030128479
1772031813323039000,0.9260390625,-0.280924528837204,-0.07050631940364838,-0.511420488357544
1772031813332988200,0.93598828125,-0.24210737645626068,-0.18612852692604065,-0.3975735306739807
1772031813342936300,0.945936279296875,-0.21245817840099335,-0.26277098059654236,-0.2990983724594116
1772031813352885200,0.95588525390625,-0.18220439553260803,-0.29791247844696045,-0.22118544578552246
1772031813362834200,0.965834228515625,-0.14999426901340485,-0.3040555715560913,-0.1823941171169281
1772031813372782300,0.9757822265625,-0.11977829784154892,-0.2733227014541626,-0.17792508006095886
1772031813382731300,0.985731201171875,-0.09676141291856766,-0.22404679656028748,-0.18193881213665009
1772031813392680200,0.99568017578125,-0.07316767424345016,-0.19417491555213928,-0.1804218739271164
1772031813402628000,1.005628173828125,-0.039254799485206604,-0.18015016615390778,-0.19556821882724762
1772031813412577300,1.015577392578125,-0.007892350666224957,-0.15525014698505402,-0.21266303956508636
1772031813422526200,1.025526123046875,0.02009754255414009,-0.15560537576675415,-0.21657349169254303
1772031813432474000,1.03547412109375,0.04414162412285805,-0.19456128776073456,-0.23795148730278015
1772031813442423000,1.045423095703125,0.06964951753616333,-0.22387439012527466,-0.27090418338775635
1772031813452372000,1.0553720703125,0.11119402945041656,-0.204910546541214,-0.36156991124153137
1772031813462320000,1.065320068359375,0.17292124032974243,-0.10247728228569031,-0.5158593058586121
1772031813472269000,1.07526904296875,0.22138704359531403,0.0634472444653511,-0.7378348708152771
1772031813482218200,1.08521826171875,0.25198429822921753,0.16443681716918945,-0.9684427380561829
1772031813492166400,1.09516650390625,0.27713653445243835,0.1529814898967743,-1.1621993780136108
1772031813502115300,1.105115234375,0.29231691360473633,0.07503587007522583,-1.2994887828826904
1772031813512064300,1.115064208984375,0.2993101179599762,-0.010971450246870518,-1.3604406118392944
1772031813522012200,1.12501220703125,0.28089556097984314,-0.0216517373919487,-1.3399431705474854
1772031813531961000,1.134961181640625,0.21253806352615356,0.02040783315896988,-1.2143362760543823
1772031813541910300,1.14491015625,0.10718262195587158,0.015187738463282585,-0.9671039581298828
1772031813551858200,1.154858154296875,-0.009615897201001644,-0.06098213046789169,-0.6127724647521973
1772031813561807000,1.16480712890625,-0.11282885074615479,-0.1446780264377594,-0.1970173716545105
1772031813571756000,1.174756103515625,-0.18066222965717316,-0.20168964564800262,0.22167283296585083
1772031813581704200,1.1847041015625,-0.2148606926202774,-0.19583290815353394,0.5858420729637146
1772031813591653000,1.194653076171875,-0.23333823680877686,-0.09392277896404266,0.8783034682273865
1772031813601602000,1.20460205078125,-0.23692290484905243,0.06449820101261139,1.1063235998153687
1772031813611550200,1.21455029296875,-0.21702563762664795,0.18857620656490326,1.2929496765136719
1772031813621499100,1.2244990234375,-0.15737715363502502,0.26412469148635864,1.4346493482589722
1772031813631448300,1.2344482421875,-0.07413340359926224,0.35287824273109436,1.5540319681167603
1772031813641396200,1.244396240234375,0.03015861287713051,0.4479067921638489,1.6561169624328613
1772031813651345200,1.25434521484375,0.15543611347675323,0.5385226607322693,1.7366693019866943
1772031813661294300,1.26429443359375,0.29076308012008667,0.6151766777038574,1.7695043087005615
1772031813671242200,1.2742421875,0.42518454790115356,0.6794248819351196,1.7582581043243408
1772031813681191200,1.284191162109375,0.5590289831161499,0.7206440567970276,1.694575548171997
1772031813691140000,1.29414013671875,0.6837096810340881,0.7411255836486816,1.5856386423110962
1772031813701088300,1.304088134765625,0.8014638423919678,0.7468008995056152,1.4361224174499512
1772031813711037200,1.314037109375,0.902010977268219,0.7547959685325623,1.262100338935852
1772031813720986000,1.323986083984375,0.9817309379577637,0.7387601733207703,1.0793170928955078
1772031813730934000,1.33393408203125,1.0573277473449707,0.702540934085846,0.9001164436340332
1772031813740883200,1.34388330078125,1.1115220785140991,0.65529865026474,0.7215952277183533
1772031813750832000,1.35383203125,1.1421891450881958,0.6098885536193848,0.5438052415847778
1772031813760780000,1.363780029296875,1.160185694694519,0.5721727013587952,0.35913407802581787
1772031813770729000,1.37372900390625,1.1778291463851929,0.5574254393577576,0.1785946488380432
1772031813780678400,1.383678466796875,1.1837599277496338,0.5469745993614197,0.02368052490055561
1772031813790626300,1.393626220703125,1.174562692642212,0.5111452341079712,-0.07829777151346207
1772031813800575200,1.4035751953125,1.157731056213379,0.4694547951221466,-0.15831279754638672
1772031813810524200,1.413524169921875,1.1370638608932495,0.4447622299194336,-0.23432126641273499
1772031813820472300,1.423472412109375,1.1136795282363892,0.4478282332420349,-0.3154768645763397
1772031813830421200,1.433421142578125,1.086624264717102,0.4526490867137909,-0.4087652564048767
1772031813840370200,1.4433701171875,1.0568994283676147,0.4411548674106598,-0.5113494396209717
1772031813850318000,1.453318115234375,1.0260058641433716,0.39822524785995483,-0.6073036193847656
1772031813860267300,1.463267333984375,0.983837902545929,0.3445543646812439,-0.6725829243659973
1772031813870216200,1.47321630859375,0.9282801151275635,0.29355376958847046,-0.7088142037391663
1772031813880164000,1.4831640625,0.8648925423622131,0.2656194269657135,-0.7349132299423218
1772031813890113000,1.493113037109375,0.7882571220397949,0.29016709327697754,-0.7579357028007507
1772031813900062200,1.503062255859375,0.7134125232696533,0.3492858409881592,-0.7696331739425659
1772031813910010000,1.513010009765625,0.6365184783935547,0.395509272813797,-0.7542778849601746
1772031813919959000,1.522958984375,0.5738251209259033,0.43759801983833313,-0.72468101978302
1772031813929908200,1.532908203125,0.5146275758743286,0.49266475439071655,-0.6974307894706726
1772031813939856100,1.542856201171875,0.4598812162876129,0.5637895464897156,-0.6759937405586243
1772031813949805300,1.552805419921875,0.4154418408870697,0.6372448205947876,-0.6613884568214417
1772031813959754200,1.562754150390625,0.38452041149139404,0.7086547017097473,-0.6604030728340149
1772031813969702100,1.5727021484375,0.36841946840286255,0.7669090032577515,-0.6544448137283325
1772031813979651300,1.5826513671875,0.3570411503314972,0.7670711278915405,-0.6236059069633484
1772031813989600300,1.592600341796875,0.34145793318748474,0.7241385579109192,-0.5693631768226624
1772031813999548200,1.602548095703125,0.3147554099559784,0.6533202528953552,-0.5092814564704895
1772031814009497000,1.6124970703125,0.2637537717819214,0.5615661144256592,-0.4486841857433319
1772031814019446000,1.622446044921875,0.18707343935966492,0.47208693623542786,-0.40248730778694153
1772031814029394200,1.632394287109375,0.09493737667798996,0.43155282735824585,-0.36747366189956665
1772031814039343000,1.642343017578125,-0.007151302881538868,0.41158440709114075,-0.3264331817626953
1772031814049292000,1.6522919921875,-0.10822997987270355,0.3647671043872833,-0.27731597423553467
1772031814059240200,1.662240234375,-0.19560423493385315,0.3214511573314667,-0.23679615557193756
1772031814069189000,1.672189208984375,-0.2691519260406494,0.30582505464553833,-0.21741873025894165
1772031814079138300,1.68213818359375,-0.3446498215198517,0.3091050982475281,-0.1974450647830963
1772031814089086000,1.6920859375,-0.41247227787971497,0.2939668893814087,-0.15983085334300995
1772031814099035100,1.70203515625,-0.4712474048137665,0.24331294000148773,-0.08030272275209427
1772031814108984300,1.711984375,-0.529308557510376,0.13257496058940887,0.030628319829702377
1772031814118932200,1.72193212890625,-0.6071090698242188,-0.024409309029579163,0.16147789359092712
1772031814128881200,1.731881103515625,-0.7224138379096985,-0.20481982827186584,0.28081998229026794
1772031814138830000,1.741830078125,-0.8616472482681274,-0.3478783965110779,0.3606824278831482
1772031814148778200,1.7517783203125,-1.001929759979248,-0.42568451166152954,0.38671961426734924
1772031814158727200,1.76172705078125,-1.124855399131775,-0.419401079416275,0.3623374104499817
1772031814168676000,1.771676025390625,-1.2199435234069824,-0.3137449622154236,0.28011417388916016
1772031814178624500,1.78162451171875,-1.250838041305542,-0.06773753464221954,0.11303944140672684
1772031814188573700,1.79157373046875,-1.1914849281311035,0.3072781562805176,-0.1343487948179245
1772031814198522600,1.801522705078125,-1.0540510416030884,0.7055699229240417,-0.3676435053348541
1772031814208470500,1.811470458984375,-0.8836067914962769,1.0305602550506592,-0.47014856338500977
1772031814218419500,1.82141943359375,-0.7046576142311096,1.2029718160629272,-0.3881317377090454
1772031814228368600,1.83136865234375,-0.5267025232315063,1.119004726409912,-0.11982465535402298
1772031814238316500,1.841316650390625,-0.40301793813705444,0.8378362655639648,0.25134187936782837
1772031814248265500,1.851265380859375,-0.3636747896671295,0.4750967025756836,0.6302798390388489
1772031814258214400,1.86121435546875,-0.43256646394729614,0.1282479465007782,0.9601988792419434
1772031814268162600,1.87116259765625,-0.5750131011009216,-0.14128872752189636,1.2047332525253296
1772031814278111500,1.881111572265625,-0.7131001353263855,-0.31655701994895935,1.348461627960205
1772031814288059400,1.891059326171875,-0.7995617985725403,-0.4401005208492279,1.4024183750152588
1772031814298008300,1.90100830078125,-0.8340205550193787,-0.5239320397377014,1.3804396390914917
1772031814307957500,1.91095751953125,-0.8103224039077759,-0.5758594274520874,1.2856851816177368
1772031814317905400,1.920905517578125,-0.7440309524536133,-0.6051371097564697,1.151470422744751
1772031814327854300,1.930854248046875,-0.6604412794113159,-0.601754367351532,1.0034795999526978
1772031814337803500,1.940803466796875,-0.5690035223960876,-0.5662685036659241,0.8435345888137817
1772031814347751700,1.950751708984375,-0.47713831067085266,-0.5270457863807678,0.6778090000152588
1772031814357700600,1.96070068359375,-0.3922090232372284,-0.51180100440979,0.5185361504554749
1772031814367649500,1.9706494140625,-0.31965333223342896,-0.5001347661018372,0.40555474162101746
1772031814377598500,1.980598388671875,-0.2552156150341034,-0.5384182929992676,0.3441386818885803
1772031814387546600,1.990546630859375,-0.20650744438171387,-0.5949712991714478,0.3421756625175476
1772031814397495600,2.00049560546875,-0.16917064785957336,-0.6387042999267578,0.3846033811569214
1772031814407443500,2.010443359375,-0.1590370535850525,-0.6639869809150696,0.4649525582790375
1772031814417392400,2.020392333984375,-0.17106379568576813,-0.6612319350242615,0.5548681616783142
1772031814427341600,2.030341552734375,-0.20215541124343872,-0.6354501247406006,0.6384389400482178
1772031814437289500,2.04028955078125,-0.24176321923732758,-0.5836714506149292,0.7132439613342285
1772031814447238400,2.05023828125,-0.2702028453350067,-0.5096188187599182,0.7626298666000366
1772031814457187300,2.060187255859375,-0.283788800239563,-0.43187132477760315,0.7744569778442383
1772031814467135500,2.070135498046875,-0.27268821001052856,-0.3632326126098633,0.7386334538459778
1772031814477084400,2.08008447265625,-0.253445565700531,-0.32124605774879456,0.6459162831306458
1772031814487033600,2.09003369140625,-0.21593201160430908,-0.3209930658340454,0.5145987272262573
1772031814496981500,2.0999814453125,-0.18188080191612244,-0.34147945046424866,0.3505198657512665
1772031814506930700,2.1099306640625,-0.14682960510253906,-0.3624337315559387,0.153941810131073
1772031814516879600,2.119879638671875,-0.10058636218309402,-0.37372684478759766,-0.06851593405008316
1772031814526827500,2.12982763671875,-0.05633793771266937,-0.3829411268234253,-0.2780821919441223
1772031814536776400,2.1397763671875,-0.008353769779205322,-0.38758963346481323,-0.4657280743122101
1772031814546725600,2.1497255859375,0.05082433298230171,-0.3826422691345215,-0.6300083994865417
1772031814556673500,2.159673583984375,0.11761714518070221,-0.4060809016227722,-0.7509744167327881
1772031814566622500,2.16962255859375,0.18106243014335632,-0.45129844546318054,-0.8320953845977783
1772031814576571400,2.1795712890625,0.232537180185318,-0.47589826583862305,-0.9023635983467102
1772031814586519600,2.18951953125,0.26701605319976807,-0.49370574951171875,-0.9741904139518738
1772031814596468500,2.199468505859375,0.27746090292930603,-0.5201566815376282,-1.0373122692108154
1772031814606417400,2.20941748046875,0.2654114067554474,-0.5341406464576721,-1.0751677751541138
1772031814616365300,2.219365234375,0.24247723817825317,-0.516868531703949,-1.0881009101867676
1772031814626314500,2.229314453125,0.2130410522222519,-0.4753250777721405,-1.0708526372909546
1772031814636263700,2.239263671875,0.1838793158531189,-0.42298516631126404,-1.0280492305755615
1772031814646211300,2.24921142578125,0.160614475607872,-0.37885817885398865,-0.9468587636947632
1772031814656160500,2.259160400390625,0.13581633567810059,-0.3509288728237152,-0.8494619727134705
1772031814666109400,2.269109375,0.11416377127170563,-0.32095447182655334,-0.7486456036567688
1772031814676057600,2.2790576171875,0.08981595188379288,-0.29364317655563354,-0.651189923286438
1772031814686006500,2.289006591796875,0.06771357357501984,-0.25817546248435974,-0.5595047473907471
1772031814695955500,2.29895556640625,0.03572889789938927,-0.2087423950433731,-0.47655460238456726
1772031814705903600,2.308903564453125,-0.0038717761635780334,-0.16856755316257477,-0.4109654724597931
1772031814715852500,2.3188525390625,-0.046239014714956284,-0.12361910939216614,-0.38422662019729614
1772031814725801500,2.328801513671875,-0.09428110718727112,-0.04006589949131012,-0.41216132044792175
1772031814735749400,2.338749267578125,-0.14591044187545776,0.06924474984407425,-0.4696730971336365
1772031814745698600,2.348698486328125,-0.20193509757518768,0.1736590415239334,-0.5256108641624451
1772031814755647500,2.3586474609375,-0.2544090449810028,0.26928994059562683,-0.5668657422065735
1772031814765595400,2.368595458984375,-0.2870090901851654,0.3603580594062805,-0.5856753587722778
1772031814775544300,2.37854443359375,-0.2981362044811249,0.436598539352417,-0.5616830587387085
1772031814785493500,2.388493408203125,-0.2946120500564575,0.47000762820243835,-0.46316230297088623
1772031814795441400,2.39844140625,-0.30186498165130615,0.42808225750923157,-0.2460872232913971
1772031814805390600,2.408390625,-0.3364855647087097,0.3102070093154907,0.07157490402460098
1772031814815339500,2.418339599609375,-0.3810676038265228,0.1959511637687683,0.4084254503250122
1772031814825287700,2.42828759765625,-0.4361084997653961,0.1216050237417221,0.6712695956230164
1772031814835236600,2.438236572265625,-0.4850812554359436,0.13367989659309387,0.8156051635742188
1772031814845185500,2.448185546875,-0.49663591384887695,0.2131022810935974,0.832697868347168
1772031814855133400,2.458133544921875,-0.4779718816280365,0.30639323592185974,0.7360482811927795
1772031814865082600,2.46808251953125,-0.42545250058174133,0.41450533270835876,0.5036250948905945
1772031814875031600,2.478031494140625,-0.30577602982521057,0.5494818687438965,0.1617007553577423
1772031814884979500,2.4879794921875,-0.10234730690717697,0.6726210713386536,-0.2223433256149292
1772031814894928400,2.497928466796875,0.11888215690851212,0.7060937881469727,-0.5229829549789429
1772031814904877300,2.507877197265625,0.3206096589565277,0.6789920926094055,-0.716422975063324
1772031814914825500,2.517825439453125,0.49590638279914856,0.6078817248344421,-0.8009583950042725
1772031814924774400,2.5277744140625,0.6212363839149475,0.4386753439903259,-0.7556889057159424
1772031814934723600,2.5377236328125,0.6692859530448914,0.18765291571617126,-0.5791332125663757
1772031814944671500,2.54767138671875,0.6481031775474548,-0.07142525166273117,-0.3193146884441376
1772031814954620700,2.55762060546875,0.5580703616142273,-0.2643078863620758,-0.019667699933052063
1772031814964569600,2.567569580078125,0.43422988057136536,-0.34592074155807495,0.2828327715396881
1772031814974517500,2.577517578125,0.3201041519641876,-0.3213142156600952,0.5559360980987549
1772031814984466400,2.587466552734375,0.26009488105773926,-0.22268377244472504,0.7671516537666321
1772031814994415600,2.59741552734375,0.2533022165298462,-0.11098012328147888,0.9251369833946228
1772031815004363500,2.607363525390625,0.26687583327293396,-0.03760204464197159,1.0114517211914062
1772031815014312400,2.6173125,0.28316935896873474,-0.009320767596364021,1.0301713943481445
1772031815024261400,2.627261474609375,0.30378833413124084,0.007339169271290302,0.9885560274124146
1772031815034209500,2.63720947265625,0.32078638672828674,0.015074050985276699,0.9162460565567017
1772031815044158500,2.647158447265625,0.3331384062767029,0.01607806235551834,0.820500373840332
1772031815054107400,2.657107421875,0.3433876633644104,0.008275333791971207,0.7004291415214539
1772031815064055600,2.6670556640625,0.35671812295913696,0.00902208499610424,0.5482204556465149
1772031815074004500,2.67700439453125,0.3818633258342743,0.025748565793037415,0.3745397925376892
1772031815083953700,2.68695361328125,0.43434518575668335,0.043386947363615036,0.19537268579006195
1772031815093901300,2.6969013671875,0.5115681886672974,0.046441663056612015,0.02939615026116371
1772031815103850500,2.7068505859375,0.6033146381378174,0.07753726094961166,-0.12454866617918015
1772031815113799700,2.716799560546875,0.6978138089179993,0.1673230081796646,-0.24382571876049042
1772031815123747600,2.72674755859375,0.7747219204902649,0.27985459566116333,-0.33245009183883667
1772031815133696500,2.736696533203125,0.8168043494224548,0.38162100315093994,-0.38461101055145264
1772031815143645400,2.7466455078125,0.823516845703125,0.45985138416290283,-0.41474974155426025
1772031815153594400,2.756594482421875,0.7824961543083191,0.49630123376846313,-0.4469985365867615
1772031815163542500,2.76654248046875,0.7096392512321472,0.51177579164505,-0.5055025815963745
1772031815173495000,2.7764951171875,0.6166238784790039,0.516270637512207,-0.6079200506210327
1772031815183444000,2.78644384765625,0.4995036721229553,0.5013813972473145,-0.7570158243179321
1772031815193392000,2.79639208984375,0.3821704387664795,0.477654367685318,-0.9341415762901306
1772031815203341000,2.806341064453125,0.2713014483451843,0.43939724564552307,-1.0891075134277344
1772031815213290000,2.8162900390625,0.18323399126529694,0.3985426425933838,-1.196503758430481
1772031815223238000,2.82623779296875,0.1148219183087349,0.34175044298171997,-1.229170322418213
1772031815233187000,2.83618701171875,0.05076056346297264,0.2509288191795349,-1.1782547235488892
1772031815243135000,2.846135009765625,-0.01963823288679123,0.1124846562743187,-1.0541421175003052
1772031815253084000,2.856083984375,-0.10951890051364899,-0.019443243741989136,-0.876910388469696
1772031815263033000,2.866033203125,-0.22395066916942596,-0.09379231184720993,-0.6700026988983154
1772031815272982000,2.87598193359375,-0.33854830265045166,-0.13364651799201965,-0.4490484297275543
1772031815282930200,2.88593017578125,-0.42208927869796753,-0.15560241043567657,-0.23597316443920135
1772031815292879000,2.895879150390625,-0.45469042658805847,-0.17330464720726013,-0.05585167184472084
1772031815302828000,2.905828125,-0.4561077654361725,-0.18861062824726105,0.07373081892728806
1772031815312776200,2.915776123046875,-0.4408228397369385,-0.19488734006881714,0.15156635642051697
1772031815322725000,2.92572509765625,-0.4193071722984314,-0.181801900267601,0.18198338150978088
1772031815332674000,2.935674072265625,-0.3961036205291748,-0.14378030598163605,0.17244699597358704
1772031815342622000,2.9456220703125,-0.3816186785697937,-0.09666499495506287,0.14575733244419098
1772031815352571100,2.955571044921875,-0.37449294328689575,-0.05448232218623161,0.13083422183990479
1772031815362520000,2.96552001953125,-0.3804038166999817,-0.013674705289304256,0.12506236135959625
1772031815372468000,2.975468017578125,-0.40295714139938354,0.03771667927503586,0.14325205981731415
1772031815382417000,2.9854169921875,-0.4333222210407257,0.07302194088697433,0.18015627562999725
1772031815392365800,2.99536572265625,-0.4697304666042328,0.09271825104951859,0.24534934759140015
1772031815402314000,3.00531396484375,-0.5119360089302063,0.09622829407453537,0.3322855830192566
1772031815412263200,3.01526318359375,-0.5554989576339722,0.05075189098715782,0.4454442858695984
1772031815422212000,3.025212158203125,-0.6129134893417358,-0.08415745198726654,0.5775008797645569
1772031815432160300,3.03516015625,-0.6593605279922485,-0.20833879709243774,0.6731279492378235
1772031815442109200,3.045109130859375,-0.691705584526062,-0.28325191140174866,0.7022882699966431
1772031815452058000,3.05505810546875,-0.7165732979774475,-0.3225789964199066,0.6922743916511536
1772031815462006000,3.065006103515625,-0.738882303237915,-0.27513906359672546,0.6266583800315857
1772031815471955000,3.074954833984375,-0.7327359914779663,-0.10668700188398361,0.4993475377559662
1772031815481904000,3.084904052734375,-0.705249547958374,0.1339021623134613,0.3330293893814087
1772031815491852000,3.09485205078125,-0.6548237800598145,0.36276882886886597,0.18670397996902466
1772031815501801000,3.104801025390625,-0.5727826952934265,0.557021975517273,0.10000450164079666
1772031815511750000,3.11475,-0.44042858481407166,0.6735521554946899,0.1164245754480362
1772031815521698000,3.124697998046875,-0.28028151392936707,0.6580824255943298,0.2499019354581833
1772031815531647000,3.13464697265625,-0.1358618587255478,0.5144162774085999,0.482815682888031
1772031815541596000,3.144595947265625,-0.04444485157728195,0.3152887523174286,0.7497602701187134
1772031815551544000,3.1545439453125,-0.02596217393875122,0.13555961847305298,0.9941527843475342
1772031815561493200,3.1644931640625,-0.06127888709306717,0.006218940019607544,1.1738698482513428
1772031815571442200,3.174442138671875,-0.0961850956082344,-0.0904492437839508,1.270615816116333
1772031815581390000,3.18439013671875,-0.09664582461118698,-0.14825288951396942,1.2816205024719238
1772031815591339000,3.194339111328125,-0.07176867127418518,-0.2130032479763031,1.2310547828674316
1772031815601288200,3.2042880859375,-0.02354174666106701,-0.31035375595092773,1.1289103031158447
1772031815611236000,3.214236083984375,0.03343983367085457,-0.4314379096031189,0.9805744886398315
1772031815621185000,3.22418505859375,0.09435565024614334,-0.557324230670929,0.8157621026039124
1772031815631134000,3.234134033203125,0.15046489238739014,-0.6857155561447144,0.6462448239326477
1772031815641082000,3.24408203125,0.1917172521352768,-0.8219157457351685,0.4848692715167999
1772031815651031000,3.254031005859375,0.20473752915859222,-0.9354813098907471,0.3462238609790802
1772031815660980000,3.26397998046875,0.2121696025133133,-0.998171329498291,0.22227714955806732
1772031815670928100,3.27392822265625,0.2113470584154129,-1.0122452974319458,0.12791691720485687
1772031815680877000,3.283876953125,0.21010921895503998,-0.9570030570030212,0.08185221999883652
1772031815690826000,3.293825927734375,0.20920760929584503,-0.8617340326309204,0.08869650214910507
1772031815700774000,3.30377392578125,0.20965874195098877,-0.7336386442184448,0.14870789647102356
1772031815710723000,3.31372314453125,0.19731353223323822,-0.609370231628418,0.24236571788787842
1772031815720672300,3.32367236328125,0.1560417264699936,-0.5034903883934021,0.32918158173561096
1772031815730620200,3.3336201171875,0.09433835744857788,-0.4268954396247864,0.3760264813899994
1772031815740569000,3.343569091796875,0.02495129592716694,-0.40674516558647156,0.381547749042511
1772031815750518000,3.35351806640625,-0.03553333505988121,-0.4531763792037964,0.3671134412288666
1772031815760466200,3.363466064453125,-0.08544470369815826,-0.5497747659683228,0.3498108685016632
1772031815770415000,3.3734150390625,-0.13518132269382477,-0.6574546694755554,0.33303356170654297
1772031815780364000,3.383364013671875,-0.19291093945503235,-0.737218976020813,0.3002660274505615
1772031815790312000,3.39331201171875,-0.23991535604000092,-0.7556688785552979,0.24017217755317688
1772031815800261000,3.40326123046875,-0.27764248847961426,-0.7239503264427185,0.1496121883392334
1772031815810210000,3.4132099609375,-0.30212166905403137,-0.6382627487182617,0.034199390560388565
1772031815820158000,3.423157958984375,-0.31756213307380676,-0.5082852840423584,-0.10013151913881302
1772031815830107000,3.43310693359375,-0.31829360127449036,-0.36948299407958984,-0.2287800908088684
1772031815840056000,3.44305615234375,-0.3062792718410492,-0.24101340770721436,-0.3469381332397461
1772031815850004000,3.45300390625,-0.28141099214553833,-0.1267671138048172,-0.45168575644493103
1772031815859953000,3.462952880859375,-0.24776433408260345,-0.03343795984983444,-0.5544078350067139
1772031815869902000,3.472902099609375,-0.2024649679660797,0.03331433981657028,-0.6547837853431702
1772031815879850200,3.482850341796875,-0.14938123524188995,0.07320423424243927,-0.731833815574646
1772031815889799200,3.492799072265625,-0.10069330036640167,0.09963148087263107,-0.778346598148346
1772031815899748000,3.502748046875,-0.049849558621644974,0.11069691181182861,-0.8038650155067444
1772031815909696000,3.512696044921875,-0.004973601084202528,0.15918143093585968,-0.8016693592071533
1772031815919645200,3.522645263671875,0.033181242644786835,0.2521071135997772,-0.7615075707435608
1772031815929594000,3.532593994140625,0.06419438123703003,0.3535589575767517,-0.6890434622764587
1772031815939542000,3.5425419921875,0.08957750350236893,0.45173051953315735,-0.6005268692970276
1772031815949491000,3.552490966796875,0.11411988735198975,0.5363996624946594,-0.5214685797691345
1772031815959440000,3.56243994140625,0.12846659123897552,0.5866676568984985,-0.4557790458202362
1772031815969388000,3.572387939453125,0.13818511366844177,0.6098225712776184,-0.40938490629196167
1772031815979337000,3.5823369140625,0.14295004308223724,0.6162908673286438,-0.3560175597667694
1772031815989286000,3.592285888671875,0.14855200052261353,0.5880817770957947,-0.2998608946800232
1772031815999234000,3.602234130859375,0.1613634079694748,0.5165226459503174,-0.2659447193145752
1772031816009183000,3.612182861328125,0.1791360229253769,0.4218944013118744,-0.2641397714614868
1772031816019132200,3.622132080078125,0.209631085395813,0.3591543138027191,-0.28778383135795593
1772031816029080000,3.632080078125,0.2626541256904602,0.35988155007362366,-0.34717702865600586
1772031816039029200,3.642029296875,0.33833423256874084,0.373867928981781,-0.4044105112552643
1772031816048978200,3.651978271484375,0.4121875464916229,0.3711954355239868,-0.43897131085395813
1772031816058926000,3.661926025390625,0.4646773636341095,0.38555893301963806,-0.45073261857032776
1772031816068875000,3.671875,0.505009114742279,0.43941956758499146,-0.4421532452106476
1772031816078824000,3.681823974609375,0.5621975660324097,0.46016427874565125,-0.38712701201438904
1772031816088772000,3.691772216796875,0.6159226298332214,0.4686042368412018,-0.32405582070350647
1772031816098721000,3.701720947265625,0.6556820273399353,0.4687861204147339,-0.24509204924106598
1772031816108670000,3.711669921875,0.6750028133392334,0.43376848101615906,-0.1727575808763504
1772031816118618000,3.7216181640625,0.657311201095581,0.3275189995765686,-0.09837574511766434
1772031816128567000,3.731567138671875,0.5938912034034729,0.18954631686210632,-0.032583288848400116
1772031816138516000,3.741515869140625,0.5070244669914246,0.13617710769176483,0.0010090256109833717
1772031816148465200,3.751465087890625,0.4085119366645813,0.1564454287290573,0.032852623611688614
1772031816158413000,3.7614130859375,0.3191272020339966,0.17890919744968414,0.04729202017188072
1772031816168362200,3.7713623046875,0.22492681443691254,0.32032668590545654,-0.0015940694138407707
1772031816178306300,3.781306396484375,0.17518189549446106,0.626634955406189,-0.17383775115013123
1772031816188255200,3.791255126953125,0.21802690625190735,0.9941060543060303,-0.4544770419597626
1772031816198204200,3.8012041015625,0.33771947026252747,1.2504390478134155,-0.7406198978424072
1772031816208153600,3.811153564453125,0.48005422949790955,1.3078564405441284,-0.9142523407936096
1772031816218101200,3.821101318359375,0.6351695656776428,1.134751796722412,-0.9371421933174133
1772031816228050400,3.831050537109375,0.7806901931762695,0.727689266204834,-0.774318277835846
1772031816237998600,3.84099853515625,0.8936194181442261,0.39780884981155396,-0.501442015171051
1772031816247947500,3.850947509765625,0.940495491027832,0.24567916989326477,-0.21324342489242554
1772031816257896400,3.860896484375,0.8829778432846069,0.14660212397575378,0.05020419508218765
1772031816267845400,3.870845458984375,0.7095529437065125,-0.06509954482316971,0.29130059480667114
1772031816277793300,3.880793212890625,0.5150700211524963,-0.31292638182640076,0.48243218660354614
1772031816287742500,3.890742431640625,0.37853914499282837,-0.4232445955276489,0.6092835664749146
1772031816297691400,3.90069140625,0.26303812861442566,-0.4269386827945709,0.716902494430542
1772031816307639300,3.910639404296875,0.1492244303226471,-0.3824425935745239,0.829386830329895
1772031816317588200,3.920588134765625,0.04503810405731201,-0.30949699878692627,0.9266183376312256
1772031816327537400,3.930537353515625,-0.04745222628116608,-0.20446863770484924,0.9898280501365662
1772031816337485300,3.9404853515625,-0.11466961354017258,-0.07199793308973312,1.0019092559814453
1772031816347434200,3.950434326171875,-0.1417548954486847,0.05431629717350006,0.9606320261955261
1772031816357383400,3.960383544921875,-0.12641587853431702,0.17486214637756348,0.8592894077301025
1772031816367331300,3.970331298828125,-0.05913087725639343,0.28938454389572144,0.7106621265411377
1772031816377280500,3.980280517578125,0.05805859714746475,0.40119922161102295,0.5095303654670715
1772031816387229400,3.9902294921875,0.21968398988246918,0.5060038566589355,0.26021456718444824
1772031816397177300,4.00017724609375,0.40404507517814636,0.5641878247261047,-0.018969688564538956
1772031816407126500,4.01012646484375,0.5993308424949646,0.5419684052467346,-0.28867316246032715
1772031816417075500,4.020075439453125,0.7763484716415405,0.4389658272266388,-0.5135079026222229
1772031816427023400,4.0300234375,0.9204484820365906,0.27261829376220703,-0.6672825813293457
1772031816436972300,4.03997216796875,1.0075887441635132,0.09666351228952408,-0.7225769758224487
1772031816446921500,4.04992138671875,1.0151340961456299,-0.03703049570322037,-0.6899015307426453
1772031816456869400,4.059869384765625,0.9554161429405212,-0.11900845170021057,-0.5797467827796936
1772031816466818300,4.069818359375,0.8417619466781616,-0.1602133810520172,-0.4242521822452545
1772031816476767200,4.079767333984375,0.7085673809051514,-0.18359486758708954,-0.24522891640663147
1772031816486715400,4.08971533203125,0.5825673341751099,-0.20548884570598602,-0.08958473801612854
1772031816496664300,4.099664306640625,0.4871194064617157,-0.2334752082824707,0.003714049467816949
1772031816506613500,4.109613525390625,0.41900041699409485,-0.2526642680168152,0.018149085342884064
1772031816516561200,4.11956103515625,0.36818331480026245,-0.2722936272621155,-0.025577623397111893
1772031816526510600,4.129510498046875,0.33400559425354004,-0.3007839024066925,-0.10681729763746262
1772031816536459500,4.13945947265625,0.325117290019989,-0.30723699927330017,-0.19335752725601196
1772031816546407400,4.149407470703125,0.3383605480194092,-0.2901463210582733,-0.2818089723587036
1772031816556356400,4.1593564453125,0.34752050042152405,-0.25904831290245056,-0.36842191219329834
1772031816566305300,4.16930517578125,0.3438712954521179,-0.20863187313079834,-0.4527115225791931
1772031816576253400,4.17925341796875,0.3215247094631195,-0.14194737374782562,-0.5459921360015869
1772031816586202400,4.189202392578125,0.2918413579463959,-0.04687833413481712,-0.6123707890510559
1772031816596151300,4.1991513671875,0.26252686977386475,0.07580391317605972,-0.6295649409294128
1772031816606099500,4.209099365234375,0.2404293417930603,0.18711619079113007,-0.5932676196098328
1772031816616048400,4.21904833984375,0.20612622797489166,0.26630181074142456,-0.5148985385894775
1772031816625997300,4.228997314453125,0.16288191080093384,0.3051277995109558,-0.4009040892124176
1772031816635945200,4.2389453125,0.11131379753351212,0.28862500190734863,-0.28730854392051697
1772031816645894400,4.248894287109375,0.05407005548477173,0.23429559171199799,-0.17818669974803925
1772031816655843600,4.258843505859375,0.009618967771530151,0.16894587874412537,-0.07468026876449585
1772031816665791200,4.268791259765625,-0.014077436178922653,0.10157369077205658,0.014368738979101181
1772031816675740400,4.278740478515625,-0.02525472268462181,0.03092987835407257,0.09875525534152985
1772031816685689300,4.288689453125,-0.0264201108366251,-0.0002612583339214325,0.1500893533229828
1772031816695637500,4.298637451171875,-0.02239580824971199,0.010084589943289757,0.15339860320091248
1772031816705586400,4.30858642578125,-0.020687628537416458,0.024626849219202995,0.12119878828525543
1772031816715535400,4.318535400390625,-0.030130397528409958,0.03953602537512779,0.06955423206090927
1772031816725483500,4.3284833984375,-0.04313656687736511,0.04006442427635193,0.0048387437127530575
1772031816735432400,4.338432373046875,-0.0652269572019577,0.050519462674856186,-0.06715262681245804
1772031816745381400,4.34838134765625,-0.08896016329526901,0.05630367994308472,-0.12953029572963715
1772031816755329300,4.358329345703125,-0.11844934523105621,0.05396515876054764,-0.17056775093078613
1772031816765278500,4.368278564453125,-0.1615431308746338,0.044895365834236145,-0.18765687942504883
1772031816775227400,4.378227294921875,-0.21861813962459564,0.030633339658379555,-0.18490824103355408
1772031816785175300,4.38817529296875,-0.2746891975402832,0.012678738683462143,-0.16698512434959412
1772031816795124200,4.398124267578125,-0.32980066537857056,-0.024008968845009804,-0.13382795453071594
1772031816805073200,4.4080732421875,-0.3798981308937073,-0.07543088495731354,-0.08342542499303818
1772031816815021300,4.418021240234375,-0.432586669921875,-0.1495266854763031,-0.006843565031886101
1772031816824970500,4.427970458984375,-0.46624764800071716,-0.22623060643672943,0.06467869132757187
1772031816834919400,4.43791943359375,-0.477202832698822,-0.2831796705722809,0.11164167523384094
1772031816844868400,4.447868408203125,-0.4904601573944092,-0.3319217562675476,0.12343672662973404
1772031816854816500,4.45781640625,-0.5072801113128662,-0.3938210606575012,0.11148791760206223
1772031816864765400,4.467765380859375,-0.5230501294136047,-0.43314769864082336,0.07927317172288895
1772031816874714400,4.47771435546875,-0.5112520456314087,-0.3329545259475708,0.01869131438434124
1772031816884662300,4.487662353515625,-0.4602668583393097,-0.05222369730472565,-0.0782078430056572
1772031816894611500,4.497611572265625,-0.40732160210609436,0.3014422059059143,-0.19209234416484833
1772031816904560400,4.507560302734375,-0.3791808485984802,0.5941045880317688,-0.252145379781723
1772031816914508300,4.51750830078125,-0.33488979935646057,0.7210689187049866,-0.1951846331357956
1772031816924457200,4.527457275390625,-0.27487996220588684,0.6554149985313416,-0.027795275673270226
1772031816934406400,4.537406494140625,-0.2237219661474228,0.41638725996017456,0.23996931314468384
1772031816944354300,4.547354248046875,-0.21904373168945312,0.05677955225110054,0.5366836786270142
1772031816954303200,4.55730322265625,-0.27663329243659973,-0.310577929019928,0.7964390516281128
1772031816964252400,4.56725244140625,-0.37580645084381104,-0.5603389739990234,0.9520658850669861
1772031816974200600,4.57720068359375,-0.4832269251346588,-0.6693810224533081,1.0204509496688843
1772031816984149500,4.5871494140625,-0.5799022316932678,-0.6960769891738892,1.0222961902618408
1772031816994098400,4.597098388671875,-0.6633819937705994,-0.6582132577896118,0.9767508506774902
1772031817004046300,4.60704638671875,-0.7272364497184753,-0.5581663250923157,0.875584065914154
1772031817013995500,4.61699560546875,-0.7539942860603333,-0.427826464176178,0.7256148457527161
1772031817023944400,4.6269443359375,-0.7293868064880371,-0.3069015145301819,0.5374683141708374
1772031817033892400,4.636892333984375,-0.6594426035881042,-0.19893138110637665,0.3259006440639496
1772031817043841300,4.64684130859375,-0.5460352897644043,-0.10029878467321396,0.12342526763677597
1772031817053790200,4.656790283203125,-0.4169806241989136,-0.02087479457259178,-0.04368701949715614
1772031817063738400,4.66673828125,-0.292751669883728,0.006660066545009613,-0.16102764010429382
1772031817073687300,4.676687255859375,-0.1684824526309967,-0.014130165800452232,-0.22196689248085022
1772031817083636200,4.68663623046875,-0.05780062824487686,-0.09339400380849838,-0.218584805727005
1772031817093584400,4.69658447265625,0.028823480010032654,-0.2284839153289795,-0.15734195709228516
1772031817103533300,4.706533203125,0.06425295025110245,-0.39662066102027893,-0.0756511241197586
1772031817113482500,4.716482421875,0.04050687327980995,-0.5731565356254578,0.002266045892611146
1772031817123430400,4.726430419921875,-0.029192015528678894,-0.7200155258178711,0.0652213916182518
1772031817133379600,4.736379638671875,-0.10900188982486725,-0.8000629544258118,0.11594448983669281
1772031817143328500,4.74632861328125,-0.1911688894033432,-0.8219079375267029,0.16222809255123138
1772031817153276400,4.7562763671875,-0.2644806504249573,-0.8171733617782593,0.21079324185848236
1772031817163225300,4.766225341796875,-0.32285502552986145,-0.7795791029930115,0.23781061172485352
1772031817173174300,4.77617431640625,-0.36040163040161133,-0.7250892519950867,0.23909664154052734
1772031817183122700,4.786122802734375,-0.3741018772125244,-0.6612650156021118,0.21261492371559143
1772031817193071600,4.796071533203125,-0.36491960287094116,-0.5758628249168396,0.1520106941461563
1772031817203020500,4.8060205078125,-0.33347493410110474,-0.4509942829608917,0.059094395488500595
1772031817212968700,4.81596875,-0.283578485250473,-0.3094339668750763,-0.0625191181898117
1772031817222917600,4.825917724609375,-0.22132907807826996,-0.17390908300876617,-0.21563872694969177
1772031817232866600,4.835866455078125,-0.1291184425354004,-0.06184326112270355,-0.3836168050765991
1772031817242814500,4.845814453125,-0.026582222431898117,0.0060846577398478985,-0.5422730445861816
1772031817252763400,4.855763427734375,0.056226372718811035,0.027865586802363396,-0.665765643119812
1772031817262712800,4.865712890625,0.1266299933195114,0.03819805011153221,-0.743613064289093
1772031817272661800,4.875661865234375,0.17823059856891632,0.06362111866474152,-0.7685983180999756
1772031817282609700,4.885609619140625,0.21232300996780396,0.08459357172250748,-0.7258645296096802
1772031817292558600,4.89555859375,0.22467021644115448,0.07853594422340393,-0.6282921433448792
1772031817302506800,4.9055068359375,0.21630123257637024,0.06037025898694992,-0.48848816752433777
1772031817312455700,4.91545556640625,0.19064034521579742,0.026204833760857582,-0.3299403488636017
1772031817322404600,4.925404541015625,0.15726988017559052,-0.01081204041838646,-0.17316113412380219
1772031817332352500,4.9353525390625,0.12469009310007095,-0.03265475481748581,-0.046115558594465256
1772031817342301700,4.9453017578125,0.10848070681095123,0.0028440228197723627,0.05514727160334587
1772031817352250600,4.955250732421875,0.09253396093845367,0.06911785155534744,0.13124443590641022
1772031817362199600,4.965199462890625,0.07424639910459518,0.13727939128875732,0.19129987061023712
1772031817372147500,4.9751474609375,0.057940125465393066,0.2040885090827942,0.22299228608608246
1772031817382096600,4.9850966796875,0.06953650712966919,0.2752624750137329,0.21676373481750488
1772031817392045800,4.9950458984375,0.10486600548028946,0.34261462092399597,0.18161293864250183
1772031817401993500,5.004993408203125,0.15534254908561707,0.38838115334510803,0.14828240871429443
1772031817411942700,5.014942626953125,0.1960657387971878,0.39228561520576477,0.13105255365371704
1772031817421891600,5.0248916015625,0.2185048609972,0.34927526116371155,0.1302916556596756
1772031817431839700,5.03483984375,0.20972149074077606,0.2188432216644287,0.1472780853509903
1772031817441788700,5.04478857421875,0.17005276679992676,0.0740102007985115,0.1892765760421753
1772031817451737600,5.054737548828125,0.13052800297737122,-0.0038789999671280384,0.2061453014612198
1772031817461685800,5.064685791015625,0.10265041142702103,-0.0015455721877515316,0.17200779914855957
1772031817471634700,5.074634765625,0.07716209441423416,0.04277634993195534,0.07698436081409454
1772031817481583600,5.08458349609375,0.043960511684417725,0.08355411142110825,-0.06741201877593994
1772031817491531500,5.094531494140625,0.035311102867126465,0.14314685761928558,-0.24326375126838684
1772031817501480700,5.104480712890625,0.1012411117553711,0.24966983497142792,-0.4422793686389923
1772031817511429600,5.1144296875,0.22914820909500122,0.36820662021636963,-0.6523170471191406
1772031817521377500,5.12437744140625,0.37216445803642273,0.4573301076889038,-0.832943320274353
1772031817531326500,5.134326416015625,0.5203632712364197,0.4986221492290497,-0.9418213367462158
1772031817541275600,5.144275634765625,0.6579164862632751,0.4624157249927521,-0.9413439035415649
1772031817551223600,5.1542236328125,0.7430992722511292,0.3317277729511261,-0.8040012717247009
1772031817561172700,5.1641728515625,0.7539602518081665,0.11337704956531525,-0.5559378266334534
1772031817571121700,5.17412158203125,0.6817284226417542,-0.150526225566864,-0.2777160704135895
1772031817581069800,5.18406982421875,0.5488240122795105,-0.4073086977005005,-0.015806525945663452
1772031817591018800,5.194018798828125,0.40861016511917114,-0.5407127737998962,0.213880717754364
1772031817600967700,5.2039677734375,0.2913917899131775,-0.5352170467376709,0.41621315479278564
1772031817610915600,5.21391552734375,0.18858018517494202,-0.4267081320285797,0.6365729570388794
1772031817620864500,5.223864501953125,0.09765565395355225,-0.258514940738678,0.8415131568908691
1772031817630813700,5.233813720703125,0.034897733479738235,-0.09700487554073334,0.9831304550170898
1772031817640761600,5.24376171875,0.010057695209980011,-0.005013792309910059,1.0319397449493408
1772031817650710500,5.25371044921875,0.021470405161380768,0.03821223974227905,0.981261134147644
1772031817660659500,5.263659423828125,0.07610564678907394,0.06282360106706619,0.8605345487594604
1772031817670607600,5.273607666015625,0.16433483362197876,0.09272610396146774,0.6884900331497192
1772031817680556500,5.283556640625,0.27228042483329773,0.10925530642271042,0.5019851922988892
1772031817690505700,5.293505615234375,0.3876696228981018,0.11439361423254013,0.2965433597564697
1772031817700453600,5.30345361328125,0.4937146306037903,0.10583491623401642,0.08460787683725357
1772031817710402800,5.31340283203125,0.5796101093292236,0.08744951337575912,-0.11841501295566559
1772031817720351700,5.323351806640625,0.6472581624984741,0.06714775413274765,-0.2908318340778351
1772031817730300700,5.33330078125,0.696959912776947,0.03845618665218353,-0.4095475673675537
1772031817740248600,5.34324853515625,0.7310373783111572,0.009891250170767307,-0.47761350870132446
1772031817750197800,5.35319775390625,0.7437406778335571,-0.0037971315905451775,-0.5089796781539917
1772031817760146700,5.363146728515625,0.7359119057655334,-0.021275373175740242,-0.5008225440979004
1772031817770094600,5.373094482421875,0.7225324511528015,-0.028590545058250427,-0.47239384055137634
1772031817780043500,5.38304345703125,0.7077930569648743,-0.04332996904850006,-0.43199819326400757
1772031817789992400,5.392992431640625,0.6848427057266235,-0.051476579159498215,-0.3958881199359894
1772031817799940600,5.402940673828125,0.6510368585586548,-0.051260363310575485,-0.37139853835105896
1772031817809889500,5.4128896484375,0.6118417382240295,-0.04551113024353981,-0.38002291321754456
1772031817819838500,5.42283837890625,0.5705806016921997,-0.04984964802861214,-0.4015224874019623
1772031817829786600,5.43278662109375,0.5285524129867554,-0.048880256712436676,-0.44573095440864563
1772031817839735800,5.44273583984375,0.496355265378952,-0.04477063938975334,-0.5005896687507629
1772031817849684700,5.452684814453125,0.4673880934715271,-0.03279067575931549,-0.5574164986610413
1772031817859632600,5.462632568359375,0.43390658497810364,-0.0135264340788126,-0.6195170879364014
1772031817869581800,5.472581787109375,0.39091065526008606,0.02787187322974205,-0.6868993043899536
1772031817879530800,5.48253076171875,0.32535064220428467,0.07631614059209824,-0.7369066476821899
1772031817889478700,5.492478759765625,0.2483072727918625,0.10735022276639938,-0.7575437426567078
1772031817899427600,5.502427490234375,0.16390541195869446,0.12922516465187073,-0.7480641007423401
1772031817909376500,5.51237646484375,0.08750758320093155,0.1345416158437729,-0.7039802670478821
1772031817919324700,5.52232470703125,0.012662513181567192,0.12254145741462708,-0.6336461305618286
1772031817929273600,5.532273681640625,-0.04566311091184616,0.09934026747941971,-0.5359653830528259
1772031817939222500,5.542222412109375,-0.08521406352519989,0.06074110418558121,-0.41488444805145264
1772031817949170700,5.552170654296875,-0.10986481606960297,0.027533885091543198,-0.27689167857170105
1772031817959119600,5.56211962890625,-0.11864743381738663,0.00926633644849062,-0.13635003566741943
1772031817969068500,5.572068603515625,-0.13013577461242676,0.005082244053483009,-0.002485710196197033
1772031817979016400,5.582016357421875,-0.1534750610589981,0.025106512010097504,0.10845675319433212
1772031817988965600,5.591965576171875,-0.19202804565429688,0.04559900611639023,0.18069098889827728
1772031817998914800,5.601914794921875,-0.23565982282161713,0.05138187110424042,0.2204044908285141
1772031818008862700,5.61186279296875,-0.27700886130332947,0.055208299309015274,0.21933922171592712
1772031818018811600,5.621811767578125,-0.3137948215007782,0.07662239670753479,0.21330703794956207
1772031818028760600,5.631760498046875,-0.33417412638664246,0.12654948234558105,0.19238977134227753
1772031818038708700,5.641708740234375,-0.3502340614795685,0.18809232115745544,0.1631057858467102
1772031818048657700,5.65165771484375,-0.36381858587265015,0.2293311059474945,0.130583256483078
1772031818058606600,5.661606689453125,-0.3834547996520996,0.23548360168933868,0.11920233070850372
1772031818068555500,5.671555419921875,-0.4080623984336853,0.2347261905670166,0.12776198983192444
1772031818078503700,5.681503662109375,-0.42529037594795227,0.21572163701057434,0.14621064066886902
1772031818088452600,5.69145263671875,-0.4434211850166321,0.15874359011650085,0.18616685271263123
1772031818098401500,5.701401611328125,-0.44971269369125366,0.057381898164749146,0.2505030035972595
1772031818108349400,5.711349365234375,-0.45185282826423645,-0.10163518041372299,0.32554954290390015
1772031818118298600,5.721298583984375,-0.46030136942863464,-0.2926686108112335,0.3884512484073639
1772031818128247800,5.731247802734375,-0.45487409830093384,-0.38196495175361633,0.41576090455055237
1772031818138195500,5.741195556640625,-0.42901331186294556,-0.338802695274353,0.38741564750671387
1772031818148144600,5.75114453125,-0.4078603684902191,-0.26745927333831787,0.31581202149391174
1772031818158093600,5.761093505859375,-0.37091776728630066,-0.14682015776634216,0.1927611380815506
1772031818168041700,5.771041748046875,-0.28896379470825195,0.08679764717817307,0.0608273483812809
1772031818177990100,5.780990234375,-0.19167590141296387,0.33516621589660645,-0.04954531788825989
1772031818187939300,5.790939208984375,-0.08205113559961319,0.5067763328552246,-0.144913911819458
1772031818197887200,5.80088720703125,0.025785069912672043,0.5667328238487244,-0.19828791916370392
1772031818207836400,5.81083642578125,0.13471661508083344,0.48212847113609314,-0.17928573489189148
1772031818217785300,5.820785400390625,0.20662830770015717,0.2443983256816864,-0.05168170481920242
1772031818227733200,5.830733154296875,0.20463040471076965,-0.07366353273391724,0.18456943333148956
1772031818237682400,5.840682373046875,0.11255737394094467,-0.3728657364845276,0.47886356711387634
1772031818247631400,5.85063134765625,-0.05611605942249298,-0.583372950553894,0.7633312344551086
1772031818257579300,5.860579345703125,-0.23747365176677704,-0.6702784895896912,0.9705244302749634
1772031818267528200,5.870528076171875,-0.39197295904159546,-0.6713293790817261,1.0968186855316162
1772031818277477400,5.880477294921875,-0.5086409449577332,-0.6176266670227051,1.132310390472412
1772031818287425300,5.89042529296875,-0.5946512222290039,-0.5021916627883911,1.0898246765136719
1772031818297374200,5.900374267578125,-0.642782986164093,-0.35309240221977234,0.978625476360321
1772031818307323100,5.9103232421875,-0.6361607909202576,-0.21010619401931763,0.8173750638961792
1772031818317271300,5.920271240234375,-0.5758745670318604,-0.07698186486959457,0.6169347763061523
1772031818327220200,5.93022021484375,-0.4610883295536041,0.03467942029237747,0.3770957887172699
1772031818337169400,5.94016943359375,-0.3154623806476593,0.1254085749387741,0.11023028194904327
1772031818347117300,5.950117431640625,-0.17152301967144012,0.14513275027275085,-0.13263696432113647
1772031818357066500,5.96006640625,-0.030929535627365112,0.09347324818372726,-0.3070891499519348
1772031818367015400,5.970015380859375,0.09035135060548782,-0.00638223672285676,-0.39390820264816284
1772031818376963300,5.97996337890625,0.1791420429944992,-0.11444433778524399,-0.3854779303073883
1772031818386912300,5.989912353515625,0.20742188394069672,-0.17565149068832397,-0.30925241112709045
1772031818396861400,5.999861328125,0.16737043857574463,-0.22121770679950714,-0.19877128303050995
1772031818406809300,6.009809326171875,0.06768857687711716,-0.26589062809944153,-0.06604012846946716
1772031818416758300,6.01975830078125,-0.06170034781098366,-0.32148826122283936,0.0653224065899849
1772031818426707200,6.029707275390625,-0.1788618564605713,-0.37950360774993896,0.17018917202949524
1772031818436656000,6.03965625,-0.2812614440917969,-0.4188065528869629,0.23437507450580597
1772031818446604300,6.049604248046875,-0.3584992587566376,-0.45702850818634033,0.27756568789482117
1772031818456553200,6.05955322265625,-0.4000541865825653,-0.5328640937805176,0.30218783020973206
1772031818466502100,6.069502197265625,-0.42417362332344055,-0.6548746824264526,0.322519987821579
1772031818476450300,6.0794501953125,-0.44737952947616577,-0.7813958525657654,0.3512271046638489
1772031818486399500,6.0893994140625,-0.4733695983886719,-0.8549597859382629,0.35715875029563904
1772031818496348400,6.099348388671875,-0.49757444858551025,-0.8567320108413696,0.3275035321712494
1772031818506296300,6.10929638671875,-0.503418505191803,-0.7811903953552246,0.2638624906539917
1772031818516245200,6.119245361328125,-0.48356136679649353,-0.6544160842895508,0.18107448518276215
1772031818526194400,6.1291943359375,-0.4349472224712372,-0.5028997659683228,0.09515053033828735
1772031818536142300,6.139142333984375,-0.3602336347103119,-0.3375261425971985,0.007207805290818214
1772031818546091300,6.14909130859375,-0.274522989988327,-0.15681575238704681,-0.06929096579551697
1772031818556040200,6.159040283203125,-0.19411440193653107,-0.0042619965970516205,-0.13972052931785583
1772031818565988400,6.16898828125,-0.1376388818025589,0.10022473335266113,-0.2022150456905365
1772031818575937300,6.178937255859375,-0.10482002049684525,0.15311798453330994,-0.2556164860725403
1772031818585886200,6.18888623046875,-0.08634939789772034,0.16853182017803192,-0.30547085404396057
1772031818595834400,6.19883447265625,-0.07472667098045349,0.15860165655612946,-0.33841386437416077
1772031818605783300,6.208783203125,-0.06550787389278412,0.15590333938598633,-0.3423825204372406
1772031818615732200,6.218732177734375,-0.06292855739593506,0.1635723114013672,-0.32309991121292114
1772031818625680100,6.22868017578125,-0.06273014843463898,0.18748989701271057,-0.28755494952201843
1772031818635629000,6.238629150390625,-0.059753794223070145,0.23141908645629883,-0.24439409375190735
1772031818645578500,6.24857861328125,-0.053614143282175064,0.29571765661239624,-0.19056281447410583
1772031818655526400,6.2585263671875,-0.045830339193344116,0.3594186305999756,-0.1427174210548401
1772031818665475300,6.268475341796875,-0.03368818759918213,0.4122352600097656,-0.12500794231891632
1772031818675424300,6.27842431640625,-0.021478138864040375,0.4329689145088196,-0.13564558327198029
1772031818685372400,6.288372314453125,0.001006930135190487,0.41623225808143616,-0.1512186974287033
1772031818695321300,6.2983212890625,0.03442124277353287,0.3625377416610718,-0.1673474907875061
1772031818705270300,6.308270263671875,0.06408592313528061,0.31816282868385315,-0.18305189907550812
1772031818715219200,6.31821923828125,0.0882585197687149,0.31158268451690674,-0.20423796772956848
1772031818725167400,6.32816748046875,0.10254664719104767,0.3201732337474823,-0.21949493885040283
1772031818735116300,6.3381162109375,0.1101851835846901,0.32915353775024414,-0.22773009538650513
1772031818745065200,6.348065185546875,0.11351919174194336,0.33306998014450073,-0.22482219338417053
1772031818755013000,6.35801318359375,0.11149170994758606,0.3271213173866272,-0.19443365931510925
1772031818764962300,6.36796240234375,0.10988076031208038,0.294708251953125,-0.12947596609592438
1772031818774911500,6.377911376953125,0.12629620730876923,0.26970598101615906,-0.053069476038217545
1772031818784859100,6.387859130859375,0.1545502096414566,0.2599859833717346,0.013857891783118248
1772031818794808300,6.397808349609375,0.17369477450847626,0.24937032163143158,0.07602157443761826
1772031818804757200,6.40775732421875,0.1739395260810852,0.2340286374092102,0.1240098774433136
1772031818814705400,6.417705322265625,0.1567273736000061,0.2670055031776428,0.1579919010400772
1772031818824654300,6.427654296875,0.16484788060188293,0.39373093843460083,0.1571548581123352
1772031818834603300,6.437603271484375,0.19917310774326324,0.5283570289611816,0.12260442227125168
1772031818844551400,6.447551513671875,0.20300006866455078,0.5311999320983887,0.08886776864528656
1772031818854500400,6.457500244140625,0.16711296141147614,0.4281644821166992,0.05346264690160751
1772031818864449300,6.46744921875,0.15416333079338074,0.3655301332473755,-0.009511793032288551
1772031818874397200,6.477397216796875,0.18890239298343658,0.3682577610015869,-0.10832399129867554
1772031818884346400,6.487346435546875,0.25251251459121704,0.4070086181163788,-0.2458706647157669
1772031818894295300,6.49729541015625,0.32298150658607483,0.46739715337753296,-0.41127169132232666
1772031818904243200,6.5072431640625,0.40685591101646423,0.4715418219566345,-0.5720054507255554
1772031818914192100,6.517192138671875,0.4926285445690155,0.4008275866508484,-0.6707800626754761
1772031818924141300,6.527141357421875,0.5877318978309631,0.3343833088874817,-0.6791903376579285
1772031818934089200,6.537089111328125,0.6584146618843079,0.2832510471343994,-0.6049064993858337
1772031818944038400,6.547038330078125,0.6668688654899597,0.22527512907981873,-0.47235164046287537
1772031818953987300,6.5569873046875,0.5981011986732483,0.13439998030662537,-0.30932870507240295
1772031818963935500,6.566935546875,0.47521233558654785,0.02446097321808338,-0.14197592437267303
1772031818973884400,6.576884521484375,0.3293904960155487,-0.09722256660461426,0.015526233240962029
1772031818983833300,6.586833251953125,0.21809594333171844,-0.1766931563615799,0.16284377872943878
1772031818993781200,6.59678125,0.1426325887441635,-0.18927106261253357,0.3260672688484192
1772031819003730200,6.606730224609375,0.06225251406431198,-0.16674739122390747,0.49605417251586914
1772031819013679400,6.616679443359375,-0.012832792475819588,-0.12234798073768616,0.6373677253723145
1772031819023628300,6.626628173828125,-0.07532998919487,-0.09024357050657272,0.7013749480247498
1772031819033576200,6.636576171875,-0.11115019023418427,-0.07251438498497009,0.6778151392936707
1772031819043525000,6.646525146484375,-0.1149478554725647,-0.06176506727933884,0.5778658986091614
1772031819053474300,6.656474365234375,-0.0878051295876503,-0.01742972992360592,0.43426331877708435
1772031819063422200,6.666422119140625,-0.016403652727603912,0.04964038357138634,0.26223641633987427
1772031819073371400,6.676371337890625,0.07858917117118835,0.08349859714508057,0.07576048374176025
1772031819083320300,6.6863203125,0.17827022075653076,0.07031594961881638,-0.0933033674955368
1772031819093268500,6.6962685546875,0.2625453770160675,0.0033734592143446207,-0.2449265420436859
1772031819103217400,6.706217529296875,0.3406052887439728,-0.057897090911865234,-0.38747596740722656
1772031819113166300,6.716166259765625,0.4045737683773041,-0.12298054993152618,-0.505103349685669
1772031819123114200,6.7261142578125,0.44547832012176514,-0.17632579803466797,-0.56561279296875
1772031819133063400,6.7360634765625,0.46003708243370056,-0.18298624455928802,-0.5647853016853333
1772031819143012400,6.746012451171875,0.4472842812538147,-0.16420109570026398,-0.5234410762786865
1772031819152960300,6.755960205078125,0.41368013620376587,-0.1724599152803421,-0.4536550045013428
1772031819162909200,6.7659091796875,0.3681981563568115,-0.18809320032596588,-0.3679693937301636
1772031819172858000,6.775858154296875,0.3216021955013275,-0.20016691088676453,-0.3005753457546234
1772031819182806000,6.785805908203125,0.26438578963279724,-0.20117199420928955,-0.2770415246486664
1772031819192755200,6.795755126953125,0.21357795596122742,-0.18920907378196716,-0.2919428050518036
1772031819202704100,6.8057041015625,0.169376403093338,-0.16966120898723602,-0.34209731221199036
1772031819212652300,6.81565234375,0.131485253572464,-0.12997275590896606,-0.41520044207572937
1772031819222601200,6.825601318359375,0.10008525103330612,-0.07638462632894516,-0.48573559522628784
1772031819232550100,6.835550048828125,0.06897016614675522,-0.03584931418299675,-0.5410352945327759
1772031819242498000,6.845498046875,0.032165009528398514,-0.012295786291360855,-0.5565314292907715
1772031819252447200,6.855447265625,-0.010529795661568642,0.011786778457462788,-0.5423499345779419
1772031819262396200,6.865396240234375,-0.05394571274518967,0.04973389580845833,-0.49628445506095886
1772031819272344000,6.875343994140625,-0.09086614102125168,0.06545983254909515,-0.4100998044013977
1772031819282293000,6.88529296875,-0.12166693061590195,0.07348287105560303,-0.31215140223503113
1772031819292242200,6.8952421875,-0.1553153395652771,0.08152591437101364,-0.21262754499912262
1772031819302191000,6.905191162109375,-0.18618670105934143,0.07261604070663452,-0.11554811894893646
1772031819312139000,6.915138916015625,-0.21248747408390045,0.047681838274002075,-0.037353500723838806
1772031819322088200,6.925088134765625,-0.23728470504283905,0.0017899794038385153,0.027442004531621933
1772031819332037000,6.935037109375,-0.27001744508743286,-0.06817002594470978,0.08023975044488907
1772031819341985300,6.9449853515625,-0.29552680253982544,-0.11847980320453644,0.11526644229888916
1772031819351934200,6.954934326171875,-0.3187279999256134,-0.15645432472229004,0.1332186758518219
1772031819361883100,6.964883056640625,-0.3360808789730072,-0.18320044875144958,0.15024186670780182
1772031819371831300,6.974831298828125,-0.3447321653366089,-0.22679612040519714,0.16644187271595
1772031819381780200,6.9847802734375,-0.3749891221523285,-0.3346498906612396,0.1994059532880783
1772031819391729200,6.994729248046875,-0.42910531163215637,-0.46523669362068176,0.2493075579404831
1772031819401677000,7.004677001953125,-0.462079793214798,-0.527040421962738,0.3175595700740814
1772031819411626000,7.0146259765625,-0.4193558692932129,-0.3825574219226837,0.3938201069831848
1772031819421575200,7.0245751953125,-0.3432352542877197,-0.059738632291555405,0.32580801844596863
1772031819431523000,7.034523193359375,-0.3316681683063507,0.06123382970690727,0.22440101206302643
1772031819441472000,7.044471923828125,-0.3915512263774872,-0.022463463246822357,0.1525430679321289
1772031819451421000,7.0544208984375,-0.46741077303886414,-0.16062569618225098,0.07721763849258423
1772031819461369000,7.064369140625,-0.5358196496963501,-0.28636443614959717,-0.005423979368060827
1772031819471318300,7.074318359375,-0.5701591372489929,-0.37603145837783813,-0.061076439917087555
1772031819481267200,7.08426708984375,-0.5673505663871765,-0.42968109250068665,-0.04617392644286156
1772031819491215000,7.094215087890625,-0.5550720691680908,-0.4226714074611664,0.01578153483569622
