time,seconds_elapsed,z,y,x
1772031823600193000,0.086193115234375,-1.035960420051217,0.7645639840602875,0.7284471802141517
1772031823610142000,0.096141845703125,-0.7939186733603477,0.06793430306315422,-0.23036782164052128
1772031823620090000,0.106090087890625,-0.2618441792696714,-0.6327157194912433,-1.0737681726589798
1772031823630039000,0.1160390625,0.45315760924220083,-0.7972139155134558,-1.324516811288148
1772031823639988000,0.125988037109375,0.8471347152411938,-1.0555436569213867,-1.5837535845384
1772031823649936000,0.135935791015625,0.9247527924507856,-1.305565588711202,-1.7201410999722777
1772031823659885000,0.145885009765625,0.7128291206479073,-1.3902978818401694,-1.549835678976029
1772031823669834000,0.155833984375,0.23058453313112257,-1.3185644787549973,-1.2215336258713154
1772031823679783000,0.165782958984375,-0.33381752859055996,-0.9035118515014647,-0.7499539324928075
1772031823689730800,0.175730712890625,-0.7759037087202072,-0.18157149589806795,-0.2897445781081915
1772031823699679700,0.1856796875,-1.2528946134924888,0.27830080855190753,-0.10364210598329082
1772031823709629000,0.19562890625,-1.8693138626992702,0.4827525370389223,-0.10934398915302007
1772031823719576800,0.205576904296875,-2.2470085269391538,0.7358002463907003,-0.2818557976197451
1772031823729526000,0.215526123046875,-2.423387422630191,0.9688006084918975,-0.4763226135892793
1772031823739475000,0.225474853515625,-2.6562095055550334,0.9162748869627714,-0.28347203717734665
1772031823749423000,0.235423095703125,-3.003464607867598,0.6487532465785741,0.32643695335257794
1772031823759372000,0.2453720703125,-3.184205205899477,0.26040596316009756,0.9499177749760448
1772031823769321000,0.255321044921875,-2.950741902461648,-0.14183452879339456,1.4580918996497987
1772031823779270000,0.265269775390625,-2.411104279640317,-0.5251899952739477,1.7507218239359557
1772031823789218000,0.275218017578125,-1.8306687824845314,-0.6347904799386859,1.8931999113298952
1772031823799167000,0.2851669921875,-1.3218676119536161,-0.5231628733605146,1.8710842333726583
1772031823809116000,0.295115966796875,-0.9972352603375911,-0.15889087753444908,1.8338073727712034
1772031823819063800,0.305063720703125,-0.8579670749008655,0.36909576272070405,1.6934131059139965
1772031823829013000,0.315012939453125,-0.7198205869704485,0.9854302562534809,1.4476654904425144
1772031823838962000,0.3249619140625,-0.4953215112328529,1.5479595098406076,1.1533400142848491
1772031823848911000,0.3349111328125,-0.1767781241416931,1.9341981305420397,0.8011224672593176
1772031823858858800,0.344858642578125,0.24618483784496784,2.0946341916918754,0.4966940416950732
1772031823868808000,0.354807861328125,0.7779197247177362,2.044844909389317,0.28653814674969763
1772031823878757000,0.364757080078125,1.275697396931052,1.84619748326689,0.16908450089916585
1772031823888705000,0.374705078125,1.7071657369345425,1.5739555363625286,0.1678672523302026
1772031823898654000,0.384654052734375,2.0881886688143014,1.2269105696693061,0.2581538733843714
1772031823908603000,0.394602783203125,2.3288082737475633,0.8897188884705305,0.3279496594704687
1772031823918551800,0.4045517578125,2.4874264718204735,0.6567810702115296,0.4405844703298062
1772031823928500000,0.4145,2.6278964342623947,0.5578779206499457,0.5131975057937205
1772031823938449000,0.424448974609375,2.630749485605955,0.5409212328910827,0.5981951353279873
1772031823948397800,0.434397705078125,2.5628210277616974,0.5278796727493406,0.7023251161597669
1772031823958346000,0.444345947265625,2.6012194397389887,0.6096633452057838,0.7808217297695577
1772031823968295000,0.454294921875,2.595747145807743,0.6521902352899313,0.7632678067699075
1772031823978243800,0.464243896484375,2.5438100378215314,0.6283911342903972,0.6504587353222072
1772031823988191700,0.474191650390625,2.5452660818487405,0.6057841656848788,0.3749485804021358
1772031823998141000,0.484140869140625,2.5892618754416703,0.55187400406003,0.05919025745224207
1772031824008090000,0.494090087890625,2.575123459973931,0.43646191050708294,-0.18157573368176816
1772031824018039000,0.5040390625,2.4868986485540865,0.39956425848156213,-0.37429260071143505
1772031824027987000,0.513987060546875,2.408992402052879,0.7578720852062105,-0.018495660829171538
1772031824037935900,0.523935791015625,2.529257196334004,0.7953294169411063,0.37297947228625417
1772031824047885000,0.533885009765625,2.7806244052529334,0.31024872921556235,0.2650939383132383
1772031824057833000,0.5438330078125,3.072800009900331,-0.14191343924850225,-0.03618742139693349
1772031824067782000,0.553781982421875,3.0644431004434822,-0.5468976769521832,-0.43982265564445405
1772031824077730800,0.563730712890625,2.769021061220765,-0.80961776227355,-0.7923284815594553
1772031824087679700,0.5736796875,2.310282436975837,-0.995573756866157,-0.9187002874787896
1772031824097628000,0.5836279296875,1.9404145208388566,-1.1393848464295266,-0.8873645073641091
1772031824107576800,0.593576904296875,1.7865274429410696,-1.0153396568268538,-0.8121519569262862
1772031824117526000,0.603526123046875,1.6624708551615475,-0.7020084514260292,-0.5777021266691387
1772031824127474000,0.613473876953125,1.3973188665181397,-0.3363628291592002,-0.288423284642864
1772031824137423000,0.623423095703125,0.701583504012227,-0.1677420002490282,0.05630456421440467
1772031824147372000,0.6333720703125,-0.14456044662594794,-0.007254501172900199,0.3481638146553188
1772031824157321000,0.643321044921875,-0.8167249639302492,0.21633593528717754,0.450762165473029
1772031824167268900,0.653268798828125,-1.4685142172038554,0.3192743317142129,0.3874782089663669
1772031824177218000,0.663218017578125,-2.1520260579526425,0.417153398925066,0.34273360630013044
1772031824187167500,0.67316748046875,-2.612569685792923,0.5360723315551876,0.147594005635567
1772031824197115400,0.683115478515625,-2.7136966488838192,0.1754474600598216,-0.5632746651269496
1772031824207064300,0.693064208984375,-2.3526970988571643,-0.6079679394647479,-1.361907361397147
1772031824217013200,0.70301318359375,-2.0409294895112513,-1.128343520194292,-1.6489830125570297
1772031824226961400,0.71296142578125,-1.946092566475272,-0.9688815647736191,-1.353116152176261
1772031824236910300,0.722910400390625,-1.5856453896343707,-0.7630991722047329,-1.2309807417176664
1772031824246859300,0.732859375,-1.1800579253405332,-1.1465449473172427,-1.464084564193338
1772031824256808200,0.74280810546875,-1.148244736972451,-1.661815606123209,-1.3705312512271106
1772031824266756400,0.75275634765625,-1.4590624982476235,-1.5769588098317384,-0.5662716549858451
1772031824276705500,0.76270556640625,-2.1891747621297837,-1.040861636096239,0.5106598770748824
1772031824286654500,0.772654541015625,-3.239735369941592,-0.47728111989051103,1.399184952650964
1772031824296602400,0.782602294921875,-4.33876803997755,-0.06375847868323326,1.9635820459365843
1772031824306551600,0.792551513671875,-4.8098622879266735,0.3558101646900177,2.262741956513375
1772031824316500500,0.80250048828125,-4.490946560391784,0.6908525589004159,2.245706358299404
1772031824326449400,0.812449462890625,-3.7833787212729453,0.6473147382080554,1.798141892889142
1772031824336397300,0.822397216796875,-2.8816958387643097,0.5229778721824289,1.1740608768828213
1772031824346346500,0.832346435546875,-1.9555758496135471,0.5801271618589758,0.7048088957995176
1772031824356295400,0.84229541015625,-1.2034610127598047,0.7218950551569462,0.3737617087051272
1772031824366243300,0.852243408203125,-0.6360778894007205,0.7879086192905902,0.12788381791748105
1772031824376192300,0.862192138671875,-0.1611094303667545,0.7657561164543032,-0.09125292706936597
1772031824386141200,0.87214111328125,0.19557517907023428,0.7070557979434728,-0.16703027178309857
1772031824396090600,0.882090576171875,0.3321680078178644,0.6676938016310334,-0.17766265189126132
1772031824406038300,0.892038330078125,0.5435749622702598,0.6999126481905579,-0.03655841013379395
1772031824415987500,0.901987548828125,1.3066186048954724,0.524859155884385,-0.1450246666042134
1772031824425936400,0.911936279296875,1.6471259865134953,0.5211135396152734,-0.25376944775506854
1772031824435884500,0.921884521484375,1.548590793481469,0.5641904647976159,-0.07013974068555981
1772031824445833500,0.93183349609375,1.6158166560143232,0.5292509611025452,-0.027618001700565217
1772031824455782400,0.941782470703125,1.7987819443583488,0.26489684483855963,-0.011263334955461323
1772031824465730300,0.951730224609375,1.9124018937975167,-0.020355974808335304,0.03535750991143286
1772031824475679500,0.961679443359375,1.9145833294898271,-0.1912175683826208,0.05077295957766473
1772031824485628400,0.97162841796875,1.7800480177938938,-0.3300461933583021,0.08233947970829904
1772031824495577300,0.981577392578125,1.7233435492753981,-0.41544396465867756,0.004361702340841293
1772031824505525200,0.991525146484375,1.7776596613526343,-0.17505846074223516,-0.10058986053951084
1772031824515474400,1.001474365234375,1.8241461027175188,-0.24169980138540267,-0.4707104362633079
1772031824525423400,1.01142333984375,1.742329404774308,-0.24024667996764182,-0.6764507432561367
1772031824535371300,1.021371337890625,1.5299170726716518,-0.054452013416588306,-0.6814749280937016
1772031824545320400,1.031320556640625,1.3069529514163731,0.026765549589693544,-0.6427367627680302
1772031824555269400,1.041269287109375,1.1689070012509821,0.019342998373508453,-0.558919830918312
1772031824565218600,1.051218505859375,1.0450228474289178,-0.07710194438099861,-0.43148079762626435
1772031824575166500,1.06116650390625,0.9793214179843663,-0.13373130183666943,-0.3032667613737285
1772031824585115400,1.071115478515625,1.0281173053354025,-0.1066539098188281,-0.27020941816344857
1772031824595064300,1.081064208984375,1.2340256623715162,-0.0680725424900651,-0.32819588931649923
1772031824605012500,1.091012451171875,1.5292121392726896,-0.11014262871742247,-0.46232006292827427
1772031824614961400,1.10096142578125,1.644482194006443,-0.20209639753252268,-0.637753713658452
1772031824624910300,1.110910400390625,1.6204057373702525,-0.38516514625102277,-0.8266331214170902
1772031824634858500,1.1208583984375,1.6126526390254496,-0.6306102716445923,-1.033013552944362
1772031824644807400,1.130807373046875,1.5716694712519645,-0.7448588743761181,-1.263584349811077
1772031824654756400,1.14075634765625,1.3600818995356558,-0.6675269206315279,-1.4076120047345757
1772031824664705300,1.150705322265625,1.074202180162072,-0.47873424130827186,-1.404459678183496
1772031824674653200,1.160653076171875,0.8178373090863227,-0.2810536143913865,-1.352417502387613
1772031824684602600,1.1706025390625,0.5205804556518793,-0.12203472656309604,-1.2720068718500435
1772031824694551600,1.180551513671875,0.21553075638413427,0.04225070349127054,-1.1663241451509296
1772031824704499500,1.19049951171875,-0.016142156505584714,0.2113879574909806,-1.0096028667405248
1772031824714448400,1.200448486328125,-0.12167758368849754,0.3563049624696374,-0.8031922592706978
1772031824724397300,1.210397216796875,-0.2268576215624809,0.3839087164491415,-0.5082026931811123
1772031824734346500,1.220346435546875,-0.4599772261291742,0.31512188820987935,-0.16606080569643528
1772031824744294400,1.23029443359375,-0.8044605256408452,0.22137276041060686,0.16795242812931538
1772031824754243300,1.240243408203125,-1.308924543750286,0.11664163534790277,0.4105356612857431
1772031824764192300,1.250192138671875,-1.806416969281435,0.05261866050958633,0.39111557908803224
1772031824774140400,1.260140380859375,-2.0537059689760206,-0.29366262833476064,-0.028212478728685528
1772031824784089300,1.27008935546875,-1.7632564574688672,-1.0431468244239688,-0.7862216160517186
1772031824794038300,1.280038330078125,-1.018065866920352,-1.5408412022680043,-1.405015558500588
1772031824803987500,1.289987548828125,-0.3050485302239656,-1.5094319185256957,-1.781939676759392
1772031824813935400,1.299935302734375,-0.0773942053258419,-1.3403420107990502,-2.0619474353596567
1772031824823884500,1.309884521484375,-0.3483072417140007,-1.1605433697924017,-2.1636891693480313
1772031824833833500,1.31983349609375,-0.9313432767570018,-0.8861731786876916,-2.0851482782050965
1772031824843781400,1.329781494140625,-1.719949815183878,-0.5367679126039147,-1.7841183359727262
1772031824853730600,1.33973046875,-2.6125831297963855,-0.18097411452680826,-1.3565303445339203
1772031824863679500,1.349679443359375,-3.5352591159731146,0.16602788980752228,-0.9208237093735486
1772031824873628400,1.35962841796875,-4.380751909226179,0.37124855684041974,-0.5799838809307665
1772031824883576300,1.369576416015625,-4.9710664108395575,0.4500973448887467,-0.40810953011736273
1772031824893525200,1.379525146484375,-5.1822091613978145,0.46935646437108514,-0.35996092769391835
1772031824903474400,1.389474365234375,-5.100670111352205,0.45610856800228355,-0.39310993124302474
1772031824913422300,1.39942236328125,-4.816660862025619,0.40868572257012126,-0.4697078716246411
1772031824923371300,1.409371337890625,-4.405006645038724,0.4292924572691321,-0.40551337614431976
1772031824933320200,1.4193203125,-3.911296076133847,0.504909423789382,-0.1642399652111344
1772031824943269400,1.429269287109375,-3.3743057529509066,0.6384867041081189,0.1257670449592173
1772031824953217500,1.439217529296875,-2.8065719164580103,0.826544639416039,0.48415758153125643
1772031824963166500,1.44916650390625,-2.2724609481036664,1.0276476419970393,0.7943531923200935
1772031824973115400,1.459115478515625,-1.8716116182476281,1.2103583710581063,0.988884269164875
1772031824983063600,1.4690634765625,-1.525237390422821,1.3630997860521077,1.1181408367402852
1772031824993012500,1.479012451171875,-1.193592529696226,1.470505098760128,1.175770091953501
1772031825002961400,1.48896142578125,-0.8836106347233057,1.4929270661875604,1.2083652975447474
1772031825012910300,1.498910400390625,-0.471973368871212,1.4141241631075738,1.2313044207140802
1772031825022858500,1.5088583984375,0.0994020389944315,1.28439216004014,1.21277113128826
1772031825032807400,1.518807373046875,0.8450146543473005,1.0583905707851051,1.1526957980971784
1772031825042756400,1.52875634765625,1.7119944722652434,0.7321288644015789,1.0690946278899907
1772031825052704300,1.538704345703125,2.560703304955363,0.43164954178929327,0.9220164993546902
1772031825062653200,1.548653076171875,3.1979397167414425,0.19382453601062297,0.7447926042068749
1772031825072602600,1.5586025390625,3.5748967143565413,0.05670622208416461,0.6591130202904343
1772031825082551600,1.568551513671875,3.768121530908346,0.04491816913485527,0.6218496767576783
1772031825092499500,1.57849951171875,3.8224090014129875,0.07676525977253913,0.6148381905604153
1772031825102448400,1.588448486328125,3.7752164576053615,0.0840606774777174,0.6382902316879481
1772031825112397300,1.598397216796875,3.622840953314304,0.039868484529852866,0.6354688175916672
1772031825122345500,1.608345458984375,3.409516182541847,-0.023091537252068518,0.595001709581539
1772031825132294400,1.61829443359375,3.136913877892494,-0.031520342901349065,0.526438095638901
1772031825142243300,1.628243408203125,2.7146096720755097,-0.0001575286492705345,0.5849577968858182
1772031825152192300,1.638192138671875,2.413605448806286,0.1019350646033883,0.6821962281055748
1772031825162140400,1.648140380859375,2.1720161220580336,0.18190496563613415,0.6935198784135281
1772031825172089300,1.65808935546875,1.9505904624164103,0.20899580165743828,0.640741497297585
1772031825182039300,1.668039306640625,1.6889193016260862,0.21845891879051924,0.5218540557842701
1772031825191987200,1.6779873046875,1.459406197118759,0.23291882129758595,0.4201677783101797
1772031825201936100,1.68793603515625,1.263461600214243,0.19416034383624792,0.3356115724004805
1772031825211885300,1.69788525390625,1.0635124438434838,0.12255612008869647,0.2613522858331911
1772031825221834200,1.707834228515625,0.9918488911241292,0.10823825640082359,0.2027764522185549
1772031825231782100,1.7177822265625,1.0430945097148419,0.1043336501777172,0.08834703129371628
1772031825241731000,1.72773095703125,1.11247608897686,0.04184709112644195,-0.08856452823560684
1772031825251680300,1.73768017578125,1.0999112064361571,-0.1336263801574707,-0.21227613850235938
1772031825261628400,1.74762841796875,1.0293594143509863,-0.23268588932454584,-0.23258178962925447
1772031825271577300,1.757577392578125,0.9204010269820689,-0.19294541508853436,-0.10372114430256188
1772031825281526300,1.7675263671875,0.6662544164776801,-0.045324411848187446,0.09357652031187899
1772031825291474400,1.777474365234375,0.26481822664439675,0.16505436860024927,0.21356502753542736
1772031825301423400,1.78742333984375,-0.33546412675380705,0.3270373669311404,0.19455535276951266
1772031825311372300,1.797372314453125,-1.10704880323112,0.23965105216205118,-0.04481691898377612
1772031825321321200,1.8073212890625,-1.5973317357748746,-0.1894900139376521,-0.5116320831079035
1772031825331269400,1.817269287109375,-1.543579687321186,-0.784525991114974,-0.9532032263875007
1772031825341218300,1.82721826171875,-0.9366811306536197,-0.9908826764404773,-1.0568117040958256
1772031825351167200,1.837167236328125,-0.2969803745806217,-0.8846940460458398,-0.8968880494475364
1772031825361116200,1.8471162109375,-0.056126376369595526,-0.6484975182518362,-0.7314545453365892
1772031825371064000,1.85706396484375,-0.4027466879099607,-0.3554889699116349,-0.47411191526986657
1772031825381013200,1.86701318359375,-1.091910855332017,0.019080840305984018,0.06642372497026808
1772031825390962400,1.87696240234375,-1.8942904830455778,0.4814695114910602,0.5854266930392011
1772031825400910300,1.886910400390625,-2.729206352704763,0.8641472248405218,0.9091201198372989
1772031825410859300,1.896859375,-3.3808296017616986,1.2811395879849792,1.119010313051194
1772031825420808200,1.90680810546875,-3.728195178711414,1.9222426120713352,1.325712450813502
1772031825430756400,1.91675634765625,-3.9144618466883894,2.395130757699907,1.463952169985324
1772031825440705300,1.926705322265625,-3.8948791943401098,2.5238053606688973,1.4230707090206443
1772031825450654200,1.936654296875,-3.655278995582461,2.3711747125729916,1.1706962958205491
1772031825460603100,1.94660302734375,-3.1382430806696413,1.842952509996295,0.5921265194714069
1772031825470551300,1.95655126953125,-2.387209609311819,1.4837588403478263,0.2710359503817744
1772031825480500200,1.966500244140625,-1.558089274188876,1.331571259844303,0.31145912791863084
1772031825490449200,1.97644921875,-0.8963403524369001,1.0838862465694545,0.33215091055259105
1772031825500397300,1.986397216796875,-0.4068114531308412,0.8486527185887098,0.2889350883562118
1772031825510346200,1.99634619140625,0.031236265262961384,0.6193529645711183,0.2738352439777925
1772031825520295400,2.00629541015625,0.41117958521246906,0.40970162161439655,0.32283856353443113
1772031825530244400,2.016244384765625,0.7213789223283529,0.23509996472895145,0.47815563770271835
1772031825540192300,2.026192138671875,0.9023708647727966,0.14141045816242695,0.667828168600425
1772031825550141400,2.036141357421875,1.0520587374150752,0.10505728827714919,0.8078588628422468
1772031825560090400,2.04609033203125,1.201403495708108,0.04059679880440235,0.8807169591084122
1772031825570038300,2.056038330078125,1.3059692010760307,-0.07428191852420568,0.8891086476176977
1772031825579987200,2.0659873046875,1.3643383879363535,-0.16976678407490253,0.8886643379162996
1772031825589936400,2.075936279296875,1.3918506642401218,-0.2435544893413782,0.8924499208696186
1772031825599885300,2.08588525390625,1.4714397492617368,-0.3182517106682062,0.8813095912393182
1772031825609833200,2.095833251953125,1.5947802977263927,-0.3784399296492338,0.7967760355528444
1772031825619782100,2.1057822265625,1.824566958478093,-0.4275014821991324,0.6765781690280884
1772031825629731000,2.11573095703125,2.0390625265955924,-0.44897564738243817,0.5715330095801502
1772031825639679200,2.12567919921875,2.091115369915962,-0.4754024665370583,0.4281069738116115
1772031825649628200,2.135628173828125,2.0056676219940184,-0.5110132936224341,0.2767858739443123
1772031825659577300,2.145577392578125,1.848181642821431,-0.4574757647022605,0.126409836374782
1772031825669526300,2.1555263671875,1.6971324186980723,-0.3126134125202894,-0.035839886600896716
1772031825679474400,2.165474365234375,1.5968419064313173,-0.1885328593432903,-0.13271931178253144
1772031825689423400,2.17542333984375,1.5283733503609895,-0.10055296259522438,-0.18951540410723536
1772031825699372300,2.185372314453125,1.4651497092068195,-0.03810147485733032,-0.2564005269110203
1772031825709320200,2.1953203125,1.3188169922113417,-0.04131576072871685,-0.36951303828470405
1772031825719269400,2.205269287109375,1.112701714426279,-0.07015899337530136,-0.4732319175649434
1772031825729218300,2.21521826171875,0.8453542615652084,-0.08406506139189004,-0.49743609223403035
1772031825739167200,2.225167236328125,0.5525701696306466,-0.13054770336449145,-0.42712234668843446
1772031825749115100,2.235115234375,0.27867373351752756,-0.24662878222018478,-0.31311241155099123
1772031825759064300,2.245064208984375,0.04680032961964607,-0.41994069155603647,-0.13902020202502607
1772031825769013200,2.25501318359375,-0.12046119363605975,-0.5801376832529902,0.00458688939884305
1772031825778961200,2.264961181640625,-0.24845278277695176,-0.6882125657856464,0.05963277705535292
1772031825788910300,2.274910400390625,-0.32580022635161876,-0.7787874474629759,0.018119539259467275
1772031825798859300,2.284859375,-0.32351182315349575,-0.9206126239061355,-0.02263263276973739
1772031825808808400,2.294808349609375,-0.2345914306849241,-1.0649655652612446,0.016416900060046462
1772031825818756400,2.30475634765625,-0.09467267238497734,-1.1890616082683205,0.04771607449138537
1772031825828705300,2.314705322265625,-0.020624854877591133,-1.2601409313589333,0.027567696285434064
1772031825838654200,2.324654296875,-0.04081891712248325,-1.2313742710798978,0.020832250550575554
1772031825848603100,2.33460302734375,-0.091855276876688,-1.1643652661681174,0.06451970884669572
1772031825858551300,2.34455126953125,-0.10549684873819351,-1.0209653877541423,0.15091303052306174
1772031825868500200,2.354500244140625,-0.12303542803823947,-0.8275991169050335,0.2618271550696343
1772031825878449200,2.36444921875,-0.268797651669383,-0.6546449349656701,0.3175929544985294
1772031825888397300,2.374397216796875,-0.4855301850587129,-0.42649318193942304,0.3622837446182966
1772031825898346200,2.38434619140625,-0.6970294939696788,-0.15814795021265743,0.4432139420505613
1772031825908295200,2.394295166015625,-0.8867144459575415,0.057222062651813024,0.5690589841494337
1772031825918244400,2.404244384765625,-1.10509065490067,0.1865074909955263,0.7407876794144511
1772031825928192300,2.414192138671875,-1.2540507977902888,0.18651187490969895,0.8776618093214928
1772031825938141400,2.424141357421875,-1.2107803958624601,-0.046559506601095195,0.7506324893414974
1772031825948090400,2.43409033203125,-0.7606850968003273,-0.5898147353976965,0.25626212308732793
1772031825958038300,2.444038330078125,-0.033251696738600726,-0.9390577966570853,-0.08258731698952615
1772031825967987200,2.4539873046875,0.5932470479339361,-0.9792647193610667,-0.16619159246925264
1772031825977936400,2.463936279296875,0.833241798967123,-1.202548574090004,-0.3864506925495341
1772031825987885300,2.47388525390625,0.7411082896709442,-1.461202140624821,-0.6458022878184915
1772031825997833200,2.483833251953125,0.46365153072774407,-1.3216709203377366,-0.539919727698341
1772031826007782100,2.4937822265625,-0.058549219602346415,-0.910643310816586,-0.11898306564120575
1772031826017731000,2.50373095703125,-0.7409978150337934,-0.47587592926770445,0.382370108705014
1772031826027679200,2.51367919921875,-1.467396026828885,0.039538229662179944,0.905832549533993
1772031826037628200,2.523628173828125,-2.234896648862958,0.6231921043425798,1.3260105569772422
1772031826047577300,2.533577392578125,-3.020718525007367,1.127875610421598,1.6198355362668633
1772031826057526300,2.5435263671875,-3.404889107263088,1.5647405487716197,1.7318074262380598
1772031826067474400,2.553474365234375,-3.144411540171504,1.8410791173398493,1.6653697914734482
1772031826077423400,2.56342333984375,-2.1780033797740934,1.965318952731788,1.3470190043449402
1772031826087372300,2.573372314453125,-1.3343319567292928,1.8927055519416927,0.7271659082319587
1772031826097320200,2.5833203125,-0.43639644405543804,1.791595539985597,0.28705095511004325
1772031826107269400,2.593269287109375,0.5498123953551054,1.5785381879776714,-0.07508965471051633
1772031826117218300,2.60321826171875,1.3129992458432913,1.286262922348082,-0.4411205865005031
1772031826127167200,2.613167236328125,1.847664925470948,0.9730842771604656,-0.7409312526036054
1772031826137115100,2.623115234375,2.1516355973303316,0.7470707052066922,-0.8510470663793385
1772031826147064300,2.633064208984375,2.233845093983412,0.5924179036334156,-0.8274268290780484
1772031826157013200,2.64301318359375,2.0949358049869535,0.547905100429058,-0.6110644076427445
1772031826166961200,2.652961181640625,1.7423796736568211,0.6899269684880972,-0.1624871849933639
1772031826176910000,2.66291015625,1.2409493241548537,1.0495148981511593,0.4668030535612255
1772031826186858000,2.67285791015625,0.6607067192226648,1.4585805599495767,0.9969508904382586
1772031826196807000,2.682806884765625,0.04082476234138012,1.7039967515096068,1.2846753608956931
1772031826206754800,2.6927548828125,-0.6607131489634513,1.7593685101196168,1.3427964182138443
1772031826216704000,2.7027041015625,-1.3604238448411226,1.7728101754948495,1.2811185451969505
1772031826226653000,2.71265283203125,-1.8052894265562296,1.8803946441620587,1.1745053327146917
1772031826236600800,2.722600830078125,-1.8373726640373467,1.9857377636432647,0.9923713075630366
1772031826246549800,2.7325498046875,-1.4576637373656034,1.9143980360507964,0.7574277024395764
1772031826256498700,2.742498779296875,-0.7881056031674146,1.6908303959444164,0.5293462747031823
1772031826266448000,2.75244775390625,-0.0494090508133173,1.4537065241724252,0.3081616938084364
1772031826276395800,2.762395751953125,0.6982897231638431,1.2211746563658117,0.1443849256622605
1772031826286345000,2.772344970703125,1.3171563655227423,0.9493544420048594,-0.021899943714169784
1772031826296294000,2.7822939453125,1.8255168065488336,0.6129904438018798,-0.2222378162747249
1772031826306242000,2.792241943359375,2.2641017005592583,0.27371377302259203,-0.3926532004514709
1772031826316191000,2.80219091796875,2.5900340288579464,-0.05318944613486528,-0.5137961658066138
1772031826326140000,2.812139892578125,2.8295623314231633,-0.3881760185047984,-0.5819009300658479
1772031826336088800,2.8220888671875,3.042469753566384,-0.660779199936986,-0.6461959633111953
1772031826346037000,2.832037109375,3.126298960375786,-0.8971262421175837,-0.6617335780523717
1772031826355986000,2.84198583984375,3.00918707716763,-1.12998836479187,-0.5995862608928233
1772031826365934800,2.851934814453125,2.712272753560543,-1.3328589615672826,-0.5021062760021537
1772031826375882800,2.8618828125,2.3241151474952697,-1.4095336204469202,-0.410933830290474
1772031826385832000,2.87183203125,1.847706426525116,-1.3720143293917177,-0.31125385113749654
1772031826395780900,2.88178076171875,1.289601419121027,-1.2664444154173136,-0.20802702969051895
1772031826405730000,2.89172998046875,0.7180372106850147,-1.1425532473325728,-0.1150071477475576
1772031826415677700,2.901677734375,0.1895090108990669,-1.0410974906787276,-0.04314077506563626
1772031826425627000,2.911626953125,-0.21964579048752783,-0.9209208130724728,0.0329217158655636
1772031826435576000,2.921576171875,-0.49962008520960804,-0.8024903946116566,0.11592044493388384
1772031826445524000,2.93152392578125,-0.7745441108047961,-0.7322821552671491,0.16891049603912978
1772031826455473000,2.941472900390625,-1.0500795462965964,-0.7543797130458056,0.19178292891411108
1772031826465421800,2.951421875,-1.2740981450408697,-0.8632834476180374,0.14815209617605432
1772031826475371000,2.96137109375,-1.479300399634242,-0.9767707105882465,0.1458820140859112
1772031826485319000,2.97131884765625,-1.5988187594622372,-1.0459902311563491,0.06490596821792423
1772031826495267800,2.981267822265625,-1.6235767686218023,-1.1245078875541685,-0.007680946424044668
1772031826505216800,2.991216796875,-1.602088574913144,-1.2160640353538095,-0.01958351086480543
1772031826515165000,3.0011650390625,-1.5259388166904448,-1.2703222797639668,0.045219965093024075
1772031826525113900,3.01111376953125,-1.451193080046773,-1.3320143274366856,0.09162923130216076
1772031826535062800,3.021062744140625,-1.403614751791954,-1.3914170951284468,0.15971698962766676
1772031826545012000,3.031011962890625,-1.2942869465887545,-1.4085294118404388,0.26258506076484917
1772031826554960100,3.040960205078125,-1.058877769780159,-1.3494557299725711,0.41751777525804934
1772031826564909000,3.050908935546875,-0.784399149864912,-1.287449940175563,0.5380236117534339
1772031826574858000,3.06085791015625,-0.45960956186056134,-1.1519877228930593,0.6062191230360419
1772031826584807000,3.070806884765625,-0.16856851420104502,-0.9464236492499709,0.6029045551279559
1772031826594754800,3.0807548828125,0.09583879355490207,-0.7253337974339723,0.4133887126293033
1772031826604704000,3.0907041015625,0.31438743645548817,-0.67815352858603,-0.06403329530293121
1772031826614653000,3.10065283203125,0.5389256751596927,-0.84594813580513,-0.671578753305599
1772031826624600800,3.110600830078125,0.875793823492527,-0.8868845418274403,-1.087200339553505
1772031826634549800,3.1205498046875,1.1674293299138545,-0.7717690931335092,-1.2787959474682806
1772031826644499000,3.1304990234375,1.232351007157564,-0.7110299622714519,-1.4326299800045788
1772031826654447900,3.14044775390625,0.9991793801426887,-0.7839931994125247,-1.5810206524431705
1772031826664395800,3.150395751953125,0.7052139694690704,-0.9578528057590127,-1.7127468980677425
1772031826674344700,3.1603447265625,0.528885927182436,-0.9331643547043204,-1.5044186204083263
1772031826684294000,3.1702939453125,0.31255028415620323,-0.7082236726790666,-0.9601941081881522
1772031826694242000,3.180241943359375,-0.09787585234045981,-0.3665393562361598,-0.3327711613427847
1772031826704191000,3.19019091796875,-0.7915566204041242,0.103491061873734,0.15040219492409376
1772031826714140000,3.200139892578125,-1.7449486473619937,0.5759300024300813,0.5958757890023291
1772031826724088800,3.2100888671875,-2.880678770676255,0.9493386599138378,0.9969864001430571
1772031826734037000,3.220037109375,-3.9084173058271405,1.3459516673743723,1.220228242361173
1772031826743986000,3.22998583984375,-4.541721054339408,1.7869284249573945,1.2624231970772146
1772031826753934800,3.239934814453125,-4.555940718349814,2.2299396109774707,1.075197840135917
1772031826763882800,3.2498828125,-3.9121383721768854,2.6234362399831412,0.6613116263132542
1772031826773832000,3.25983203125,-2.88141526825726,2.8132001024261117,0.2116599428327754
1772031826783780900,3.26978076171875,-1.9296546418935059,2.731404155009985,-0.1355836517050862
1772031826793729800,3.279729736328125,-1.0589023196995258,2.573641404722631,-0.27496391921415925
1772031826803677700,3.289677734375,-0.24315000019371508,2.2815990710660814,-0.24841420433223246
1772031826813627000,3.299626953125,0.4002946185827255,1.8657064858570693,-0.09767766288723796
1772031826823576000,3.309576171875,0.8778566012412309,1.4336474864840507,0.16710428686738013
1772031826833524000,3.31952392578125,1.2513210805654524,1.0611781556770206,0.4957439013633877
1772031826843473000,3.329472900390625,1.5339438439697026,0.7580985874384641,0.7870457188509404
1772031826853421800,3.339421875,1.6994938871324061,0.4797770283594727,1.0295688193179666
1772031826863371000,3.34937109375,1.796812105590105,0.26520897952765227,1.1521906250540166
1772031826873319000,3.35931884765625,1.8390496573388575,0.11234276911020279,1.2247151054516434
1772031826883267800,3.369267822265625,1.8687188194155693,0.04233808951377868,1.2043971245661378
1772031826893216800,3.379216796875,1.8979080890208482,0.06321925723999738,1.1188958928912878
1772031826903165000,3.3891650390625,1.9714105476051569,0.15560878712385892,0.9821716197837144
1772031826913113900,3.39911376953125,2.068175808355212,0.26719781525731084,0.7830338528610765
1772031826923062800,3.409062744140625,2.1603660162746907,0.38342034841030836,0.6121659756764769
1772031826933012000,3.419011962890625,2.2460393896460533,0.5226578464478254,0.4884355511114001
1772031826942959900,3.4289599609375,2.3365806613147257,0.5918766363635659,0.3729162343243137
1772031826952909000,3.438908935546875,2.418442951965332,0.590962736389041,0.2972684342743829
1772031826962858000,3.44885791015625,2.47697054425776,0.5129463075116276,0.22506891151480377
1772031826972807000,3.458806884765625,2.519477560597658,0.36934973748177286,0.18728274968434125
1772031826982755000,3.468755126953125,2.524475807276368,0.19157149638682602,0.14442847254304214
1772031826992704000,3.4787041015625,2.4736025291293857,0.033604455699026585,0.07858056556619704
1772031827002653000,3.48865283203125,2.3852923775136468,-0.0824850987240672,0.0185072234028019
1772031827012600800,3.498600830078125,2.2933371473938227,-0.19657763411104678,-0.006227404881175607
1772031827022549800,3.5085498046875,2.244831182900071,-0.31463498147577046,-0.06984357075057923
1772031827032499000,3.5184990234375,2.24962660048306,-0.3986100264966488,-0.18908928764965385
1772031827042448000,3.52844775390625,2.1911627210766076,-0.4903954530075192,-0.31020496313907203
1772031827052395800,3.538395751953125,1.9577438413023946,-0.6136201200075447,-0.29223354537971313
1772031827062344700,3.5483447265625,1.6073428421795368,-0.7266726448222994,-0.15503971853163093
1772031827072294000,3.5582939453125,1.1556816089749335,-0.8604064308770001,0.12857897884109987
1772031827082242000,3.568241943359375,0.5901087499082088,-1.097885399696976,0.5541507898855954
1772031827092191000,3.57819091796875,0.005050269126892089,-1.4312272735998033,1.0572039913490414
1772031827102140000,3.588139892578125,-0.5411708237379789,-1.799997457627952,1.5652403149873018
1772031827112088800,3.5980888671875,-0.9593138182222842,-2.1119652657210826,1.9873313164450228
1772031827122037000,3.608037109375,-1.127405362561345,-2.310864474647492,2.143364466460794
1772031827131986000,3.61798583984375,-0.9426660502821207,-2.3527381615199148,1.8963171665675937
1772031827141934800,3.627934814453125,-0.5160188468247652,-2.307022704527527,1.3191326340317726
1772031827151883000,3.637883056640625,-0.05856383264958858,-2.140412046395987,0.7102059325374662
1772031827161832000,3.64783203125,0.167667765969038,-1.9360424432344734,0.17626911517363042
1772031827171780900,3.65778076171875,0.1256312897503376,-1.7174692504145204,-0.28101547433808444
1772031827181729800,3.667729736328125,-0.0780909554183483,-1.388034613083303,-0.5911890924908221
1772031827191678000,3.677677978515625,-0.3103121498405933,-1.007964013492316,-0.7578355525881052
1772031827201627100,3.687627197265625,-0.5069920752823353,-0.6385412107743322,-0.8118353652577847
1772031827211576000,3.697576171875,-0.691340926939249,-0.34796208153814073,-0.7463542275004088
1772031827221524000,3.70752392578125,-0.9215677326738834,-0.19953794522136448,-0.5791156101962551
1772031827231473000,3.717472900390625,-1.2721283062726259,-0.2007848765425384,-0.3443566043920815
1772031827241421800,3.727421875,-1.6126169831901789,-0.2779644162043929,-0.11282331916876137
1772031827251371000,3.73737109375,-1.8834394186854362,-0.3947380073688924,0.0671571812108159
1772031827261319000,3.74731884765625,-1.8417355354219673,-0.6662152535110711,0.09881064897254109
1772031827271268000,3.75726806640625,-1.492765445885062,-1.020790323448181,-0.008064283185824752
1772031827281217000,3.767217041015625,-1.0547194810569285,-1.2115683313697576,-0.1615946566004306
1772031827291166000,3.777166015625,-0.7949521080613136,-1.4253154192075133,-0.4064097404621541
1772031827301114000,3.787114013671875,-0.8169681250363587,-1.9312392807364462,-0.8619030261103063
1772031827311063000,3.79706298828125,-0.9059890552699565,-2.314645892882347,-1.1435318831063805
1772031827321012000,3.807011962890625,-1.0038736754387616,-2.103512494674325,-0.9057917060669511
1772031827330960100,3.816960205078125,-1.3096043427079915,-1.5914660586118696,-0.4308458972562104
1772031827340909000,3.826908935546875,-1.9894068075448272,-1.1352335719689726,-0.08953092558234929
1772031827350858000,3.83685791015625,-2.7728970258712766,-0.714636754591763,0.06286437938772142
1772031827360806000,3.846805908203125,-3.5298061112642287,-0.22951719616055488,0.1333442752804607
1772031827370755000,3.856755126953125,-4.092800059753656,0.3739642455399036,0.10318696436062455
1772031827380704000,3.8667041015625,-4.175649023354053,0.9678060444965958,-0.15404489880800246
1772031827390653200,3.876653076171875,-3.737244746607542,1.3911045220479368,-0.5817112161800265
1772031827400600800,3.886600830078125,-2.945190698075294,1.5361594741925597,-0.9775203599117696
1772031827410550000,3.896550048828125,-2.1091934629201887,1.4349904255256056,-1.238450931467861
1772031827420499200,3.906499267578125,-1.4769856929510832,1.2316454892367124,-1.3879425508856773
1772031827430448000,3.9164482421875,-1.1371534341156482,0.9642711483687162,-1.3721511075139046
1772031827440396000,3.92639599609375,-0.9814648597538471,0.7207505612969398,-1.2315285848587751
1772031827450345000,3.936344970703125,-0.9900485637038946,0.5766311364367603,-0.9929971843764185
1772031827460294000,3.9462939453125,-1.0416963333547116,0.5831044241040945,-0.7478270765319466
1772031827470242000,3.956241943359375,-1.0459726954996584,0.713280956068635,-0.5368823327638208
1772031827480191000,3.96619091796875,-1.0446692116856575,0.8903793982058763,-0.3996477720465511
1772031827490140000,3.976139892578125,-1.0259364541649818,1.1298843198955058,-0.32904329992607234
1772031827500088800,3.9860888671875,-0.9459855500936508,1.3902709938332438,-0.26560521230362355
1772031827510037000,3.996037109375,-0.8254214806050062,1.6224515639841555,-0.19498393517881632
1772031827519986000,4.00598583984375,-0.6332996568590402,1.7973849370419979,-0.13972104377076028
1772031827529935000,4.01593505859375,-0.4343956256270408,1.8796318430960177,-0.06586626461744308
1772031827539883300,4.02588330078125,-0.2224181778103113,1.9187118075966834,-0.021571013153903185
1772031827549832200,4.035832275390625,0.12035597969591617,1.996520731203258,0.03713281248826533
1772031827559781000,4.045781005859375,0.5721686040699482,2.042521142616868,0.10676814731564373
1772031827569730000,4.05572998046875,1.0717869357138872,2.0460209674313665,0.14031855300618334
1772031827579678000,4.065677978515625,1.5267337664604186,1.9545029596850274,0.1718998140482232
1772031827589627100,4.075627197265625,1.9160498949110507,1.8547814794778823,0.22459617943651972
1772031827599576000,4.085576171875,2.22573485276401,1.7992834641396998,0.30673509507142005
1772031827609524000,4.09552392578125,2.5144594401746985,1.7541735718250273,0.38196211242601275
1772031827619473000,4.105472900390625,2.8206185619890687,1.6785057519003748,0.3672685838261619
1772031827629421800,4.115421875,3.0280040058404207,1.5284601518616079,0.29007848623767496
1772031827639371000,4.12537109375,3.1907518510639665,1.4003028507649897,0.21717779293879866
1772031827649319000,4.13531884765625,3.3108845433980223,1.2935118705630302,0.20991514499206096
1772031827659267800,4.145267822265625,3.2780642238140105,1.0525815922453998,0.18930662019476294
1772031827669217000,4.155217041015625,3.125272539937496,0.7565329455569386,0.16246504622679203
1772031827679166000,4.165166015625,2.8536037167459725,0.46253334035277366,0.15979476757161318
1772031827689114000,4.175114013671875,2.5752444560050964,0.21478402967005966,0.25181031304392965
1772031827699063000,4.18506298828125,2.345719076538086,0.004087853835523128,0.4018769193381071
1772031827709012000,4.195011962890625,2.153660381156206,-0.14831746107190846,0.5546910342421383
1772031827718960000,4.204960205078125,2.0167419737160204,-0.29721418333649635,0.7231175826892257
1772031827728909000,4.214908935546875,1.860192398610711,-0.4773708440005779,0.8569964032378047
1772031827738858000,4.22485791015625,1.634862717267871,-0.6647624243542551,0.9093946989949792
1772031827748807000,4.234806884765625,1.3783844489455221,-0.7921323744654655,0.8606737035110592
1772031827758755000,4.244755126953125,1.202766600754857,-0.8360127249851822,0.7701291439067572
1772031827768704000,4.2547041015625,1.1010223825484513,-0.8953007802560925,0.6550547578755765
1772031827778653000,4.26465283203125,1.044616020193696,-0.9735513101503253,0.5137070262184367
1772031827788600800,4.274600830078125,1.0000088167041539,-1.0890411451146005,0.3997412955489009
1772031827798550000,4.284550048828125,1.008179263678193,-1.2688693044766783,0.2634782102122903
1772031827808499200,4.294499267578125,0.9837895033091306,-1.4800696304410694,0.08753224431211128
1772031827818448100,4.3044482421875,0.890478766927123,-1.6234817838147282,-0.03241375949356006
1772031827828396000,4.31439599609375,0.7298843003451824,-1.641734941124916,-0.04944228636263869
1772031827838345000,4.324344970703125,0.4820253918081522,-1.593977749171853,0.01961280089137144
1772031827848294100,4.334294189453125,0.13853519498705863,-1.5402181019335985,0.15642163787670432
1772031827858242000,4.344241943359375,-0.3018015111267566,-1.4465741880744696,0.2956807997567579
1772031827868191000,4.35419091796875,-0.7861088763922452,-1.3858940939232707,0.35460159261785446
1772031827878140000,4.364139892578125,-1.242854865515232,-1.3560387616246938,0.28166221127640456
1772031827888088800,4.3740888671875,-1.5839304024100302,-1.3171709785699843,0.18798211185904218
1772031827898037000,4.384037109375,-1.81453890093863,-1.2508917492374778,0.15037481372682376
1772031827907986000,4.39398583984375,-2.1052865186095238,-1.2603250557541847,0.13149543254338203
1772031827917935000,4.40393505859375,-2.405329203370213,-1.3985668207526205,0.03271484991554171
1772031827927884000,4.413884033203125,-2.5384312673926352,-1.6826222473084926,-0.17090506738983094
1772031827937832200,4.423832275390625,-2.3936282441824672,-1.6750617489263415,-0.07757060307236388
1772031827947781000,4.433781005859375,-2.1749732182979584,-1.2462667197853325,0.34563265220988537
1772031827957730000,4.44372998046875,-2.263732867246866,-0.7678270775094628,0.710908673979342
1772031827967678000,4.453677978515625,-2.8102508972316977,-0.2204118064239621,0.9683023766461759
1772031827977627100,4.463627197265625,-3.5359698945909734,0.420812505954504,1.1770417923897505
1772031827987576000,4.473576171875,-4.130468988412618,1.0301377052471041,1.2554260316662489
1772031827997525000,4.48352490234375,-4.497773191541433,1.5828832314446568,1.1697433790098875
1772031828007473000,4.493472900390625,-4.499374781519174,2.092447495302558,0.9570799216903746
1772031828017422000,4.503422119140625,-4.078083552137017,2.489350425620377,0.6425852254681289
1772031828027371000,4.51337109375,-3.4151942281782626,2.708292744013667,0.3006653284373693
1772031828037319000,4.52331884765625,-2.6082547452032565,2.7880808587387205,-0.005727574733411893
1772031828047267800,4.533267822265625,-1.780924216106534,2.750363414762914,-0.19724501197859642
1772031828057217000,4.543217041015625,-0.9941355407565832,2.561504392205179,-0.31036965218149126
1772031828067166200,4.553166259765625,-0.2774620196402073,2.2823171562075615,-0.3386154303915798
1772031828077114000,4.563114013671875,0.40277591400444507,2.020799140152335,-0.29359445846937593
1772031828087063000,4.57306298828125,1.0896475865751505,1.7578104670226573,-0.20925684548011048
1772031828097012000,4.583011962890625,1.6669810260623692,1.480262814925611,-0.13900210924590936
1772031828106960100,4.592960205078125,2.0968325785189865,1.1906453703284263,-0.06919742746730334
1772031828116909000,4.602908935546875,2.419889643642306,0.9429752623617649,0.052373873701971024
1772031828126858000,4.61285791015625,2.63650293456614,0.7326745155856013,0.20751411173231898
1772031828136807000,4.622806884765625,2.7504806114017963,0.5799482981607318,0.32911077567171304
1772031828146755000,4.632755126953125,2.7682237733632324,0.44787440814226864,0.3923299233138561
1772031828156704000,4.6427041015625,2.635352010965347,0.33537352586090563,0.37335374895874407
1772031828166653000,4.65265283203125,2.412919220107794,0.3279372383803129,0.3116709805710241
1772031828176602000,4.66260205078125,2.241846029609442,0.4144444322273135,0.22762166473753748
1772031828186550000,4.672550048828125,2.1322703871250153,0.4703089427903294,0.10257005630498751
1772031828196499200,4.682499267578125,2.020057381874323,0.541151826776564,0.000378441390953958
1772031828206448000,4.6924482421875,1.95670806851387,0.5704319895356893,-0.06443191183223389
1772031828216396000,4.70239599609375,1.9178870472103355,0.4907929278925061,-0.1566031684560701
1772031828226345000,4.712344970703125,1.847428194105625,0.3054191171020269,-0.3165391345966607
1772031828236294100,4.722294189453125,1.6604402261167763,0.08503945938199758,-0.416358376089856
1772031828246243000,4.7322431640625,1.5067168143481016,-0.040109015287458895,-0.46137785017471755
1772031828256191000,4.74219091796875,1.4209680376529692,-0.1403133105754852,-0.48672688402999187
1772031828266140000,4.752139892578125,1.345821903514862,-0.26548779646903276,-0.47828255201801656
1772031828276088800,4.7620888671875,1.193572071430087,-0.3878904795616865,-0.4182100318385288
1772031828286037000,4.772037109375,0.963601870805025,-0.47676001862585543,-0.342320678117685
1772031828295986000,4.78198583984375,0.7087140865445136,-0.5689563640251756,-0.30609573772195725
1772031828305934800,4.791934814453125,0.43317222131192684,-0.6237693197086454,-0.25794200246566906
1772031828315884000,4.801884033203125,0.18256781345903872,-0.5869017705604433,-0.1790444251058623
1772031828325832200,4.811832275390625,-0.012060440149903297,-0.5096563260555267,-0.07794575652768836
1772031828335781000,4.821781005859375,-0.15080898562669753,-0.47503129513710735,0.05158896126882173
1772031828345730000,4.83172998046875,-0.26021628580689427,-0.49912061125487084,0.15731577370483427
1772031828355678200,4.84167822265625,-0.29635844328999517,-0.5577379276573657,0.16445959931118412
1772031828365627100,4.851627197265625,-0.13861644352972508,-0.6057599080264569,0.09191245042402296
1772031828375576000,4.861576171875,0.166962832570076,-0.6845128344848752,-0.031629758092574775
1772031828385525000,4.87152490234375,0.46436873908638954,-0.818670545040071,-0.17442942385738713
1772031828395473000,4.881472900390625,0.6121142454892397,-0.9928606985151767,-0.30417061487827446
1772031828405422000,4.891422119140625,0.680861618500948,-1.0831140931531786,-0.44599918885491785
1772031828415371000,4.90137109375,0.7294009007424116,-1.0934022629335522,-0.5585432161582633
1772031828425319000,4.91131884765625,0.7015636302679776,-1.0949056532338262,-0.6480716940551996
1772031828435267800,4.921267822265625,0.6102776777118444,-1.027053183235228,-0.6511524166747927
1772031828445217000,4.931217041015625,0.5214589920520782,-0.9310784883409738,-0.5758065952461212
1772031828455166200,4.941166259765625,0.4288081808835268,-0.7978527979388833,-0.4791015037180856
1772031828465114000,4.951114013671875,0.38457331783771515,-0.6121496090635657,-0.39452312250919636
1772031828475063000,4.96106298828125,0.28843934072852134,-0.3919692733079195,-0.3103052086431533
1772031828485012000,4.971011962890625,0.12288520591259001,-0.1670055026680231,-0.23406031948290765
1772031828494961000,4.9809609375,-0.07535714654028415,0.03790449098050594,-0.12521306433826684
1772031828504909000,4.990908935546875,-0.32518297123610973,0.12432897498011589,-0.012256474178656935
1772031828514858000,5.00085791015625,-0.709319651222229,0.09609481414258479,0.06438705891035497
1772031828524807000,5.010806884765625,-1.0767927811771631,-0.07951222039312124,0.004944762925803661
1772031828534755000,5.020755126953125,-1.1546049196541308,-0.334337753072381,-0.15678024205602706
1772031828544704000,5.0307041015625,-0.8842419183641672,-0.5089607450067997,-0.20313374122362582
1772031828554653000,5.04065283203125,-0.5471440529286861,-0.6864008401885628,-0.2268845095694065
1772031828564602000,5.05060205078125,-0.45908115407228467,-1.1060501475825906,-0.46192324563041326
1772031828574550000,5.060550048828125,-0.3941103769898414,-1.3683917549803852,-0.5260733905123547
1772031828584499200,5.070499267578125,-0.37329555249810215,-1.1667378405183553,-0.14402838557586073
1772031828594448100,5.0804482421875,-0.6488818413943052,-0.8680158829674124,0.2529821698348969
1772031828604396000,5.09039599609375,-1.16945177565217,-0.5003226805210114,0.5623419508541002
1772031828614345000,5.100344970703125,-1.6470564284086227,-0.018939093747735024,0.7760881253764033
1772031828624294100,5.110294189453125,-2.0697154390126467,0.44309974108636374,0.7818864363916218
1772031828634243000,5.1202431640625,-2.3194132534146306,0.7863210578382015,0.5840582542302086
1772031828644191000,5.13019091796875,-2.218650447461009,1.0640575105056167,0.2633903492657468
1772031828654140000,5.140139892578125,-1.8305974708139896,1.2727063984215259,-0.05880100240632891
1772031828664089000,5.150089111328125,-1.2975059086352585,1.3309431910738347,-0.3767862076254561
1772031828674038000,5.1600380859375,-0.8523755385041236,1.1908218959391117,-0.6364820862874389
1772031828683986000,5.16998583984375,-0.5691361045062542,0.9786310976326466,-0.7988921509239822
1772031828693934800,5.179934814453125,-0.44949674864709377,0.7764706949532032,-0.8431962067484855
1772031828703884000,5.189884033203125,-0.512589456897974,0.5905193765357136,-0.7907762106161564
1772031828713832000,5.19983203125,-0.7818915509581565,0.5114820801779627,-0.6039055488640442
1772031828723781000,5.209781005859375,-1.1190858625054358,0.6197393335402012,-0.28561156995669007
1772031828733730000,5.21972998046875,-1.4383657471776008,0.8250985322609543,0.08574209122601896
1772031828743679000,5.229678955078125,-1.7817039683073759,1.0262655399888754,0.3786619018368423
1772031828753627100,5.239627197265625,-2.1336913598388434,1.2226298236101865,0.6046139893943444
1772031828763576000,5.249576171875,-2.3638772490411997,1.4139274714916943,0.7704833641719072
1772031828773525000,5.25952490234375,-2.3690789093375204,1.5953215649962424,0.8073762669570743
1772031828783473000,5.269472900390625,-2.1484259876340626,1.7405469052717089,0.6837799901656806
1772031828793422000,5.279422119140625,-1.6761510054677724,1.821788141414523,0.4307600090710446
1772031828803371000,5.28937109375,-1.0555009868234395,1.7923817219272256,0.15934004607405514
1772031828813320000,5.29931982421875,-0.36703590758144855,1.7017127322256564,-0.06332092751618475
1772031828823267800,5.309267822265625,0.29622458777725696,1.5972928650692104,-0.23209402437862006
1772031828833217000,5.319217041015625,0.9309697672694921,1.444872352592647,-0.3402382823530584
1772031828843166200,5.329166259765625,1.4907225418806076,1.2175322082102298,-0.4411018818000331
1772031828853115100,5.339115234375,1.9119851296901702,0.8886202795788645,-0.5289790853586047
1772031828863063000,5.34906298828125,2.231893375393748,0.5774141035079956,-0.6002610183492303
1772031828873012000,5.359011962890625,2.487341716146469,0.28584581710398194,-0.6261812031559646
1772031828882961200,5.368961181640625,2.6467034260630604,-0.03161561996936798,-0.6658822221644223
1772031828892909000,5.378908935546875,2.770035206699371,-0.33490181669592856,-0.6595278847016394
1772031828902858000,5.38885791015625,2.797074604794383,-0.574393878903985,-0.6191716897200793
1772031828912807000,5.398806884765625,2.7317870168477296,-0.7678425673395395,-0.5132619493320584
1772031828922755800,5.408755859375,2.5040105268746613,-0.9063634415403008,-0.3452552337322384
1772031828932704000,5.4187041015625,2.1386913600832225,-0.9190794229894876,-0.15108798523116856
1772031828942653000,5.42865283203125,1.7190788775682448,-0.8063879865720868,0.03151968531422317
1772031828952601900,5.438601806640625,1.332015496480465,-0.6732441292345523,0.18480021215360612
1772031828962550000,5.448550048828125,0.8647264860332011,-0.5970519931748509,0.30158878169152886
1772031828972499200,5.458499267578125,0.4353419665664434,-0.5111678996622562,0.4060283399291336
1772031828982448000,5.4684482421875,0.08077800254523754,-0.37112902211397886,0.4767808422181755
1772031828992397000,5.47839697265625,-0.15046294866800308,-0.2689718391925096,0.4879861633760854
1772031829002345000,5.488344970703125,-0.23368775984346865,-0.16487345907539128,0.4521759047284722
1772031829012294100,5.498294189453125,-0.16394786866307257,-0.038132162256538864,0.367295654496178
1772031829022243000,5.5082431640625,0.0856856483310461,0.01046381860822439,0.21968999495543537
1772031829032191000,5.51819091796875,0.4505389511764049,-0.05726268692314625,0.008405516105238348
1772031829042140000,5.528139892578125,0.852238760381937,-0.22984189807027577,-0.1838759003829211
1772031829052089000,5.538089111328125,1.1234119090110062,-0.4379296449720859,-0.3084953462095931
1772031829062038000,5.5480380859375,1.2882710473001002,-0.6382958577111363,-0.40379985022470355
1772031829071986000,5.55798583984375,1.4016256238013505,-0.8795978919506072,-0.4945328450731933
1772031829081934800,5.567934814453125,1.476017724701762,-1.1606529676467179,-0.5732115737842396
1772031829091884000,5.577884033203125,1.482079216697812,-1.3500979733988643,-0.5713233488848433
1772031829101832000,5.58783203125,1.3752023117780685,-1.409164787134528,-0.41757250111997124
1772031829111781000,5.597781005859375,1.1483388449966907,-1.3791905046314001,-0.16517832377348093
1772031829121730000,5.60772998046875,0.8623702782958745,-1.3061276065081358,0.062381746969930825
1772031829131679000,5.617678955078125,0.5348141481876373,-1.1778156993716955,0.20755374962296336
1772031829141627100,5.627627197265625,0.17409107701480386,-1.0677303537994622,0.17845807658527046
1772031829151576000,5.637576171875,-0.11408873599469661,-1.040348718138039,-0.09365191450249404
1772031829161525000,5.64752490234375,-0.23296529078781603,-0.9532678160563111,-0.4052911847610026
1772031829171474000,5.657473876953125,-0.30658582279384133,-0.7190136545017362,-0.6429172339014708
1772031829181422000,5.667422119140625,-0.5240402407169342,-0.7561933383390307,-1.152568153129518
1772031829191371800,5.677371826171875,-0.6964484792113304,-1.201578560014069,-1.8746952634766696
1772031829201320700,5.68732080078125,-0.5850742628723382,-1.4066609876200555,-2.1039365653052924
1772031829211268600,5.6972685546875,-0.1499298647046089,-1.0605559321254492,-1.7584388280540704
1772031829221217500,5.707217529296875,0.2404348960161209,-0.6408984414249658,-1.2248524680957198
1772031829231166700,5.717166748046875,0.07669511714577674,-0.406741018243134,-0.591121141821146
1772031829241115600,5.72711572265625,-0.8765244758546352,-0.1345721365749836,0.2225989412046969
1772031829251063600,5.7370634765625,-2.180465970495343,0.23296675209254025,0.9921871831677853
1772031829261012500,5.747012451171875,-3.64696358717978,0.5706722280323505,1.5927005688428877
1772031829270961700,5.756961669921875,-4.956989370170235,0.9547244446054101,1.9497186480179427
1772031829280910800,5.766910888671875,-5.606689542210102,1.4665341493025421,2.0203417517736555
1772031829290858800,5.776858642578125,-5.353348987391591,2.043602800373733,1.7629291252106427
1772031829300807700,5.7868076171875,-4.60837408542037,2.3823387884050606,1.2417786145858465
1772031829310756600,5.796756591796875,-3.7200346686095,2.4889932827457786,0.667733183793351
1772031829320704800,5.806704833984375,-2.703205065485835,2.552833302232623,0.22805892364364116
1772031829330653700,5.81665380859375,-1.7066525267153978,2.464926470720768,-0.07886807727068662
1772031829340602600,5.8266025390625,-0.8146621861815452,2.2255185796648265,-0.3045142041515559
1772031829350551600,5.836551513671875,-0.040055531534552574,1.8959598775625228,-0.31009032378345724
1772031829360499700,5.846499755859375,0.5542664521545171,1.479013107125461,-0.16316515732016412
1772031829370448600,5.85644873046875,1.0044096820116042,0.9985106871008872,0.09186824595611542
1772031829380397600,5.8663974609375,1.4041396524488925,0.5820978774100541,0.424287926980108
1772031829390345500,5.876345458984375,1.7734651322722434,0.3188201582059264,0.7535489613100886
1772031829400294700,5.886294677734375,1.92927411814332,0.09831541280150413,1.0411690946102141
1772031829410243800,5.896243896484375,1.9186264674007891,-0.10022884520739317,1.1998410686969756
1772031829420192800,5.90619287109375,1.8351374523311852,-0.20863105999827383,1.2401409303814173
1772031829430140700,5.916140625,1.7218863362044095,-0.18904811538904903,1.1425891223635525
1772031829440089600,5.926089599609375,1.59489720210433,-0.02138356429040432,0.9500199201762676
1772031829450038800,5.936038818359375,1.5093950936466454,0.2435086043730378,0.7312121879480779
1772031829459986700,5.945986572265625,1.5030518620997666,0.4694844746649265,0.5252831534501164
1772031829469935600,5.955935546875,1.4679711963683366,0.6291144801288843,0.30524898469951
1772031829479884500,5.965884521484375,1.444851602065563,0.751466894339025,0.15233502615019678
1772031829489833500,5.97583349609375,1.447460907781124,0.7945823979660869,0.03261135300844908
1772031829499781600,5.98578173828125,1.5133154819607735,0.7317471716076135,-0.08254013511324301
1772031829509730600,5.99573046875,1.6191642128765582,0.5952943358525633,-0.20250574551839381
1772031829519679500,6.005679443359375,1.691638497456908,0.40392888343185185,-0.28546275433683765
1772031829529628700,6.015628662109375,1.688096879327297,0.20673867038041352,-0.3380080390829593
1772031829539576600,6.02557666015625,1.737855474230647,-0.004203881430625916,-0.34699071575533597
1772031829549525800,6.03552587890625,1.8277724765211343,-0.20259177983403204,-0.3631817529039457
1772031829559474700,6.045474609375,1.8414689934402704,-0.39461686520725486,-0.37915717454049735
1772031829569422800,6.0554228515625,1.7324182516127824,-0.52451428796947,-0.2792045524585992
1772031829579371800,6.065371826171875,1.4887830982506274,-0.6140957746952772,-0.1483542494183406
1772031829589320700,6.07532080078125,1.248263446560502,-0.6763169608086347,-0.0504882426184602
1772031829599269600,6.08526953125,1.0096838230222462,-0.7094713346526026,0.03451956124994904
1772031829609217500,6.095217529296875,0.741280139106512,-0.7299415834903716,0.12876348682884126
1772031829619166700,6.105166748046875,0.45438919686377044,-0.7601762704953551,0.22239775607679038
1772031829629115600,6.11511572265625,0.22719021451771257,-0.7872773356497287,0.34258013277146965
1772031829639063600,6.1250634765625,0.054495560297369953,-0.7980237705916166,0.47929731855113056
1772031829649012500,6.135012451171875,-0.04993921216726303,-0.8643968156874179,0.6202208334468304
1772031829658961400,6.14496142578125,-0.07962824798822403,-0.9302472982138394,0.7110006631117314
1772031829668910800,6.154910888671875,0.03012099749743938,-0.9538581831648946,0.6740901516046375
1772031829678858800,6.164858642578125,0.3253121505737305,-0.9890475699678063,0.4853846025755629
1772031829688807700,6.1748076171875,0.732535107114911,-1.0071098808810115,0.20978329877331853
1772031829698756600,6.184756591796875,1.1076339096426964,-1.0107233952030539,-0.07370397250577806
1772031829708705500,6.19470556640625,1.300418581211567,-1.026340943312645,-0.2912695957183838
1772031829718653700,6.20465380859375,1.345038644182682,-1.0268968236297369,-0.45997090598624196
1772031829728602600,6.2146025390625,1.3602496573179959,-0.984374317459762,-0.6010117271186783
1772031829738551600,6.224551513671875,1.3642051169455052,-0.8990472733080387,-0.7155866757277399
1772031829748499700,6.234499755859375,1.2687345721811056,-0.799861799673736,-0.7741665096640586
1772031829758448600,6.24444873046875,1.130773377689719,-0.6675652068153023,-0.7967528738729656
1772031829768397600,6.2543974609375,0.9464017296791076,-0.5021273918554187,-0.753382372571528
1772031829778346500,6.264346435546875,0.7230600072830915,-0.36267011358737944,-0.6755003837287425
1772031829788294700,6.274294677734375,0.5415227059155703,-0.18504647853225467,-0.5574737237632275
1772031829798243800,6.284243896484375,0.35784780799746513,-0.034413141733407974,-0.38680202673785385
1772031829808192800,6.29419287109375,0.15556524024307727,-0.0005558803170919418,-0.26129290206246075
1772031829818140700,6.304140625,-0.12437807481884956,-0.08650719384700059,-0.2674804315909743
1772031829828089600,6.314089599609375,-0.39882513055205343,-0.5449255000963806,-0.6098368020765483
1772031829838038800,6.324038818359375,-0.3382487890362739,-1.0613348075434565,-1.0066277964524923
1772031829847987700,6.33398779296875,-0.16085516334474087,-1.317268885986507,-1.1354942687317728
1772031829857935600,6.343935546875,-0.15048223789036272,-1.4693518370717764,-1.2761882491879164
1772031829867884500,6.353884521484375,-0.21625848613679408,-1.4295117018535732,-1.265959700640291
1772031829877833700,6.363833740234375,-0.40805765379965303,-1.105308681565523,-1.011779407062009
1772031829887782700,6.37378271484375,-0.984767992952466,-0.6946978361517191,-0.747149688727036
1772031829897730600,6.38373046875,-1.8052327279329299,-0.26706074487417936,-0.39000067664869126
1772031829907679500,6.393679443359375,-2.7011697602659464,0.07721826423704624,-0.029257512535899876
1772031829917628400,6.40362841796875,-3.450843049186468,0.3777487325146794,0.14096176454685627
1772031829927576600,6.41357666015625,-3.7885336198180912,0.6655263944640756,0.172838958061859
1772031829937525800,6.42352587890625,-3.584530804142356,0.9131906572118401,0.10708894023522735
1772031829947474700,6.433474609375,-2.9993221012353897,0.9673454412475228,-0.08102394013032317
1772031829957423600,6.443423583984375,-2.4822031842142342,0.8225617072597146,-0.30618878630027174
1772031829967371800,6.453371826171875,-2.102671367675066,0.6234358499705791,-0.449699943068996
1772031829977320700,6.46332080078125,-1.8518191225409506,0.440827704501152,-0.4786662906385958
1772031829987269600,6.47326953125,-1.7587071236014364,0.2685164966404438,-0.4207422171972692
1772031829997217500,6.483217529296875,-1.747350447806716,0.1489697875007987,-0.29015681217089295
1772031830007166700,6.493166748046875,-1.7044535553663969,0.12791297094672918,-0.09785298292152583
1772031830017115600,6.50311572265625,-1.6746043605476617,0.23310966769456862,0.13166852408796548
1772031830027064600,6.513064697265625,-1.7064175489157438,0.5040586521789431,0.3475566425424069
1772031830037012500,6.523012451171875,-1.7408517334371805,0.915535174511373,0.4600547483447939
1772031830046961700,6.532961669921875,-1.623624114894867,1.3321741941735148,0.4593655239716172
1772031830056910800,6.542910888671875,-1.326015379282832,1.7020462019637226,0.4605218543998897
1772031830066859800,6.55285986328125,-0.9272183057814836,2.0028098944753405,0.5866090712241828
1772031830076807700,6.5628076171875,-0.629624183216691,2.132959246172011,0.6977993092983961
1772031830086756600,6.572756591796875,-0.48433133066296574,2.146832288701832,0.760567900161445
1772031830096705800,6.582705810546875,-0.35371114658415315,2.11841400346905,0.7226151130598037
1772031830106653700,6.59265380859375,-0.14034721284508705,2.0307029867902395,0.5183328959207981
1772031830116602600,6.6026025390625,0.19054069203436375,1.9403274270772932,0.3038229704843834
1772031830126551600,6.612551513671875,0.5965805762708187,1.8648092447564004,0.13249869130179284
1772031830136500500,6.62250048828125,1.0841326225459575,1.7331272766649721,0.037073629646934565
1772031830146448600,6.63244873046875,1.6031290238767861,1.4994582215219736,0.017614859406650064
1772031830156397600,6.6423974609375,2.0997201166540385,1.1861442595168947,0.023165442738495766
1772031830166346500,6.652346435546875,2.563236622825265,0.8576903037860989,-0.00513688796442002
1772031830176295700,6.662295654296875,2.9211428830116986,0.5514587012574076,-0.01639978452846408
1772031830186243600,6.67224365234375,3.170699827638268,0.29820933185368775,-0.003923091727867722
1772031830196192800,6.68219287109375,3.2306203355938194,0.05972556990534067,0.046980289296433324
1772031830206141700,6.6921416015625,3.057067603239417,-0.15716653795987368,0.1489860079832375
1772031830216089600,6.702089599609375,2.7809412161171436,-0.32609657894968985,0.25984723329879345
1772031830226038800,6.712038818359375,2.438060675626993,-0.4142717060089111,0.33850148515570905
1772031830235987700,6.72198779296875,2.057941999110579,-0.46185850983113047,0.3703856564007699
1772031830245937000,6.73193701171875,1.6651567332446575,-0.47969665659964084,0.37482999552376567
1772031830255884800,6.741884765625,1.1931798572421073,-0.47654754491895435,0.3935772199612111
1772031830265833700,6.751833740234375,0.7041074695318937,-0.450072502708435,0.46337804754860695
1772031830275783000,6.761782958984375,0.3520972816467285,-0.4004328580096364,0.5050950094893575
1772031830285730800,6.771730712890625,0.24343992305099962,-0.36828386181592937,0.49832105837501584
1772031830295679700,6.7816796875,0.33162206437289715,-0.41363253132253885,0.4454056068759411
1772031830305628700,6.791628662109375,0.4796545710235834,-0.4761936169147491,0.38286154548376794
1772031830315577900,6.801577880859375,0.5632908856093883,-0.5344704493165016,0.33027481448240575
1772031830325525800,6.81152587890625,0.6684890436619519,-0.6719479519441723,0.22597813531421124
1772031830335474700,6.821474609375,0.7426075883179902,-0.879210353937745,0.07491006035991013
1772031830345423600,6.831423583984375,0.7660673743605613,-1.1116285322368145,-0.062202846739068625
1772031830355371800,6.841371826171875,0.7336854461938143,-1.3449562265962363,-0.12150303083918988
1772031830365320700,6.85132080078125,0.6022931086987257,-1.579995693309605,-0.0592390284974128
1772031830375270000,6.861269775390625,0.32262393440306186,-1.7600524007305502,0.055999096728116274
1772031830385218800,6.87121875,-0.022757190731167793,-1.7430965897545216,0.2759153747200966
1772031830395167000,6.8811669921875,-0.41435295455157756,-1.52356039712131,0.49304341023303566
1772031830405116000,6.891115966796875,-0.6065630411028862,-1.1612041717886925,0.7079661177214235
1772031830415064800,6.90106494140625,-0.7039940722852945,-0.8965309065729379,0.711156511260569
1772031830425013800,6.911013671875,-0.7390297298312187,-0.6358320979461074,0.588914863948524
1772031830434962000,6.9209619140625,-0.730340227419138,-0.44797114651501174,0.29578144711963833
1772031830444910800,6.930910888671875,-0.6240817466586828,-0.5165919705376029,-0.26816940023582425
1772031830454859800,6.94085986328125,-0.38751521650850773,-0.7609379025176167,-0.8198201534666121
1772031830464807700,6.9508076171875,-0.17162907081544398,-0.9277133958220481,-1.064077091988921
1772031830474756600,6.960756591796875,-0.027690555480122565,-1.105111113166809,-1.1804493358109145
1772031830484705800,6.970705810546875,-0.005168927070498466,-1.309319972808659,-1.2388004755578934
1772031830494654700,6.98065478515625,-0.11425357116758823,-1.3628396738111972,-1.000597649442777
1772031830504602600,6.9906025390625,-0.4335661890655756,-1.2403197940796613,-0.35911205577962096
1772031830514551800,7.0005517578125,-1.1143009663164616,-0.9629486675933003,0.48804216787964105
1772031830524500700,7.010500732421875,-1.989297501951456,-0.49494624817967414,1.1539276049144565
1772031830534450000,7.020449951171875,-2.7427380344510075,0.13635726642608642,1.4415119362488389
1772031830544397800,7.030397705078125,-3.3054566731303927,0.6776429487153888,1.3644032698661088
1772031830554346800,7.0403466796875,-3.7248335933238264,1.0489169322580099,1.0615027845215053
1772031830564295700,7.050295654296875,-3.9951603542566296,1.4247829197660087,0.7823615065574645
1772031830574243800,7.060243896484375,-4.015340972498059,1.8749384245827794,0.648627720502764
1772031830584192800,7.07019287109375,-3.722988257718086,2.2219430592656133,0.6270770560171455
1772031830594141700,7.0801416015625,-3.2584874166846274,2.1989731025665997,0.7089249528162181
1772031830604090600,7.090090576171875,-2.5614357108831403,1.8952122740656137,0.9560535012520849
1772031830614038800,7.100038818359375,-1.7296464488118886,1.6304790953561663,1.2250411225356161
1772031830623987700,7.10998779296875,-0.9161503838002681,1.425953717111051,1.3354343650132416
1772031830633937000,7.11993701171875,-0.23107260890901088,1.2962775358840823,1.23836398383677
1772031830643885800,7.1298857421875,0.32198388293385505,1.2690531366109847,1.0925857589188963
1772031830653834000,7.139833984375,0.7313298229783773,1.1705498000219463,0.8369170534137635
1772031830663783000,7.149782958984375,1.2100807231605053,1.0508230581402778,0.5370305821280926
1772031830673731800,7.15973193359375,2.125469474938512,0.7101517181321978,0.015045402785931946
1772031830683679700,7.1696796875,2.466984572294354,0.5775996892079711,-0.2458377414403483
1772031830693628700,7.179628662109375,1.907611736911535,1.0817378363639116,0.2520385140429251
1772031830703577900,7.189577880859375,1.3747230038285254,1.4357812836423516,0.5727402299454435
1772031830713526800,7.19952685546875,1.387514096340537,1.0960995391935109,0.6433999759171157
1772031830723474700,7.209474609375,1.4544330848813056,0.6968716730594635,0.6676276775922626
1772031830733423600,7.219423583984375,1.461166777050495,0.5191358098015189,0.6830121475983411
1772031830743372800,7.229372802734375,1.5919383522987365,0.513378269188106,0.6288516644742339
