time,seconds_elapsed,z,y,x
1772031823600193000,0.086193115234375,-0.7643938064575195,-1.4696283340454102,1.1739684343338013
1772031823610142000,0.096141845703125,-0.8980211019515991,-1.5917799472808838,1.1104596853256226
1772031823620090000,0.106090087890625,-0.9679610133171082,-1.4599186182022095,0.9773220419883728
1772031823630039000,0.1160390625,-0.9673141241073608,-1.195225715637207,0.8022378087043762
1772031823639988000,0.125988037109375,-0.9078574776649475,-0.8546074032783508,0.6275586485862732
1772031823649936000,0.135935791015625,-0.7873489260673523,-0.47379758954048157,0.48603594303131104
1772031823659885000,0.145885009765625,-0.632710874080658,-0.16014860570430756,0.4163884222507477
1772031823669834000,0.155833984375,-0.4827323853969574,0.11039593070745468,0.3824229836463928
1772031823679783000,0.165782958984375,-0.37985020875930786,0.3539896607398987,0.3516347110271454
1772031823689730800,0.175730712890625,-0.32908719778060913,0.5375581979751587,0.3571457266807556
1772031823699679700,0.1856796875,-0.3069224953651428,0.6305110454559326,0.35915616154670715
1772031823709629000,0.19562890625,-0.35907042026519775,0.6809827089309692,0.39765071868896484
1772031823719576800,0.205576904296875,-0.4697367548942566,0.7153326869010925,0.4812803566455841
1772031823729526000,0.215526123046875,-0.5477831959724426,0.7126049995422363,0.5433905720710754
1772031823739475000,0.225474853515625,-0.5670120120048523,0.6071406602859497,0.5423170328140259
1772031823749423000,0.235423095703125,-0.4955422282218933,0.3761075437068939,0.48190391063690186
1772031823759372000,0.2453720703125,-0.30449289083480835,0.1729235202074051,0.37663233280181885
1772031823769321000,0.255321044921875,-0.017740027979016304,0.03196318820118904,0.21024732291698456
1772031823779270000,0.265269775390625,0.29631030559539795,-0.09239497780799866,-0.00659150630235672
1772031823789218000,0.275218017578125,0.5784317255020142,-0.18395830690860748,-0.21670366823673248
1772031823799167000,0.2851669921875,0.8046283721923828,-0.27800440788269043,-0.40841931104660034
1772031823809116000,0.295115966796875,0.9556735754013062,-0.42005041241645813,-0.5457751154899597
1772031823819063800,0.305063720703125,1.0015652179718018,-0.5869417190551758,-0.6040754318237305
1772031823829013000,0.315012939453125,0.9351862072944641,-0.7139941453933716,-0.5757263898849487
1772031823838962000,0.3249619140625,0.7756056189537048,-0.764386773109436,-0.4864833354949951
1772031823848911000,0.3349111328125,0.5733520984649658,-0.7338835000991821,-0.3729093074798584
1772031823858858800,0.344858642578125,0.36540552973747253,-0.6460713744163513,-0.22713132202625275
1772031823868808000,0.354807861328125,0.18515796959400177,-0.5515570044517517,-0.07317891716957092
1772031823878757000,0.364757080078125,0.10002390295267105,-0.5000941157341003,0.06855185329914093
1772031823888705000,0.374705078125,0.113802470266819,-0.4060225188732147,0.18506984412670135
1772031823898654000,0.384654052734375,0.20555342733860016,-0.27625733613967896,0.2785244286060333
1772031823908603000,0.394602783203125,0.3139379322528839,-0.11315997689962387,0.356475293636322
1772031823918551800,0.4045517578125,0.39974233508110046,0.05231473967432976,0.4099220037460327
1772031823928500000,0.4145,0.4853648841381073,0.15106360614299774,0.44062232971191406
1772031823938449000,0.424448974609375,0.5541889071464539,0.17430581152439117,0.4417397975921631
1772031823948397800,0.434397705078125,0.6043170690536499,0.12727601826190948,0.4134058356285095
1772031823958346000,0.444345947265625,0.6062201261520386,0.05378076434135437,0.37873944640159607
1772031823968295000,0.454294921875,0.5476570129394531,-0.022507689893245697,0.34213611483573914
1772031823978243800,0.464243896484375,0.4228772819042206,-0.0433993935585022,0.2945733964443207
1772031823988191700,0.474191650390625,0.24178406596183777,0.024408578872680664,0.22614330053329468
1772031823998141000,0.484140869140625,0.014733614400029182,0.1254212111234665,0.17242148518562317
1772031824008090000,0.494090087890625,-0.1930215060710907,0.08790059387683868,0.15731409192085266
1772031824018039000,0.5040390625,-0.3096317648887634,-0.06461624056100845,0.1481160670518875
1772031824027987000,0.513987060546875,-0.3737698495388031,-0.25064119696617126,0.10799118131399155
1772031824037935900,0.523935791015625,-0.4043472111225128,-0.36774733662605286,-0.0006080013699829578
1772031824047885000,0.533885009765625,-0.3446024954319,-0.2916070520877838,-0.1777995228767395
1772031824057833000,0.5438330078125,-0.23368395864963531,-0.0683571845293045,-0.31233975291252136
1772031824067782000,0.553781982421875,-0.10423412173986435,0.15792721509933472,-0.33792540431022644
1772031824077730800,0.563730712890625,0.05546712130308151,0.29082587361335754,-0.2967667877674103
1772031824087679700,0.5736796875,0.22119341790676117,0.3717503249645233,-0.2412731945514679
1772031824097628000,0.5836279296875,0.35304439067840576,0.4697067141532898,-0.21275553107261658
1772031824107576800,0.593576904296875,0.41213494539260864,0.571183979511261,-0.2537172734737396
1772031824117526000,0.603526123046875,0.4094656705856323,0.5819170475006104,-0.3357631266117096
1772031824127474000,0.613473876953125,0.3826797604560852,0.5111092329025269,-0.40254727005958557
1772031824137423000,0.623423095703125,0.3290253281593323,0.36462923884391785,-0.413169801235199
1772031824147372000,0.6333720703125,0.26783719658851624,0.2107337862253189,-0.3688265383243561
1772031824157321000,0.643321044921875,0.21715375781059265,0.06905602663755417,-0.22882363200187683
1772031824167268900,0.653268798828125,0.16533350944519043,-0.15969549119472504,0.02283172681927681
1772031824177218000,0.663218017578125,0.0680338591337204,-0.4787038266658783,0.33012163639068604
1772031824187167500,0.67316748046875,-0.10906405746936798,-0.7945297956466675,0.6497339010238647
1772031824197115400,0.683115478515625,-0.3093249797821045,-0.9627891182899475,0.8913145661354065
1772031824207064300,0.693064208984375,-0.4592922031879425,-0.9428877830505371,1.0934029817581177
1772031824217013200,0.70301318359375,-0.5331920385360718,-0.8464669585227966,1.2556118965148926
1772031824226961400,0.71296142578125,-0.5577834248542786,-0.5214650630950928,1.2676308155059814
1772031824236910300,0.722910400390625,-0.5724816918373108,-0.052877601236104965,1.0682487487792969
1772031824246859300,0.732859375,-0.5474222898483276,0.37019848823547363,0.6557644009590149
1772031824256808200,0.74280810546875,-0.4612536132335663,0.6770351529121399,0.0758134126663208
1772031824266756400,0.75275634765625,-0.3639973998069763,0.7497656941413879,-0.5186788439750671
1772031824276705500,0.76270556640625,-0.2753942906856537,0.5390294790267944,-0.967578649520874
1772031824286654500,0.772654541015625,-0.1788426637649536,0.04605250433087349,-1.216240406036377
1772031824296602400,0.782602294921875,-0.08495265990495682,-0.5715641379356384,-1.3089200258255005
1772031824306551600,0.792551513671875,0.0024285269901156425,-1.0585917234420776,-1.3050429821014404
1772031824316500500,0.80250048828125,0.09059567004442215,-1.3016242980957031,-1.2517776489257812
1772031824326449400,0.812449462890625,0.1697491854429245,-1.3033099174499512,-1.1505118608474731
1772031824336397300,0.822397216796875,0.23299020528793335,-1.063941240310669,-0.9800778031349182
1772031824346346500,0.832346435546875,0.2489810585975647,-0.6755897998809814,-0.7082692980766296
1772031824356295400,0.84229541015625,0.23836062848567963,-0.23973947763442993,-0.3767869770526886
1772031824366243300,0.852243408203125,0.23433104157447815,0.2326553612947464,-0.049457963556051254
1772031824376192300,0.862192138671875,0.23679126799106598,0.5883359909057617,0.2416074424982071
1772031824386141200,0.87214111328125,0.235426127910614,0.7355011701583862,0.4716606140136719
1772031824396090600,0.882090576171875,0.22056250274181366,0.6749448776245117,0.572975754737854
1772031824406038300,0.892038330078125,0.21316754817962646,0.7042174339294434,0.4812968671321869
1772031824415987500,0.901987548828125,0.18393641710281372,0.6019877195358276,0.3104705512523651
1772031824425936400,0.911936279296875,0.13783152401447296,0.37317392230033875,0.13195766508579254
1772031824435884500,0.921884521484375,0.09904871135950089,0.17893095314502716,-0.05115915834903717
1772031824445833500,0.93183349609375,0.0956031009554863,0.010121195577085018,-0.23724953830242157
1772031824455782400,0.941782470703125,0.10579794645309448,-0.12449093908071518,-0.4086892008781433
1772031824465730300,0.951730224609375,0.141036257147789,-0.21043716371059418,-0.5418545007705688
1772031824475679500,0.961679443359375,0.16100996732711792,-0.2827094793319702,-0.6327574849128723
1772031824485628400,0.97162841796875,0.17415590584278107,-0.29214346408843994,-0.6700176000595093
1772031824495577300,0.981577392578125,0.14463955163955688,-0.21212372183799744,-0.6486867070198059
1772031824505525200,0.991525146484375,0.07078756392002106,-0.01689944788813591,-0.5877953767776489
1772031824515474400,1.001474365234375,-0.004904001485556364,0.17733314633369446,-0.4942074120044708
1772031824525423400,1.01142333984375,-0.09051739424467087,0.31765028834342957,-0.37617790699005127
1772031824535371300,1.021371337890625,-0.16635224223136902,0.4289690852165222,-0.2357315719127655
1772031824545320400,1.031320556640625,-0.23391351103782654,0.4831285774707794,-0.0798211544752121
1772031824555269400,1.041269287109375,-0.2724321186542511,0.48189952969551086,0.04603024944663048
1772031824565218600,1.051218505859375,-0.2678527235984802,0.4320419728755951,0.13434329628944397
1772031824575166500,1.06116650390625,-0.25358882546424866,0.34444740414619446,0.18667201697826385
1772031824585115400,1.071115478515625,-0.2485162764787674,0.2536889314651489,0.19235333800315857
1772031824595064300,1.081064208984375,-0.265555202960968,0.19462692737579346,0.15315240621566772
1772031824605012500,1.091012451171875,-0.281819611787796,0.11819754540920258,0.11023211479187012
1772031824614961400,1.10096142578125,-0.30018290877342224,-0.00044893892481923103,0.047445956617593765
1772031824624910300,1.110910400390625,-0.30634570121765137,-0.07123354077339172,-0.03615352511405945
1772031824634858500,1.1208583984375,-0.30085721611976624,-0.03383716940879822,-0.10257435590028763
1772031824644807400,1.130807373046875,-0.29962295293807983,0.04544045031070709,-0.1091010719537735
1772031824654756400,1.14075634765625,-0.31339123845100403,0.11849921941757202,-0.07028497010469437
1772031824664705300,1.150705322265625,-0.3532749116420746,0.19601573050022125,-0.017821330577135086
1772031824674653200,1.160653076171875,-0.40883538126945496,0.25416186451911926,0.03223437815904617
1772031824684602600,1.1706025390625,-0.47937488555908203,0.28174135088920593,0.09045398235321045
1772031824694551600,1.180551513671875,-0.5625060200691223,0.3074240982532501,0.14035657048225403
1772031824704499500,1.19049951171875,-0.6327347755432129,0.37574243545532227,0.16286449134349823
1772031824714448400,1.200448486328125,-0.6855213046073914,0.4043178856372833,0.15017080307006836
1772031824724397300,1.210397216796875,-0.6985747218132019,0.3568301200866699,0.11721973121166229
1772031824734346500,1.220346435546875,-0.6766515374183655,0.2416449338197708,0.12354899942874908
1772031824744294400,1.23029443359375,-0.6326388120651245,0.06220778822898865,0.2359064370393753
1772031824754243300,1.240243408203125,-0.5839330554008484,-0.22696569561958313,0.47368597984313965
1772031824764192300,1.250192138671875,-0.5582168102264404,-0.616700291633606,0.7290899753570557
1772031824774140400,1.260140380859375,-0.5294488072395325,-0.8694643378257751,0.8700007796287537
1772031824784089300,1.27008935546875,-0.4700821042060852,-0.8277429938316345,0.8503462672233582
1772031824794038300,1.280038330078125,-0.3831844627857208,-0.5430518388748169,0.7058082818984985
1772031824803987500,1.289987548828125,-0.32202795147895813,-0.19092051684856415,0.5192609429359436
1772031824813935400,1.299935302734375,-0.2881552278995514,0.18170630931854248,0.32284027338027954
1772031824823884500,1.309884521484375,-0.26352041959762573,0.4747020900249481,0.12940622866153717
1772031824833833500,1.31983349609375,-0.23872186243534088,0.6508734226226807,-0.05455880984663963
1772031824843781400,1.329781494140625,-0.22068938612937927,0.7026445865631104,-0.19338595867156982
1772031824853730600,1.33973046875,-0.22062920033931732,0.6274164319038391,-0.26406997442245483
1772031824863679500,1.349679443359375,-0.25054922699928284,0.412008672952652,-0.2584436237812042
1772031824873628400,1.35962841796875,-0.3061743974685669,0.14454980194568634,-0.21452277898788452
1772031824883576300,1.369576416015625,-0.379972904920578,-0.10172436386346817,-0.16475647687911987
1772031824893525200,1.379525146484375,-0.43276822566986084,-0.28369683027267456,-0.13088291883468628
1772031824903474400,1.389474365234375,-0.4566788971424103,-0.39493247866630554,-0.1265934407711029
1772031824913422300,1.39942236328125,-0.45535343885421753,-0.4544709026813507,-0.16107605397701263
1772031824923371300,1.409371337890625,-0.43756359815597534,-0.5013715624809265,-0.23322196304798126
1772031824933320200,1.4193203125,-0.4166386127471924,-0.5509572625160217,-0.33766475319862366
1772031824943269400,1.429269287109375,-0.39923399686813354,-0.6041594743728638,-0.4486234188079834
1772031824953217500,1.439217529296875,-0.3860854208469391,-0.6352585554122925,-0.5403410792350769
1772031824963166500,1.44916650390625,-0.38066795468330383,-0.6485111713409424,-0.5712729692459106
1772031824973115400,1.459115478515625,-0.4040590226650238,-0.6581382751464844,-0.509079098701477
1772031824983063600,1.4690634765625,-0.43185827136039734,-0.6673895120620728,-0.3469907343387604
1772031824993012500,1.479012451171875,-0.4519059956073761,-0.688819169998169,-0.10708758980035782
1772031825002961400,1.48896142578125,-0.4520778954029083,-0.7306082248687744,0.15661445260047913
1772031825012910300,1.498910400390625,-0.42359113693237305,-0.751109778881073,0.39338919520378113
1772031825022858500,1.5088583984375,-0.3663702607154846,-0.7312837243080139,0.5688357949256897
1772031825032807400,1.518807373046875,-0.2662942409515381,-0.6536105275154114,0.6696335077285767
1772031825042756400,1.52875634765625,-0.15085773169994354,-0.5194019079208374,0.6940281391143799
1772031825052704300,1.538704345703125,-0.035773225128650665,-0.3470748960971832,0.6631445288658142
1772031825062653200,1.548653076171875,0.06470493972301483,-0.1626901924610138,0.5996015071868896
1772031825072602600,1.5586025390625,0.15617519617080688,0.0026180660352110863,0.5074657201766968
1772031825082551600,1.568551513671875,0.22606612741947174,0.14198119938373566,0.39099135994911194
1772031825092499500,1.57849951171875,0.28350386023521423,0.23548690974712372,0.24566827714443207
1772031825102448400,1.588448486328125,0.3413698673248291,0.2739435136318207,0.09326183795928955
1772031825112397300,1.598397216796875,0.4050622880458832,0.27871987223625183,-0.04912113770842552
1772031825122345500,1.608345458984375,0.4669914245605469,0.28433957695961,-0.14533361792564392
1772031825132294400,1.61829443359375,0.5295310020446777,0.2860133945941925,-0.18785497546195984
1772031825142243300,1.628243408203125,0.5818542242050171,0.26673680543899536,-0.18537810444831848
1772031825152192300,1.638192138671875,0.6324827671051025,0.2865501940250397,-0.1505141258239746
1772031825162140400,1.648140380859375,0.6879829168319702,0.3535940647125244,-0.07615584135055542
1772031825172089300,1.65808935546875,0.7433292269706726,0.4296848475933075,0.025953218340873718
1772031825182039300,1.668039306640625,0.7911900877952576,0.47749006748199463,0.14240244030952454
1772031825191987200,1.6779873046875,0.8321042656898499,0.49343493580818176,0.248223677277565
1772031825201936100,1.68793603515625,0.8604984283447266,0.46145907044410706,0.32255223393440247
1772031825211885300,1.69788525390625,0.8667171597480774,0.4089127779006958,0.3635273575782776
1772031825221834200,1.707834228515625,0.8577045798301697,0.39248883724212646,0.36061224341392517
1772031825231782100,1.7177822265625,0.8572699427604675,0.4142732322216034,0.32120463252067566
1772031825241731000,1.72773095703125,0.8760818243026733,0.4915424585342407,0.24783851206302643
1772031825251680300,1.73768017578125,0.9199182391166687,0.5982729196548462,0.13519185781478882
1772031825261628400,1.74762841796875,0.9716281294822693,0.7051557898521423,-0.007612076122313738
1772031825271577300,1.757577392578125,0.9962126016616821,0.7738962769508362,-0.1641809195280075
1772031825281526300,1.7675263671875,0.9774501919746399,0.7897121906280518,-0.2973136305809021
1772031825291474400,1.777474365234375,0.9138616323471069,0.6942019462585449,-0.34120145440101624
1772031825301423400,1.78742333984375,0.7993196249008179,0.42020565271377563,-0.28043079376220703
1772031825311372300,1.797372314453125,0.6601939797401428,0.05529265105724335,-0.15561136603355408
1772031825321321200,1.8073212890625,0.5637062191963196,-0.1880883276462555,-0.08726446330547333
1772031825331269400,1.817269287109375,0.531315267086029,-0.14357411861419678,-0.12518948316574097
1772031825341218300,1.82721826171875,0.5416494607925415,0.12037715315818787,-0.26952821016311646
1772031825351167200,1.837167236328125,0.5340030193328857,0.4819957911968231,-0.4652383029460907
1772031825361116200,1.8471162109375,0.5165708065032959,0.8204880952835083,-0.6698775291442871
1772031825371064000,1.85706396484375,0.5037975311279297,1.0218732357025146,-0.8649444580078125
1772031825381013200,1.86701318359375,0.4666610360145569,1.0410003662109375,-1.021176815032959
1772031825390962400,1.87696240234375,0.40107885003089905,0.8657169938087463,-1.110756516456604
1772031825400910300,1.886910400390625,0.3258398175239563,0.6044849157333374,-1.1260809898376465
1772031825410859300,1.896859375,0.24227435886859894,0.32055115699768066,-1.063706874847412
1772031825420808200,1.90680810546875,0.16105061769485474,-0.006342586595565081,-0.9395420551300049
1772031825430756400,1.91675634765625,0.08267965167760849,-0.3771555423736572,-0.7833929657936096
1772031825440705300,1.926705322265625,-0.055393658578395844,-0.7096858024597168,-0.6019068956375122
1772031825450654200,1.936654296875,-0.24875247478485107,-0.9124794006347656,-0.4205448031425476
1772031825460603100,1.94660302734375,-0.36163419485092163,-0.9494653344154358,-0.2844177186489105
1772031825470551300,1.95655126953125,-0.4225044846534729,-0.8560312390327454,-0.15873488783836365
1772031825480500200,1.966500244140625,-0.448085755109787,-0.6719132661819458,-0.008308500051498413
1772031825490449200,1.97644921875,-0.4470388889312744,-0.429766446352005,0.1599191278219223
1772031825500397300,1.986397216796875,-0.42542216181755066,-0.15374375879764557,0.32686397433280945
1772031825510346200,1.99634619140625,-0.37516993284225464,0.12429451942443848,0.44339218735694885
1772031825520295400,2.00629541015625,-0.29555511474609375,0.3284224271774292,0.4812660813331604
1772031825530244400,2.016244384765625,-0.21331539750099182,0.4164840877056122,0.4376264810562134
1772031825540192300,2.026192138671875,-0.15120352804660797,0.4149629771709442,0.35519400238990784
1772031825550141400,2.036141357421875,-0.09530352056026459,0.35351666808128357,0.23783300817012787
1772031825560090400,2.04609033203125,-0.050530195236206055,0.2602662444114685,0.10659010708332062
1772031825570038300,2.056038330078125,-0.008290059864521027,0.14942386746406555,-0.016060978174209595
1772031825579987200,2.0659873046875,0.047052353620529175,0.0222017839550972,-0.09945851564407349
1772031825589936400,2.075936279296875,0.12199797481298447,-0.0873689204454422,-0.14455382525920868
1772031825599885300,2.08588525390625,0.2079160213470459,-0.1594981700181961,-0.16045284271240234
1772031825609833200,2.095833251953125,0.2938844561576843,-0.16758085787296295,-0.18929913640022278
1772031825619782100,2.1057822265625,0.37250542640686035,-0.1305040717124939,-0.224522665143013
1772031825629731000,2.11573095703125,0.4594062268733978,-0.07230627536773682,-0.2561737895011902
1772031825639679200,2.12567919921875,0.5528309941291809,-0.013885706663131714,-0.27839452028274536
1772031825649628200,2.135628173828125,0.6225137114524841,0.02916642278432846,-0.2917444109916687
1772031825659577300,2.145577392578125,0.6516706943511963,0.05138987675309181,-0.3140052556991577
1772031825669526300,2.1555263671875,0.6421501636505127,0.03295494243502617,-0.3701191246509552
1772031825679474400,2.165474365234375,0.6034603714942932,-0.014850080013275146,-0.45363757014274597
1772031825689423400,2.17542333984375,0.5354350209236145,-0.054917871952056885,-0.5490879416465759
1772031825699372300,2.185372314453125,0.45217832922935486,-0.08219465613365173,-0.635664701461792
1772031825709320200,2.1953203125,0.3507275879383087,-0.08211742341518402,-0.6903295516967773
1772031825719269400,2.205269287109375,0.2408222258090973,-0.0684814453125,-0.6915678977966309
1772031825729218300,2.21521826171875,0.13286912441253662,-0.04061120003461838,-0.644637942314148
1772031825739167200,2.225167236328125,0.042727939784526825,-0.0058509730733931065,-0.5464285612106323
1772031825749115100,2.235115234375,-0.02842959202826023,0.016213316470384598,-0.4156961143016815
1772031825759064300,2.245064208984375,-0.08388590812683105,0.02092263288795948,-0.2743298411369324
1772031825769013200,2.25501318359375,-0.1343645304441452,0.015231458470225334,-0.13030584156513214
1772031825778961200,2.264961181640625,-0.19130490720272064,0.014741900376975536,0.012184440158307552
1772031825788910300,2.274910400390625,-0.2398545891046524,0.0009099745657294989,0.12632699310779572
1772031825798859300,2.284859375,-0.27181777358055115,-0.01160678081214428,0.18954932689666748
1772031825808808400,2.294808349609375,-0.26590555906295776,-0.016344277188181877,0.2023780345916748
1772031825818756400,2.30475634765625,-0.2547587454319,-0.009624253027141094,0.1836264729499817
1772031825828705300,2.314705322265625,-0.24040991067886353,-0.013194487430155277,0.14476722478866577
1772031825838654200,2.324654296875,-0.22023870050907135,-0.03530357778072357,0.09568162262439728
1772031825848603100,2.33460302734375,-0.19551551342010498,-0.03016447275876999,0.044820308685302734
1772031825858551300,2.34455126953125,-0.1673423945903778,0.010119179263710976,0.007224812638014555
1772031825868500200,2.354500244140625,-0.1404532492160797,0.0623038224875927,-0.013405896723270416
1772031825878449200,2.36444921875,-0.13425429165363312,0.10744412243366241,0.012427685782313347
1772031825888397300,2.374397216796875,-0.1440877467393875,0.14536432921886444,0.08303926885128021
1772031825898346200,2.38434619140625,-0.17670756578445435,0.16071295738220215,0.18595057725906372
1772031825908295200,2.394295166015625,-0.20830810070037842,0.10145549476146698,0.32624325156211853
1772031825918244400,2.404244384765625,-0.2266797572374344,-0.06634320318698883,0.49811285734176636
1772031825928192300,2.414192138671875,-0.23613983392715454,-0.2993048131465912,0.6478570699691772
1772031825938141400,2.424141357421875,-0.23145107924938202,-0.4415639340877533,0.7344412207603455
1772031825948090400,2.43409033203125,-0.20355765521526337,-0.4088893532752991,0.7228798866271973
1772031825958038300,2.444038330078125,-0.12417525053024292,-0.2574736475944519,0.6253796815872192
1772031825967987200,2.4539873046875,-0.030324120074510574,-0.06835061311721802,0.46857625246047974
1772031825977936400,2.463936279296875,0.06035827100276947,0.15244753658771515,0.2844197452068329
1772031825987885300,2.47388525390625,0.14639727771282196,0.3844112455844879,0.10284651070833206
1772031825997833200,2.483833251953125,0.223779559135437,0.5562953352928162,-0.0644833967089653
1772031826007782100,2.4937822265625,0.30239179730415344,0.650159478187561,-0.20440773665905
1772031826017731000,2.50373095703125,0.37645643949508667,0.6508132815361023,-0.29036951065063477
1772031826027679200,2.51367919921875,0.4196965992450714,0.5081866383552551,-0.2828807234764099
1772031826037628200,2.523628173828125,0.4202144742012024,0.20098116993904114,-0.1594274342060089
1772031826047577300,2.533577392578125,0.4377090334892273,-0.19585220515727997,0.02727133221924305
1772031826057526300,2.5435263671875,0.4603860080242157,-0.5215296149253845,0.19556783139705658
1772031826067474400,2.553474365234375,0.35982024669647217,-0.7393394112586975,0.4319654405117035
1772031826077423400,2.56342333984375,0.25844499468803406,-0.8711725473403931,0.6641620397567749
1772031826087372300,2.573372314453125,0.20336468517780304,-0.864303708076477,0.7889319658279419
1772031826097320200,2.5833203125,0.15046079456806183,-0.7266931533813477,0.8105452656745911
1772031826107269400,2.593269287109375,0.10050228238105774,-0.5206702351570129,0.7455843687057495
1772031826117218300,2.60321826171875,0.05616810917854309,-0.285718709230423,0.5971733331680298
1772031826127167200,2.613167236328125,0.010604619979858398,-0.03777920454740524,0.37728625535964966
1772031826137115100,2.623115234375,-0.030513178557157516,0.2179071605205536,0.10031460970640182
1772031826147064300,2.633064208984375,-0.0540107823908329,0.4449475109577179,-0.2102227509021759
1772031826157013200,2.64301318359375,-0.05903797224164009,0.6190187931060791,-0.5043668150901794
1772031826166961200,2.652961181640625,-0.05844408646225929,0.7502018809318542,-0.7516346573829651
1772031826176910000,2.66291015625,-0.04329953342676163,0.8496459722518921,-0.9340099096298218
1772031826186858000,2.67285791015625,-0.02647661231458187,0.8972808718681335,-1.0644766092300415
1772031826196807000,2.682806884765625,-0.025118255987763405,0.8335482478141785,-1.1074419021606445
1772031826206754800,2.6927548828125,-0.0459500327706337,0.6308609247207642,-1.046183705329895
1772031826216704000,2.7027041015625,-0.10245741158723831,0.35622936487197876,-0.8806634545326233
1772031826226653000,2.71265283203125,-0.18733608722686768,0.09309972077608109,-0.6516254544258118
1772031826236600800,2.722600830078125,-0.26794788241386414,-0.09338632225990295,-0.4245796799659729
1772031826246549800,2.7325498046875,-0.3272207975387573,-0.20550860464572906,-0.22859658300876617
1772031826256498700,2.742498779296875,-0.3835563063621521,-0.27287477254867554,-0.07004210352897644
1772031826266448000,2.75244775390625,-0.4233362078666687,-0.3070897161960602,0.028976090252399445
1772031826276395800,2.762395751953125,-0.46003246307373047,-0.31740573048591614,0.06761661916971207
1772031826286345000,2.772344970703125,-0.49842140078544617,-0.3060731887817383,0.0757022425532341
1772031826296294000,2.7822939453125,-0.5274071097373962,-0.2826777696609497,0.051969245076179504
1772031826306242000,2.792241943359375,-0.5371185541152954,-0.2627999484539032,-0.010477622039616108
1772031826316191000,2.80219091796875,-0.5244719386100769,-0.22326534986495972,-0.11232446879148483
1772031826326140000,2.812139892578125,-0.5047054290771484,-0.15132269263267517,-0.2505989670753479
1772031826336088800,2.8220888671875,-0.46125954389572144,-0.04574929177761078,-0.4192107319831848
1772031826346037000,2.832037109375,-0.38860079646110535,0.04824963957071304,-0.6058511734008789
1772031826355986000,2.84198583984375,-0.2880638837814331,0.135808065533638,-0.7766481637954712
1772031826365934800,2.851934814453125,-0.17672137916088104,0.23553864657878876,-0.9009264707565308
1772031826375882800,2.8618828125,-0.07112525403499603,0.33047541975975037,-0.9571240544319153
1772031826385832000,2.87183203125,0.00989610143005848,0.3963358998298645,-0.9539806842803955
1772031826395780900,2.88178076171875,0.07106002420186996,0.4242585599422455,-0.8885970115661621
1772031826405730000,2.89172998046875,0.112748883664608,0.4178254306316376,-0.7752078771591187
1772031826415677700,2.901677734375,0.14099685847759247,0.40248504281044006,-0.6475014090538025
1772031826425627000,2.911626953125,0.1642100214958191,0.3870410919189453,-0.540469229221344
1772031826435576000,2.921576171875,0.17118528485298157,0.3594796061515808,-0.44812309741973877
1772031826445524000,2.93152392578125,0.1834227740764618,0.3109290897846222,-0.3820471167564392
1772031826455473000,2.941472900390625,0.19665983319282532,0.2489505410194397,-0.34664949774742126
1772031826465421800,2.951421875,0.1796603500843048,0.1564387083053589,-0.3170684278011322
1772031826475371000,2.96137109375,0.14174716174602509,0.07760356366634369,-0.26049360632896423
1772031826485319000,2.97131884765625,0.06453359872102737,0.0018310414161533117,-0.19130681455135345
1772031826495267800,2.981267822265625,-0.025852464139461517,-0.05563126876950264,-0.11856922507286072
1772031826505216800,2.991216796875,-0.1195528581738472,-0.07325420528650284,-0.035373397171497345
1772031826515165000,3.0011650390625,-0.21615689992904663,-0.05575390160083771,0.07242129743099213
1772031826525113900,3.01111376953125,-0.3086482286453247,-0.06092948839068413,0.22210188210010529
1772031826535062800,3.021062744140625,-0.3709544241428375,-0.07202457636594772,0.39829155802726746
1772031826545012000,3.031011962890625,-0.39723795652389526,-0.07000510394573212,0.5686712861061096
1772031826554960100,3.040960205078125,-0.36705029010772705,-0.06065118685364723,0.6930427551269531
1772031826564909000,3.050908935546875,-0.30172210931777954,-0.048091985285282135,0.7914851903915405
1772031826574858000,3.06085791015625,-0.21881002187728882,-0.06645036488771439,0.8686781525611877
1772031826584807000,3.070806884765625,-0.1403343826532364,-0.11650847643613815,0.9152304530143738
1772031826594754800,3.0807548828125,-0.10924088209867477,-0.20977139472961426,0.9227709770202637
1772031826604704000,3.0907041015625,-0.12235615402460098,-0.27807244658470154,0.865509569644928
1772031826614653000,3.10065283203125,-0.15151183307170868,-0.2541975677013397,0.7543767094612122
1772031826624600800,3.110600830078125,-0.17199261486530304,-0.13267487287521362,0.596423864364624
1772031826634549800,3.1205498046875,-0.18806450068950653,0.025908295065164566,0.4400334060192108
1772031826644499000,3.1304990234375,-0.21519091725349426,0.14098215103149414,0.3062857389450073
1772031826654447900,3.14044775390625,-0.24316126108169556,0.25930774211883545,0.17876607179641724
1772031826664395800,3.150395751953125,-0.21607264876365662,0.4509570598602295,0.012556057423353195
1772031826674344700,3.1603447265625,-0.12469305098056793,0.6677669882774353,-0.22309216856956482
1772031826684294000,3.1702939453125,0.014056310057640076,0.9133480191230774,-0.4973599314689636
1772031826694242000,3.180241943359375,0.14798587560653687,1.1464860439300537,-0.7128176093101501
1772031826704191000,3.19019091796875,0.2937380075454712,1.2565829753875732,-0.8357603549957275
1772031826714140000,3.200139892578125,0.4269096553325653,1.1538481712341309,-0.815166175365448
1772031826724088800,3.2100888671875,0.515576958656311,0.8016307950019836,-0.6383724808692932
1772031826734037000,3.220037109375,0.4981687068939209,0.25425636768341064,-0.3670842945575714
1772031826743986000,3.22998583984375,0.35901984572410583,-0.326021671295166,-0.05633174628019333
1772031826753934800,3.239934814453125,0.13759112358093262,-0.7128052711486816,0.24955828487873077
1772031826763882800,3.2498828125,-0.09621550887823105,-0.8444317579269409,0.531804621219635
1772031826773832000,3.25983203125,-0.31708061695098877,-0.8248624801635742,0.7924768924713135
1772031826783780900,3.26978076171875,-0.5188350081443787,-0.7327751517295837,1.0067037343978882
1772031826793729800,3.279729736328125,-0.6716475486755371,-0.5963784456253052,1.1312421560287476
1772031826803677700,3.289677734375,-0.7677341103553772,-0.46598583459854126,1.1525298357009888
1772031826813627000,3.299626953125,-0.7978336215019226,-0.3899646997451782,1.0775493383407593
1772031826823576000,3.309576171875,-0.7658402919769287,-0.3507784307003021,0.9258103966712952
1772031826833524000,3.31952392578125,-0.6757331490516663,-0.31927236914634705,0.7162930369377136
1772031826843473000,3.329472900390625,-0.537519097328186,-0.30483245849609375,0.485124796628952
1772031826853421800,3.339421875,-0.36855199933052063,-0.32159480452537537,0.2721683084964752
1772031826863371000,3.34937109375,-0.18343116343021393,-0.35159239172935486,0.07633622735738754
1772031826873319000,3.35931884765625,0.00042578158900141716,-0.38819873332977295,-0.08022329211235046
1772031826883267800,3.369267822265625,0.16861052811145782,-0.4133693277835846,-0.18485915660858154
1772031826893216800,3.379216796875,0.30657684803009033,-0.41534802317619324,-0.2481101155281067
1772031826903165000,3.3891650390625,0.4064754843711853,-0.39411118626594543,-0.2834888696670532
1772031826913113900,3.39911376953125,0.459928959608078,-0.37075260281562805,-0.3000420033931732
1772031826923062800,3.409062744140625,0.48348408937454224,-0.3511578440666199,-0.3108419179916382
1772031826933012000,3.419011962890625,0.4774971604347229,-0.32322317361831665,-0.31999242305755615
1772031826942959900,3.4289599609375,0.4605770409107208,-0.31411436200141907,-0.3429134488105774
1772031826952909000,3.438908935546875,0.44129905104637146,-0.3224857747554779,-0.390781432390213
1772031826962858000,3.44885791015625,0.4272865653038025,-0.3453870713710785,-0.4835665225982666
1772031826972807000,3.458806884765625,0.4207206964492798,-0.361700177192688,-0.5957314372062683
1772031826982755000,3.468755126953125,0.40988802909851074,-0.38080593943595886,-0.7017310857772827
1772031826992704000,3.4787041015625,0.3923098146915436,-0.3957699239253998,-0.7929596304893494
1772031827002653000,3.48865283203125,0.36334341764450073,-0.40814271569252014,-0.8702488541603088
1772031827012600800,3.498600830078125,0.30436843633651733,-0.39882558584213257,-0.9456032514572144
1772031827022549800,3.5085498046875,0.1925729513168335,-0.3262006342411041,-1.013108253479004
1772031827032499000,3.5184990234375,0.025945350527763367,-0.168777197599411,-1.0608874559402466
1772031827042448000,3.52844775390625,-0.17513182759284973,0.039572544395923615,-1.0675970315933228
1772031827052395800,3.538395751953125,-0.3825691044330597,0.2547842264175415,-1.0371748208999634
1772031827062344700,3.5483447265625,-0.5978811979293823,0.44411686062812805,-0.9700464010238647
1772031827072294000,3.5582939453125,-0.7926318049430847,0.561611533164978,-0.861911952495575
1772031827082242000,3.568241943359375,-0.9206715226173401,0.5773396492004395,-0.6994642019271851
1772031827092191000,3.57819091796875,-0.9447863101959229,0.4999772012233734,-0.5020152926445007
1772031827102140000,3.588139892578125,-0.8609411716461182,0.3258346915245056,-0.3037267029285431
1772031827112088800,3.5980888671875,-0.7129433155059814,0.11462149024009705,-0.12899625301361084
1772031827122037000,3.608037109375,-0.557631254196167,-0.011230183765292168,-0.00542745366692543
1772031827131986000,3.61798583984375,-0.4473075866699219,-0.02093222737312317,0.0650724396109581
1772031827141934800,3.627934814453125,-0.38447296619415283,0.06411076337099075,0.0862530916929245
1772031827151883000,3.637883056640625,-0.34934505820274353,0.211463063955307,0.08313233405351639
1772031827161832000,3.64783203125,-0.3369128704071045,0.3592914044857025,0.0911407321691513
1772031827171780900,3.65778076171875,-0.3656724691390991,0.45919743180274963,0.1262751817703247
1772031827181729800,3.667729736328125,-0.4300146996974945,0.5290864706039429,0.16800905764102936
1772031827191678000,3.677677978515625,-0.5323143601417542,0.5995758771896362,0.22826993465423584
1772031827201627100,3.687627197265625,-0.6472846269607544,0.6694729328155518,0.3123624324798584
1772031827211576000,3.697576171875,-0.760746955871582,0.7005675435066223,0.41562405228614807
1772031827221524000,3.70752392578125,-0.8547730445861816,0.6436387300491333,0.5410754680633545
1772031827231473000,3.717472900390625,-0.9196668267250061,0.48288699984550476,0.6980767250061035
1772031827241421800,3.727421875,-0.9594666957855225,0.2296328991651535,0.8773152232170105
1772031827251371000,3.73737109375,-0.9666025638580322,0.00826437771320343,1.0321539640426636
1772031827261319000,3.74731884765625,-0.9584040641784668,-0.09855927526950836,1.1306161880493164
1772031827271268000,3.75726806640625,-0.9180384278297424,-0.07964291423559189,1.162539005279541
1772031827281217000,3.767217041015625,-0.8510218262672424,-0.017573153600096703,1.1207212209701538
1772031827291166000,3.777166015625,-0.7847989797592163,0.07037624716758728,1.0283362865447998
1772031827301114000,3.787114013671875,-0.6982537508010864,0.246527299284935,0.9142899513244629
1772031827311063000,3.79706298828125,-0.525043249130249,0.5113603472709656,0.7788121700286865
1772031827321012000,3.807011962890625,-0.3175731897354126,0.7680983543395996,0.6477329730987549
1772031827330960100,3.816960205078125,-0.12576168775558472,0.921272873878479,0.556653618812561
1772031827340909000,3.826908935546875,0.04562124237418175,0.9436769485473633,0.5509611368179321
1772031827350858000,3.83685791015625,0.1739538311958313,0.8077636957168579,0.6562485098838806
1772031827360806000,3.846805908203125,0.2213442474603653,0.5414851307868958,0.8611478209495544
1772031827370755000,3.856755126953125,0.164804607629776,0.2630344331264496,1.1147946119308472
1772031827380704000,3.8667041015625,0.03721628710627556,0.05337575078010559,1.3351738452911377
1772031827390653200,3.876653076171875,-0.08033415675163269,-0.0322217158973217,1.4479498863220215
1772031827400600800,3.886600830078125,-0.16669701039791107,-0.02114509791135788,1.4523215293884277
1772031827410550000,3.896550048828125,-0.2063172608613968,0.03334113210439682,1.383163571357727
1772031827420499200,3.906499267578125,-0.1800832599401474,0.07689739763736725,1.2420365810394287
1772031827430448000,3.9164482421875,-0.11598677188158035,0.06576797366142273,1.0558855533599854
1772031827440396000,3.92639599609375,-0.021229099482297897,-0.004808992147445679,0.8504005074501038
1772031827450345000,3.936344970703125,0.09446018934249878,-0.10464362055063248,0.6531241536140442
1772031827460294000,3.9462939453125,0.20792177319526672,-0.21151867508888245,0.47400104999542236
1772031827470242000,3.956241943359375,0.31379175186157227,-0.3409717381000519,0.30554360151290894
1772031827480191000,3.96619091796875,0.3842531442642212,-0.47847980260849,0.1445872038602829
1772031827490140000,3.976139892578125,0.4225156009197235,-0.6152210831642151,0.006193523295223713
1772031827500088800,3.9860888671875,0.44189170002937317,-0.7606110572814941,-0.1195169985294342
1772031827510037000,3.996037109375,0.4470534920692444,-0.8947035670280457,-0.22161227464675903
1772031827519986000,4.00598583984375,0.4575391411781311,-1.0306036472320557,-0.29311949014663696
1772031827529935000,4.01593505859375,0.45542681217193604,-1.1686105728149414,-0.3265172839164734
1772031827539883300,4.02588330078125,0.4435073137283325,-1.2779394388198853,-0.33088886737823486
1772031827549832200,4.035832275390625,0.4269525408744812,-1.340562343597412,-0.3207477629184723
1772031827559781000,4.045781005859375,0.3987152874469757,-1.357447862625122,-0.3150424659252167
1772031827569730000,4.05572998046875,0.3766419291496277,-1.338012933731079,-0.32192423939704895
1772031827579678000,4.065677978515625,0.3566650152206421,-1.2966688871383667,-0.33753275871276855
1772031827589627100,4.075627197265625,0.3366433084011078,-1.2410236597061157,-0.3516358733177185
1772031827599576000,4.085576171875,0.32256877422332764,-1.1546062231063843,-0.37198349833488464
1772031827609524000,4.09552392578125,0.2744918167591095,-0.9941030144691467,-0.3805978000164032
1772031827619473000,4.105472900390625,0.18732227385044098,-0.7842986583709717,-0.37526723742485046
1772031827629421800,4.115421875,0.06852962076663971,-0.5200753808021545,-0.35560816526412964
1772031827639371000,4.12537109375,-0.06610089540481567,-0.23034663498401642,-0.33135315775871277
1772031827649319000,4.13531884765625,-0.18775014579296112,0.033856600522994995,-0.3189994692802429
1772031827659267800,4.145267822265625,-0.28832924365997314,0.24742774665355682,-0.3159078061580658
1772031827669217000,4.155217041015625,-0.3809538781642914,0.38425150513648987,-0.33312559127807617
1772031827679166000,4.165166015625,-0.45293113589286804,0.44529569149017334,-0.3596850335597992
1772031827689114000,4.175114013671875,-0.5040461421012878,0.44123250246047974,-0.3839179277420044
1772031827699063000,4.18506298828125,-0.5262771248817444,0.3958687484264374,-0.4053904414176941
1772031827709012000,4.195011962890625,-0.5045319199562073,0.3397855758666992,-0.43766263127326965
1772031827718960000,4.204960205078125,-0.44671332836151123,0.30079397559165955,-0.4599900543689728
1772031827728909000,4.214908935546875,-0.3608015179634094,0.24257853627204895,-0.4644443988800049
1772031827738858000,4.22485791015625,-0.26844310760498047,0.18255779147148132,-0.44337642192840576
1772031827748807000,4.234806884765625,-0.19405917823314667,0.1292841136455536,-0.40359288454055786
1772031827758755000,4.244755126953125,-0.14352542161941528,0.08752255141735077,-0.3472158908843994
1772031827768704000,4.2547041015625,-0.10889256000518799,0.05712041258811951,-0.29042574763298035
1772031827778653000,4.26465283203125,-0.07204293459653854,0.04036806523799896,-0.22727687656879425
1772031827788600800,4.274600830078125,-0.02183852717280388,0.0705924928188324,-0.1724260002374649
1772031827798550000,4.284550048828125,0.049114473164081573,0.17822495102882385,-0.11412673443555832
1772031827808499200,4.294499267578125,0.13503766059875488,0.3279913365840912,-0.04673217982053757
1772031827818448100,4.3044482421875,0.23221507668495178,0.499517023563385,0.012480543926358223
1772031827828396000,4.31439599609375,0.33165937662124634,0.6579592823982239,0.03244193643331528
1772031827838345000,4.324344970703125,0.4270074665546417,0.7412893772125244,0.011630397289991379
1772031827848294100,4.334294189453125,0.5028366446495056,0.72173011302948,-0.04161505773663521
1772031827858242000,4.344241943359375,0.5422093868255615,0.6214455962181091,-0.09212163835763931
1772031827868191000,4.35419091796875,0.5310395359992981,0.48923033475875854,-0.11817820370197296
1772031827878140000,4.364139892578125,0.49055469036102295,0.3757844567298889,-0.11256586015224457
1772031827888088800,4.3740888671875,0.44575226306915283,0.30033794045448303,-0.09124287962913513
1772031827898037000,4.384037109375,0.41640475392341614,0.19636228680610657,-0.07193203270435333
1772031827907986000,4.39398583984375,0.37342047691345215,0.09421046823263168,-0.07325678318738937
1772031827917935000,4.40393505859375,0.3226696848869324,0.029989933595061302,-0.12045571953058243
1772031827927884000,4.413884033203125,0.3447909355163574,0.07174573838710785,-0.2404087483882904
1772031827937832200,4.423832275390625,0.472517192363739,0.21302670240402222,-0.427562952041626
1772031827947781000,4.433781005859375,0.6524181962013245,0.3875706195831299,-0.6248296499252319
1772031827957730000,4.44372998046875,0.8234671950340271,0.48830947279930115,-0.7420740127563477
1772031827967678000,4.453677978515625,0.9805189967155457,0.49151578545570374,-0.7541896104812622
1772031827977627100,4.463627197265625,1.0945560932159424,0.3963887393474579,-0.6449997425079346
1772031827987576000,4.473576171875,1.136810541152954,0.22478052973747253,-0.435494601726532
1772031827997525000,4.48352490234375,1.0916496515274048,0.026199527084827423,-0.17510399222373962
1772031828007473000,4.493472900390625,0.9597486853599548,-0.14864397048950195,0.07346975803375244
1772031828017422000,4.503422119140625,0.7743447422981262,-0.287732869386673,0.2895336151123047
1772031828027371000,4.51337109375,0.5653080940246582,-0.36427798867225647,0.4826119542121887
1772031828037319000,4.52331884765625,0.37192556262016296,-0.3888232707977295,0.649568498134613
1772031828047267800,4.533267822265625,0.20724789798259735,-0.3843610882759094,0.7811568975448608
1772031828057217000,4.543217041015625,0.07268635183572769,-0.3765910267829895,0.865796685218811
1772031828067166200,4.553166259765625,-0.027407757937908173,-0.34372949600219727,0.9043845534324646
1772031828077114000,4.563114013671875,-0.09135264903306961,-0.2675604224205017,0.8943939805030823
1772031828087063000,4.57306298828125,-0.11752744764089584,-0.16761310398578644,0.8288364410400391
1772031828097012000,4.583011962890625,-0.10753846168518066,-0.07100240886211395,0.7142496705055237
1772031828106960100,4.592960205078125,-0.06787089258432388,0.01992161199450493,0.5596601366996765
1772031828116909000,4.602908935546875,0.005013436544686556,0.08673526346683502,0.37869226932525635
1772031828126858000,4.61285791015625,0.0924014300107956,0.13320550322532654,0.18575170636177063
1772031828136807000,4.622806884765625,0.1941853165626526,0.1591297835111618,-0.004111702553927898
1772031828146755000,4.632755126953125,0.3021657466888428,0.16573478281497955,-0.17104291915893555
1772031828156704000,4.6427041015625,0.4024049937725067,0.1472702920436859,-0.2976970076560974
1772031828166653000,4.65265283203125,0.48120325803756714,0.12528543174266815,-0.38272663950920105
1772031828176602000,4.66260205078125,0.5196774005889893,0.114535853266716,-0.42961692810058594
1772031828186550000,4.672550048828125,0.5211072564125061,0.09700137376785278,-0.4486221671104431
1772031828196499200,4.682499267578125,0.5014049410820007,0.06327217817306519,-0.46257179975509644
1772031828206448000,4.6924482421875,0.4799889624118805,0.051431287080049515,-0.4843321442604065
1772031828216396000,4.70239599609375,0.4679037928581238,0.08914484828710556,-0.4944135546684265
1772031828226345000,4.712344970703125,0.4607134461402893,0.13571427762508392,-0.4731723964214325
1772031828236294100,4.722294189453125,0.45127788186073303,0.17648114264011383,-0.44225043058395386
1772031828246243000,4.7322431640625,0.42786359786987305,0.23721064627170563,-0.4371379613876343
1772031828256191000,4.74219091796875,0.39178603887557983,0.3009946644306183,-0.46860215067863464
1772031828266140000,4.752139892578125,0.3499680757522583,0.34430980682373047,-0.52849280834198
1772031828276088800,4.7620888671875,0.2942054867744446,0.3530106246471405,-0.583422064781189
1772031828286037000,4.772037109375,0.2326974719762802,0.36187395453453064,-0.6040969491004944
1772031828295986000,4.78198583984375,0.15594278275966644,0.35534337162971497,-0.5721201300621033
1772031828305934800,4.791934814453125,0.07056426256895065,0.3328922688961029,-0.4855465888977051
1772031828315884000,4.801884033203125,-0.023829085752367973,0.30320948362350464,-0.3649599850177765
1772031828325832200,4.811832275390625,-0.11747346818447113,0.2645101249217987,-0.23202913999557495
1772031828335781000,4.821781005859375,-0.1916704624891281,0.19208866357803345,-0.08964189887046814
1772031828345730000,4.83172998046875,-0.25523218512535095,0.08720279484987259,0.055707357823848724
1772031828355678200,4.84167822265625,-0.30577871203422546,-0.002411510329693556,0.1727069467306137
1772031828365627100,4.851627197265625,-0.3405471444129944,-0.0556197389960289,0.23319491744041443
1772031828375576000,4.861576171875,-0.36880993843078613,-0.07426292449235916,0.23698832094669342
1772031828385525000,4.87152490234375,-0.3863716423511505,-0.08376989513635635,0.2219226062297821
1772031828395473000,4.881472900390625,-0.38977915048599243,-0.08634969592094421,0.2110379934310913
1772031828405422000,4.891422119140625,-0.38543829321861267,-0.04580388963222504,0.19755472242832184
1772031828415371000,4.90137109375,-0.36940792202949524,0.00421453732997179,0.19005899131298065
1772031828425319000,4.91131884765625,-0.3525983393192291,0.03215775638818741,0.18398351967334747
1772031828435267800,4.921267822265625,-0.32594913244247437,0.04222583770751953,0.16725167632102966
1772031828445217000,4.931217041015625,-0.29620060324668884,0.045955728739500046,0.1313159167766571
1772031828455166200,4.941166259765625,-0.27455711364746094,0.07930169999599457,0.09150484204292297
1772031828465114000,4.951114013671875,-0.2568882405757904,0.13583296537399292,0.06986002624034882
1772031828475063000,4.96106298828125,-0.2580123543739319,0.19528749585151672,0.07945140451192856
1772031828485012000,4.971011962890625,-0.26608455181121826,0.2564619779586792,0.12021645158529282
1772031828494961000,4.9809609375,-0.2812562882900238,0.2925283908843994,0.19859248399734497
1772031828504909000,4.990908935546875,-0.3072104752063751,0.23360572755336761,0.32045111060142517
1772031828514858000,5.00085791015625,-0.35723555088043213,0.04668803513050079,0.45652851462364197
1772031828524807000,5.010806884765625,-0.4287051558494568,-0.1522800326347351,0.5539787411689758
1772031828534755000,5.020755126953125,-0.47193917632102966,-0.25365540385246277,0.5644468069076538
1772031828544704000,5.0307041015625,-0.47325366735458374,-0.2785395681858063,0.5133752822875977
1772031828554653000,5.04065283203125,-0.453957200050354,-0.28773173689842224,0.422908753156662
1772031828564602000,5.05060205078125,-0.3938705623149872,-0.20720279216766357,0.29505908489227295
1772031828574550000,5.060550048828125,-0.3003787100315094,-0.04625304415822029,0.14292146265506744
1772031828584499200,5.070499267578125,-0.19972483813762665,0.08379942923784256,0.011803122237324715
1772031828594448100,5.0804482421875,-0.08838526904582977,0.15113693475723267,-0.07011385262012482
1772031828604396000,5.09039599609375,0.014233220368623734,0.1533261239528656,-0.08289597928524017
1772031828614345000,5.100344970703125,0.08219362795352936,0.07501614093780518,-0.011321661993861198
1772031828624294100,5.110294189453125,0.09937106817960739,-0.07139170169830322,0.12518328428268433
1772031828634243000,5.1202431640625,0.05557085946202278,-0.20925264060497284,0.27141693234443665
1772031828644191000,5.13019091796875,-0.026994265615940094,-0.2982536852359772,0.3584066331386566
1772031828654140000,5.140139892578125,-0.12691473960876465,-0.2796669602394104,0.3701367974281311
1772031828664089000,5.150089111328125,-0.2129783034324646,-0.1997026950120926,0.33073315024375916
1772031828674038000,5.1600380859375,-0.26837044954299927,-0.0958748310804367,0.2326846420764923
1772031828683986000,5.16998583984375,-0.2914929687976837,0.02183237113058567,0.077952541410923
1772031828693934800,5.179934814453125,-0.2939406931400299,0.111680768430233,-0.12576676905155182
1772031828703884000,5.189884033203125,-0.2939099073410034,0.14558924734592438,-0.3429100811481476
1772031828713832000,5.19983203125,-0.27832773327827454,0.1461695432662964,-0.5446290969848633
1772031828723781000,5.209781005859375,-0.25164422392845154,0.1452750861644745,-0.694067656993866
1772031828733730000,5.21972998046875,-0.21037080883979797,0.1369899958372116,-0.7534971237182617
1772031828743679000,5.229678955078125,-0.16946721076965332,0.09225092828273773,-0.714318037033081
1772031828753627100,5.239627197265625,-0.14059294760227203,0.012879935093224049,-0.591193675994873
1772031828763576000,5.249576171875,-0.1328859180212021,-0.0748005211353302,-0.4007519483566284
1772031828773525000,5.25952490234375,-0.15232859551906586,-0.16059398651123047,-0.16544996201992035
1772031828783473000,5.269472900390625,-0.19528384506702423,-0.22817707061767578,0.07097306847572327
1772031828793422000,5.279422119140625,-0.24277013540267944,-0.26545625925064087,0.2702297270298004
1772031828803371000,5.28937109375,-0.30397510528564453,-0.2961614429950714,0.4209057688713074
1772031828813320000,5.29931982421875,-0.3729531168937683,-0.3403989374637604,0.5071136355400085
1772031828823267800,5.309267822265625,-0.4431155323982239,-0.38279274106025696,0.5301350355148315
1772031828833217000,5.319217041015625,-0.5064495205879211,-0.4221041798591614,0.5046445727348328
1772031828843166200,5.329166259765625,-0.5524508357048035,-0.4517463445663452,0.45348691940307617
1772031828853115100,5.339115234375,-0.5691949129104614,-0.46176597476005554,0.37659215927124023
1772031828863063000,5.34906298828125,-0.565987229347229,-0.4490315914154053,0.2904265522956848
1772031828873012000,5.359011962890625,-0.5307222008705139,-0.41302165389060974,0.18644556403160095
1772031828882961200,5.368961181640625,-0.46416768431663513,-0.33372172713279724,0.058738064020872116
1772031828892909000,5.378908935546875,-0.36757856607437134,-0.2174939215183258,-0.0881539136171341
1772031828902858000,5.38885791015625,-0.2390621453523636,-0.06991990655660629,-0.23386318981647491
1772031828912807000,5.398806884765625,-0.09877214580774307,0.06680624932050705,-0.3555408716201782
1772031828922755800,5.408755859375,0.033714983612298965,0.16397526860237122,-0.43840575218200684
1772031828932704000,5.4187041015625,0.1554344892501831,0.23754535615444183,-0.486324280500412
1772031828942653000,5.42865283203125,0.2588905692100525,0.3089205026626587,-0.5041462779045105
1772031828952601900,5.438601806640625,0.34587419033050537,0.32819750905036926,-0.48131635785102844
1772031828962550000,5.448550048828125,0.42637497186660767,0.29890984296798706,-0.41511592268943787
1772031828972499200,5.458499267578125,0.4835730195045471,0.2290782928466797,-0.32377058267593384
1772031828982448000,5.4684482421875,0.5194666981697083,0.1377304196357727,-0.20897117257118225
1772031828992397000,5.47839697265625,0.5230297446250916,0.024583088234066963,-0.07899453490972519
1772031829002345000,5.488344970703125,0.49935057759284973,-0.08294366300106049,0.061316315084695816
1772031829012294100,5.498294189453125,0.44743412733078003,-0.1566770076751709,0.18771101534366608
1772031829022243000,5.5082431640625,0.3881163001060486,-0.1804371029138565,0.29420438408851624
1772031829032191000,5.51819091796875,0.33010703325271606,-0.1339430958032608,0.3765341341495514
1772031829042140000,5.528139892578125,0.2782207727432251,-0.046027787029743195,0.4544089138507843
1772031829052089000,5.538089111328125,0.2346636950969696,0.057834699749946594,0.5224460363388062
1772031829062038000,5.5480380859375,0.1910441815853119,0.16878989338874817,0.5571430325508118
1772031829071986000,5.55798583984375,0.15674346685409546,0.2923840284347534,0.5558191537857056
1772031829081934800,5.567934814453125,0.1457512229681015,0.42976319789886475,0.5283288359642029
1772031829091884000,5.577884033203125,0.16353607177734375,0.551374077796936,0.48345378041267395
1772031829101832000,5.58783203125,0.20552727580070496,0.621347188949585,0.4325539171695709
1772031829111781000,5.597781005859375,0.2710655629634857,0.6425326466560364,0.3743270933628082
1772031829121730000,5.60772998046875,0.340919554233551,0.6029146313667297,0.3161250650882721
1772031829131679000,5.617678955078125,0.4058644473552704,0.5054213404655457,0.2688283920288086
1772031829141627100,5.627627197265625,0.4458494484424591,0.368267685174942,0.21158002316951752
1772031829151576000,5.637576171875,0.45984703302383423,0.23640203475952148,0.1357174813747406
1772031829161525000,5.64752490234375,0.4354928135871887,0.11062300205230713,0.04782435670495033
1772031829171474000,5.657473876953125,0.33498698472976685,-0.052054326981306076,-0.030229700729250908
1772031829181422000,5.667422119140625,0.19070196151733398,-0.18612079322338104,-0.10053475946187973
1772031829191371800,5.677371826171875,0.06911773979663849,-0.1979936957359314,-0.1862422078847885
1772031829201320700,5.68732080078125,0.007535383105278015,-0.0005695940926671028,-0.3403105139732361
1772031829211268600,5.6972685546875,0.020784609019756317,0.42200136184692383,-0.5941803455352783
1772031829221217500,5.707217529296875,0.09919413924217224,0.9128422737121582,-0.8817886710166931
1772031829231166700,5.717166748046875,0.23719088733196259,1.2439818382263184,-1.1139254570007324
1772031829241115600,5.72711572265625,0.4424247741699219,1.3634204864501953,-1.2451086044311523
1772031829251063600,5.7370634765625,0.6693026423454285,1.2162959575653076,-1.2323185205459595
1772031829261012500,5.747012451171875,0.8227714896202087,0.7883226275444031,-1.0737251043319702
1772031829270961700,5.756961669921875,0.8477005958557129,0.21055643260478973,-0.8223878145217896
1772031829280910800,5.766910888671875,0.7295542359352112,-0.2995777428150177,-0.5542948246002197
1772031829290858800,5.776858642578125,0.5273446440696716,-0.6642467975616455,-0.29677483439445496
1772031829300807700,5.7868076171875,0.2950393855571747,-0.9056599736213684,-0.046355850994586945
1772031829310756600,5.796756591796875,0.07124197483062744,-0.9859244227409363,0.22031046450138092
1772031829320704800,5.806704833984375,-0.14144852757453918,-0.9086999297142029,0.4997237026691437
1772031829330653700,5.81665380859375,-0.33697542548179626,-0.7180900573730469,0.7532321214675903
1772031829340602600,5.8266025390625,-0.4905761778354645,-0.4909614324569702,0.9374082088470459
1772031829350551600,5.836551513671875,-0.5742931365966797,-0.3060317933559418,1.0181183815002441
1772031829360499700,5.846499755859375,-0.590195894241333,-0.19684596359729767,0.9661192893981934
1772031829370448600,5.85644873046875,-0.5369648933410645,-0.12150514125823975,0.7969909906387329
1772031829380397600,5.8663974609375,-0.4297272562980652,-0.030833641067147255,0.5473119020462036
1772031829390345500,5.876345458984375,-0.28175777196884155,0.031337857246398926,0.268170565366745
1772031829400294700,5.886294677734375,-0.09480038285255432,0.035728078335523605,-0.0042436495423316956
1772031829410243800,5.896243896484375,0.09303982555866241,0.005194935481995344,-0.23773682117462158
1772031829420192800,5.90619287109375,0.24653871357440948,-0.04670236259698868,-0.4102417230606079
1772031829430140700,5.916140625,0.34961238503456116,-0.11294849961996078,-0.52327561378479
1772031829440089600,5.926089599609375,0.41202425956726074,-0.15907259285449982,-0.5714185833930969
1772031829450038800,5.936038818359375,0.4353881776332855,-0.17276522517204285,-0.5635566711425781
1772031829459986700,5.945986572265625,0.426858514547348,-0.1581001579761505,-0.5019341707229614
1772031829469935600,5.955935546875,0.3985600173473358,-0.13300971686840057,-0.41182154417037964
1772031829479884500,5.965884521484375,0.3539072275161743,-0.11138401925563812,-0.3127283751964569
1772031829489833500,5.97583349609375,0.2997121512889862,-0.08729705959558487,-0.24151089787483215
1772031829499781600,5.98578173828125,0.24824468791484833,-0.06198559328913689,-0.21260887384414673
1772031829509730600,5.99573046875,0.19750213623046875,-0.04277408495545387,-0.2142573744058609
1772031829519679500,6.005679443359375,0.1536802500486374,-0.05649496987462044,-0.22667646408081055
1772031829529628700,6.015628662109375,0.11252002418041229,-0.06421281397342682,-0.26344725489616394
1772031829539576600,6.02557666015625,0.07561220973730087,-0.030367571860551834,-0.31907618045806885
1772031829549525800,6.03552587890625,0.042238809168338776,0.031370095908641815,-0.38389939069747925
1772031829559474700,6.045474609375,0.016822276636958122,0.07760777324438095,-0.4518496096134186
1772031829569422800,6.0554228515625,0.0010118884965777397,0.09518570452928543,-0.5098724365234375
1772031829579371800,6.065371826171875,-0.017507581040263176,0.11854656040668488,-0.5549449920654297
1772031829589320700,6.07532080078125,-0.03907252848148346,0.14578136801719666,-0.5793213844299316
1772031829599269600,6.08526953125,-0.07264394313097,0.1552070826292038,-0.5614762902259827
1772031829609217500,6.095217529296875,-0.10353368520736694,0.13745231926441193,-0.5027027130126953
1772031829619166700,6.105166748046875,-0.1381828933954239,0.11156613379716873,-0.4064939022064209
1772031829629115600,6.11511572265625,-0.17286257445812225,0.06568838655948639,-0.2937873303890228
1772031829639063600,6.1250634765625,-0.18432147800922394,-0.008742718026041985,-0.17996114492416382
1772031829649012500,6.135012451171875,-0.17704226076602936,-0.08960800617933273,-0.05805468186736107
1772031829658961400,6.14496142578125,-0.15530388057231903,-0.14073538780212402,0.06969190388917923
1772031829668910800,6.154910888671875,-0.1354558765888214,-0.15784381330013275,0.18144214153289795
1772031829678858800,6.164858642578125,-0.13202974200248718,-0.13410712778568268,0.23863159120082855
1772031829688807700,6.1748076171875,-0.14483848214149475,-0.08450228720903397,0.24207478761672974
1772031829698756600,6.184756591796875,-0.16059119999408722,-0.048723794519901276,0.21178030967712402
1772031829708705500,6.19470556640625,-0.17072798311710358,-0.023033875972032547,0.18267808854579926
1772031829718653700,6.20465380859375,-0.17743009328842163,0.01143430732190609,0.1486145257949829
1772031829728602600,6.2146025390625,-0.19292223453521729,0.05221635848283768,0.11538626253604889
1772031829738551600,6.224551513671875,-0.21802932024002075,0.08634195476770401,0.07912295311689377
1772031829748499700,6.234499755859375,-0.24110187590122223,0.13215073943138123,0.05536169931292534
1772031829758448600,6.24444873046875,-0.26442885398864746,0.17492592334747314,0.05487346649169922
1772031829768397600,6.2543974609375,-0.29508769512176514,0.1696360856294632,0.0659884363412857
1772031829778346500,6.264346435546875,-0.33838099241256714,0.16648156940937042,0.09235288947820663
1772031829788294700,6.274294677734375,-0.37962934374809265,0.13172359764575958,0.11659644544124603
1772031829798243800,6.284243896484375,-0.42657285928726196,0.06518234312534332,0.1615757793188095
1772031829808192800,6.29419287109375,-0.4734988212585449,-0.07489433884620667,0.21573008596897125
1772031829818140700,6.304140625,-0.521868109703064,-0.26194724440574646,0.25220850110054016
1772031829828089600,6.314089599609375,-0.5452395081520081,-0.38617706298828125,0.23284973204135895
1772031829838038800,6.324038818359375,-0.5481351613998413,-0.4145553410053253,0.14858576655387878
1772031829847987700,6.33398779296875,-0.5288288593292236,-0.37058335542678833,0.05135481432080269
1772031829857935600,6.343935546875,-0.47788190841674805,-0.19195958971977234,-0.03764473274350166
1772031829867884500,6.353884521484375,-0.3976576626300812,0.10992516577243805,-0.10346715897321701
1772031829877833700,6.363833740234375,-0.33724454045295715,0.374223530292511,-0.12637017667293549
1772031829887782700,6.37378271484375,-0.2909204661846161,0.5215391516685486,-0.10347818583250046
1772031829897730600,6.38373046875,-0.26668089628219604,0.4941268861293793,-0.006148240063339472
1772031829907679500,6.393679443359375,-0.28326094150543213,0.3161134719848633,0.18036384880542755
1772031829917628400,6.40362841796875,-0.33691129088401794,0.06466629356145859,0.3940516412258148
1772031829927576600,6.41357666015625,-0.4079146385192871,-0.10546069592237473,0.5550205707550049
1772031829937525800,6.42352587890625,-0.47025781869888306,-0.15954868495464325,0.6413256525993347
1772031829947474700,6.433474609375,-0.5107653141021729,-0.147739440202713,0.6738614439964294
1772031829957423600,6.443423583984375,-0.5323400497436523,-0.08811040222644806,0.6544780135154724
1772031829967371800,6.453371826171875,-0.527650773525238,0.016405615955591202,0.6010826826095581
1772031829977320700,6.46332080078125,-0.48934948444366455,0.10522709041833878,0.5260378122329712
1772031829987269600,6.47326953125,-0.4115236699581146,0.15950044989585876,0.4248075783252716
1772031829997217500,6.483217529296875,-0.3040708601474762,0.2069566696882248,0.3044893443584442
1772031830007166700,6.493166748046875,-0.19113337993621826,0.22563980519771576,0.18426598608493805
1772031830017115600,6.50311572265625,-0.08979279547929764,0.1762169897556305,0.07880337536334991
1772031830027064600,6.513064697265625,-0.03642038255929947,0.060931138694286346,0.006153672002255917
1772031830037012500,6.523012451171875,-0.02983350306749344,-0.06364797055721283,-0.02742697112262249
1772031830046961700,6.532961669921875,-0.047088656574487686,-0.1658710092306137,-0.06339109688997269
1772031830056910800,6.542910888671875,-0.0781916007399559,-0.23526552319526672,-0.13957218825817108
1772031830066859800,6.55285986328125,-0.1150449588894844,-0.3146500885486603,-0.24666641652584076
1772031830076807700,6.5628076171875,-0.15959656238555908,-0.41147580742836,-0.3354172110557556
1772031830086756600,6.572756591796875,-0.20764105021953583,-0.52791827917099,-0.3570695221424103
1772031830096705800,6.582705810546875,-0.256893128156662,-0.5791144371032715,-0.2890968918800354
1772031830106653700,6.59265380859375,-0.30875101685523987,-0.5732083320617676,-0.14273114502429962
1772031830116602600,6.6026025390625,-0.36539867520332336,-0.5175799131393433,0.048780061304569244
1772031830126551600,6.612551513671875,-0.41912102699279785,-0.4356568157672882,0.22227728366851807
1772031830136500500,6.62250048828125,-0.4571453928947449,-0.34896621108055115,0.33628207445144653
1772031830146448600,6.63244873046875,-0.4788384437561035,-0.2724192142486572,0.37441322207450867
1772031830156397600,6.6423974609375,-0.4802585244178772,-0.2045251727104187,0.34029456973075867
1772031830166346500,6.652346435546875,-0.45923206210136414,-0.1230178028345108,0.23499000072479248
1772031830176295700,6.662295654296875,-0.41950327157974243,-0.03004186600446701,0.08056281507015228
1772031830186243600,6.67224365234375,-0.3662722706794739,0.04908384382724762,-0.10263656824827194
1772031830196192800,6.68219287109375,-0.29646727442741394,0.09430504590272903,-0.28564825654029846
1772031830206141700,6.6921416015625,-0.21616420149803162,0.12134678661823273,-0.45269742608070374
1772031830216089600,6.702089599609375,-0.13450177013874054,0.13817128539085388,-0.5682553648948669
1772031830226038800,6.712038818359375,-0.05848636478185654,0.1564682573080063,-0.6264323592185974
1772031830235987700,6.72198779296875,-0.001378621906042099,0.17286325991153717,-0.6186944842338562
1772031830245937000,6.73193701171875,0.040773093700408936,0.18333959579467773,-0.5450609922409058
1772031830255884800,6.741884765625,0.07379826158285141,0.1474764198064804,-0.4125048518180847
1772031830265833700,6.751833740234375,0.09216582030057907,0.08755449205636978,-0.25545239448547363
1772031830275783000,6.761782958984375,0.10438467562198639,0.06706824898719788,-0.1031893864274025
1772031830285730800,6.771730712890625,0.10881298035383224,0.08674821257591248,0.017060324549674988
1772031830295679700,6.7816796875,0.09419670701026917,0.10651660710573196,0.11828166246414185
1772031830305628700,6.791628662109375,0.07284800708293915,0.11871708184480667,0.17878735065460205
1772031830315577900,6.801577880859375,0.057494211941957474,0.10834430158138275,0.2095395028591156
1772031830325525800,6.81152587890625,0.039566610008478165,0.10143207013607025,0.20851552486419678
1772031830335474700,6.821474609375,0.025747930631041527,0.09741081297397614,0.18051575124263763
1772031830345423600,6.831423583984375,0.04031834751367569,0.10705331712961197,0.12836414575576782
1772031830355371800,6.841371826171875,0.09420567750930786,0.12139158695936203,0.04505942389369011
1772031830365320700,6.85132080078125,0.18356432020664215,0.1344357579946518,-0.042398251593112946
1772031830375270000,6.861269775390625,0.28852182626724243,0.08912564069032669,-0.0881706178188324
1772031830385218800,6.87121875,0.3829444646835327,0.07023051381111145,-0.09201329201459885
1772031830395167000,6.8811669921875,0.46479520201683044,0.04173927754163742,-0.08050435036420822
1772031830405116000,6.891115966796875,0.5244289636611938,-0.006139296106994152,-0.04805559664964676
1772031830415064800,6.90106494140625,0.5564583539962769,-0.050341714173555374,0.015532379038631916
1772031830425013800,6.911013671875,0.5515813231468201,-0.12072586268186569,0.12423968315124512
1772031830434962000,6.9209619140625,0.4992518723011017,-0.16255299746990204,0.23709022998809814
1772031830444910800,6.930910888671875,0.4182784855365753,-0.11203788965940475,0.32818180322647095
1772031830454859800,6.94085986328125,0.3432926535606384,0.0003458671271800995,0.3488222360610962
1772031830464807700,6.9508076171875,0.2846527695655823,0.13125701248645782,0.29230996966362
1772031830474756600,6.960756591796875,0.23992200195789337,0.29126259684562683,0.19199198484420776
1772031830484705800,6.970705810546875,0.2519887685775757,0.45472636818885803,0.025843221694231033
1772031830494654700,6.98065478515625,0.34750890731811523,0.5709277391433716,-0.2316802591085434
1772031830504602600,6.9906025390625,0.4985886812210083,0.5841934680938721,-0.49658438563346863
1772031830514551800,7.0005517578125,0.6620307564735413,0.5003688931465149,-0.6847136616706848
1772031830524500700,7.010500732421875,0.8292748928070068,0.3948560953140259,-0.761433482170105
1772031830534450000,7.020449951171875,0.9525464773178101,0.2852232754230499,-0.7398536801338196
1772031830544397800,7.030397705078125,0.9932894110679626,0.14719271659851074,-0.6364926695823669
1772031830554346800,7.0403466796875,0.9270476698875427,-0.05986807495355606,-0.4725351333618164
1772031830564295700,7.050295654296875,0.7747926115989685,-0.2936573922634125,-0.2841726839542389
1772031830574243800,7.060243896484375,0.5719701647758484,-0.5072770714759827,-0.0972042828798294
1772031830584192800,7.07019287109375,0.3978239595890045,-0.6799755692481995,0.06903502345085144
1772031830594141700,7.0801416015625,0.30289721488952637,-0.7838701009750366,0.22179913520812988
1772031830604090600,7.090090576171875,0.2773553729057312,-0.8242984414100647,0.33577895164489746
1772031830614038800,7.100038818359375,0.2786678373813629,-0.8069590330123901,0.39806291460990906
1772031830623987700,7.10998779296875,0.28167641162872314,-0.7449225187301636,0.42761921882629395
1772031830633937000,7.11993701171875,0.2798401117324829,-0.6713271737098694,0.42226719856262207
1772031830643885800,7.1298857421875,0.2863118648529053,-0.5834833383560181,0.39397749304771423
1772031830653834000,7.139833984375,0.3148660361766815,-0.4163803160190582,0.42080846428871155
1772031830663783000,7.149782958984375,0.4354662299156189,-0.02527673728764057,0.4068436324596405
1772031830673731800,7.15973193359375,0.4898020029067993,0.32329419255256653,0.2904669940471649
1772031830683679700,7.1696796875,0.40009209513664246,0.3047386407852173,0.1434951275587082
1772031830693628700,7.179628662109375,0.28917673230171204,0.1369648277759552,-0.00471999729052186
1772031830703577900,7.189577880859375,0.2548171579837799,-0.0009405710734426975,-0.16551978886127472
1772031830713526800,7.19952685546875,0.2752090096473694,-0.14795811474323273,-0.3125216066837311
1772031830723474700,7.209474609375,0.30852141976356506,-0.29208919405937195,-0.40958264470100403
1772031830733423600,7.219423583984375,0.33387643098831177,-0.3546665608882904,-0.46259230375289917
1772031830743372800,7.229372802734375,0.34404462575912476,-0.2866869866847992,-0.46307459473609924
