time,seconds_elapsed,z,y,x
1772045290749952500,0.077952392578125,0.716747755396366,1.0615189319387077,-0.8871550293318927
1772045290759938800,0.087938720703125,0.5851490816742182,0.6463353717818856,-0.8312574932821094
1772045290769924600,0.097924560546875,0.7117395718455314,0.23321458937376735,-0.7983566558077931
1772045290779909600,0.10790966796875,1.150443708321452,-0.09756196408569812,-0.8647402222976088
1772045290789895700,0.117895751953125,1.8576158261209725,-0.3111123603075743,-0.9811774211145937
1772045290799881700,0.1278818359375,2.314383442553878,-0.3970265566974878,-0.9565521714892238
1772045290809866800,0.13786669921875,2.5553069988697765,-0.22094927430152891,-0.8208708315633236
1772045290819852000,0.14785205078125,2.624199917832017,0.26788258265107867,-0.6206019417189061
1772045290829838300,0.15783837890625,2.179379344302416,0.38914252544939515,-0.23173173040486872
1772045290839823400,0.1678232421875,1.6682821717888117,0.3924947584867477,0.0913154891778715
1772045290849809200,0.17780908203125,1.3165367723196744,0.35337153936624527,0.34745573945119973
1772045290859795200,0.187795166015625,1.024227896681428,0.16857026776671408,0.5893520863220095
1772045290869781200,0.19778125,0.697394820150733,-0.06162117439359426,0.6380925171587616
1772045290879766300,0.207766357421875,0.1328209089934826,-0.31112258944064375,0.4749699934039265
1772045290889752000,0.217751953125,1.1678916867285967,-0.43078737200200556,0.2546794022068381
1772045290899738000,0.227738037109375,1.8106249423652887,-0.4402110339075327,0.11644362855777143
1772045290909723400,0.237723388671875,2.2225825262129306,-0.4683770979449153,-0.0447030285468325
1772045290919709200,0.247709228515625,2.3250889609634875,-0.5280518144458533,0.006353826006129383
1772045290929695200,0.2576953125,2.2289380327194928,-0.8341907702550292,0.18307391808396203
1772045290939680000,0.267679931640625,2.151724444657564,-0.737453274294734,0.5481363519016653
1772045290949666300,0.277666259765625,1.9388544319152832,-0.4359796799480915,0.9265037277713417
1772045290959652000,0.287652099609375,1.913953214892745,-0.13907967712730168,0.939828123442456
1772045290969637000,0.29763720703125,2.0352783318817615,0.031473873411118986,0.8247730266336352
1772045290979623200,0.307623046875,2.8942981307059523,-0.33454087442904706,1.3852385526239872
1772045290989609200,0.317609130859375,3.2267630756437775,-1.22289373524338,1.8964152201145885
1772045290999594200,0.32759423828125,2.7390573001116514,-1.7778776880174874,2.189642379641533
1772045291009580000,0.337580078125,2.1397370697438713,-0.5819090768396854,1.2317490957416593
1772045291019566000,0.347566162109375,1.8838041603446005,0.5325462032556534,0.09951046780496835
1772045291029552000,0.35755224609375,1.3133815231591461,0.9385656292259693,-0.7345232121922075
1772045291039537200,0.367537109375,0.7879834380924701,0.623691578297317,-0.9257816971071063
1772045291049523200,0.377523193359375,0.45727147430181503,0.1272264499872923,-0.5272986579909921
1772045291059509200,0.38750927734375,0.3882698342680931,-0.155836166138947,-0.026236703409999607
1772045291069494300,0.397494384765625,0.5661737475693226,-0.10490385128110646,0.3598106325030327
1772045291079480000,0.40747998046875,0.8519219495177268,0.06149667123109102,0.586055675125122
1772045291089466000,0.417466064453125,0.9112900842875241,0.25408055953085423,0.8161217373400926
1772045291099451100,0.427451171875,0.7278507486909628,0.2953866756483912,1.1567761262133718
1772045291109437200,0.437437255859375,0.6538081918805837,0.19824761314988135,1.3894418495327234
1772045291119423200,0.44742333984375,0.7348451376229524,0.24479075313806534,1.4708824076399207
1772045291129408000,0.457407958984375,0.8425906420707702,0.39060967539250846,1.7152546431049704
1772045291139394300,0.467394287109375,0.9808195475876331,0.6414055141642689,2.0218577092945575
1772045291149380000,0.477380126953125,0.9378384839951992,0.6993050376862288,2.448984512962401
1772045291159365000,0.487365234375,0.8715688992738724,0.5793120460838079,2.8204063805431128
1772045291169351200,0.49735107421875,0.9407318673491477,0.6332523105859756,2.792682507315278
1772045291179337200,0.507337158203125,0.9420715915203094,0.4879629651635885,2.6182138291597363
1772045291189323300,0.5173232421875,0.8198767059594392,0.4083773872733116,2.6060277168035504
1772045291199308000,0.52730810546875,0.6937701999127864,0.5120519890204072,2.7550305297911164
1772045291209294000,0.537294189453125,0.6989759518623352,0.625478169453144,2.9004531462043524
1772045291219280100,0.547280029296875,0.7612766329526901,0.7409916775539517,2.943777324146032
1772045291229265200,0.55726513671875,0.6023562370628118,0.5325117164641618,2.8585721528083083
1772045291239251200,0.567251220703125,0.29399872842133046,0.1317632166340947,2.6923633534759284
1772045291249237000,0.577237060546875,-0.12523849104046822,-0.5970622223079204,2.0758499962449073
1772045291259222300,0.58722216796875,-0.5017231949687003,-1.389608438271284,1.1508172178089617
1772045291269208300,0.597208251953125,-0.969070073083043,-1.8696745127052068,-0.009769114342331886
1772045291279194000,0.607194091796875,-1.447455647084117,-1.935357821971178,-0.9362053298354148
1772045291289179100,0.61717919921875,-2.0664052915513516,-1.9445701792135834,-1.2655898444145917
1772045291299165200,0.627165283203125,-2.81392111017704,-1.8190777134120464,-1.0842571257084608
1772045291309151200,0.637151123046875,-3.293449424472451,-1.3003028458774089,-0.7408715583056211
1772045291319136300,0.64713623046875,-3.5475685624480247,-0.9178156866639852,-0.4996206697314977
1772045291329122000,0.6571220703125,-3.2518811502873897,-0.9566764554560184,-0.1476250948935747
1772045291339108400,0.6671083984375,-2.48859873047024,-1.0077478865236043,0.11082535028457641
1772045291349093000,0.677093017578125,-1.9510230086147784,-0.8575842130631208,0.11971534370481968
1772045291359079200,0.6870791015625,-1.556241308234632,-1.1393053514525293,0.04779284778833389
1772045291369065200,0.697065185546875,-0.9874415960758924,-1.3689055497214198,-0.23943010288774966
1772045291379051300,0.70705126953125,-0.5547422529727221,-1.4197306048125027,-0.6365180343836545
1772045291389036300,0.717036376953125,-0.41354163816869255,-1.2997748764805495,-0.6835930892914533
1772045291399022000,0.72702197265625,-0.40568683301508424,-1.190660129506141,-0.4057867862582206
1772045291409008400,0.73700830078125,-0.19735840922519562,-1.0424242092378437,-0.1508931567788124
1772045291418993200,0.7469931640625,0.23005554082095622,-0.8481281101927161,-0.011037526842951773
1772045291428979200,0.756979248046875,0.7739668954387307,-0.6288287950553,0.2168506068110466
1772045291438965000,0.766965087890625,0.983115549570322,-0.4164544568754732,0.2737912221729755
1772045291448950000,0.776949951171875,0.6533586945474147,-0.17668299320414663,0.22856734808981416
1772045291458936300,0.786936279296875,0.03633504970669746,0.013148673778027295,0.30471126109361646
1772045291468922000,0.796922119140625,-0.5702618936657905,0.38458179340511556,0.04446574919223785
1772045291478907100,0.8069072265625,-1.2004121465831994,0.7155657060049474,-0.7295838560938834
1772045291488893200,0.81689306640625,-1.7756306397430597,0.6857080356188118,-1.548206762599945
1772045291498879200,0.826879150390625,-1.9516442092530428,0.4992064994400367,-1.9915034875631332
1772045291508864300,0.8368642578125,-1.7583078951507807,0.5372546366749331,-2.119676278489828
1772045291518850000,0.84685009765625,-1.5139327370762825,0.6393949049942195,-2.141806277233362
1772045291528836400,0.85683642578125,-1.240857554218173,0.7025814290083945,-1.7736515947550535
1772045291538822100,0.866822265625,-0.9285936127226799,0.7477837488468736,-1.3435077813535927
1772045291548807200,0.87680712890625,-0.6411077002614736,0.8646219296801835,-1.0874871936708688
1772045291558793000,0.88679296875,-0.4709539626955986,0.9791425542861223,-0.941999695327878
1772045291568779300,0.896779296875,-0.48101482652612026,1.0250186817329376,-1.089161848884821
1772045291578764300,0.906764404296875,-0.6474836650341749,1.0382194510243832,-1.438473299205303
1772045291588750000,0.91675,-0.8532207571566104,1.0014144457183778,-1.8655939653933047
1772045291598736400,0.926736328125,-1.0449269858390091,0.9071624829635023,-2.4002000237882135
1772045291608721200,0.93672119140625,-1.2162871765851975,0.8810155036635696,-2.997342910116911
1772045291618707200,0.946707275390625,-1.2870108181059359,0.7942059658691286,-3.236725666731596
1772045291628693000,0.95669287109375,-1.2274877850353718,0.7420297884300351,-3.1700282119870185
1772045291638678000,0.966677978515625,-1.1313187366127968,0.70615651101619,-2.9594208834797144
1772045291648664300,0.976664306640625,-1.0151514407783746,0.5563128632903098,-2.693981310066581
1772045291658650000,0.986650146484375,-0.9271136763632297,0.33677316352576014,-2.507106739324331
1772045291668635100,0.99663525390625,-0.8936725945323705,0.06561433568298816,-2.553135500049591
1772045291678621000,1.006620849609375,-0.9288654884666204,-0.28367928671985865,-2.998151888412237
1772045291688607200,1.016607177734375,-1.1413275049299,-0.7306289812326431,-3.6845424994677303
1772045291698593000,1.026593017578125,-1.4227970066457987,-1.205702069684863,-4.276212507343292
1772045291708578000,1.036578125,-1.5802993524312972,-1.6404299960061908,-4.4399271517723795
1772045291718564400,1.046564453125,-1.544767435801029,-1.9257818921133876,-4.188793751609325
1772045291728550100,1.056550048828125,-1.3801461979210377,-1.9599799297913907,-3.7125650633811946
1772045291738535200,1.06653515625,-1.1934814705371857,-1.8300886445090174,-3.075295333847403
1772045291748521200,1.076521240234375,-0.9611725978314876,-1.6932307350844145,-2.3929028525173663
1772045291758507300,1.08650732421875,-0.6918436157643795,-1.5243997705549002,-1.7892706041693687
1772045291768492300,1.0964921875,-0.4016250269362703,-1.3400491653323172,-1.3099743450641632
1772045291778478000,1.10647802734375,-0.14625435452964156,-1.247673956234753,-1.1283055262714623
1772045291788464000,1.116464111328125,-0.040784430330991744,-1.2472794039592145,-0.9398457321643828
1772045291798449200,1.12644921875,0.05023322667777538,-1.2930413304418324,-0.6767664581418037
1772045291808435200,1.136435302734375,0.1846259880978614,-1.2759238991633057,-0.4304617933094501
1772045291818421200,1.146421142578125,0.31654497981555757,-1.1917857725352048,-0.24673311937749384
1772045291828406800,1.15640673828125,0.4366127536872402,-1.0736994913369418,-0.1484580385863781
1772045291838392000,1.16639208984375,0.5602578745890409,-0.9792144504785537,0.014909984362125395
1772045291848377900,1.1763779296875,0.7093892093271017,-0.8104518750101327,0.2205284185409546
1772045291858364000,1.186364013671875,0.8659563200891017,-0.5811687798663974,0.36097733819484706
1772045291868349000,1.196348876953125,0.9846756384938955,-0.388752941609919,0.5236158778250217
1772045291878335000,1.2063349609375,1.0579671577412635,-0.3052887687206268,0.6862246068388224
1772045291888321000,1.216321044921875,1.0961486390322446,-0.26273294480293985,0.7515472660988569
1772045291898305800,1.226305908203125,1.0695441252231597,-0.25255028122365475,0.6975415351450442
1772045291908291800,1.236291748046875,0.9978882443536072,-0.2699848156273365,0.5581880095124244
1772045291918278000,1.24627783203125,0.9021983577501028,-0.20223931313455104,0.3351233504921198
1772045291928263000,1.256262939453125,0.7576572734117507,-0.0339414325684309,0.049259997731447215
1772045291938249000,1.2662490234375,0.5985498305171728,0.24094927527904508,-0.24871523310542104
1772045291948235000,1.276235107421875,0.45290334222018713,0.5298664626523852,-0.553958993640542
1772045291958221000,1.286220947265625,0.3235457984883338,0.804397689537704,-0.8989034809231757
1772045291968205800,1.296205810546875,0.22443715294990688,1.031514254297316,-1.2087035895884037
1772045291978192000,1.30619189453125,0.08471651103794574,1.0443515240386128,-1.4599527250856161
1772045291988178000,1.316177978515625,-0.10581249055862427,0.796355837379396,-1.6558704339832067
1772045291998163000,1.326162841796875,-0.26818682629466056,0.3640820262119174,-1.8516724075466393
1772045292008149000,1.33614892578125,-0.35577805251870304,-0.05791705917865038,-2.054215087541938
1772045292018134800,1.346134765625,-0.3299894947350025,-0.2934638908922672,-2.404585691526532
1772045292028119800,1.356119873046875,-0.2553302855973132,-0.248821616089344,-2.9359061523795127
1772045292038105900,1.36610595703125,-0.220100548517704,-0.094212653657794,-3.270228123360872
1772045292048092000,1.376091796875,-0.35967268533706664,-0.02696399477124214,-3.342932125043869
1772045292058077700,1.38607763671875,-0.5561398448109627,-0.060714288681745526,-3.230609229677915
1772045292068063000,1.39606298828125,-0.6808207019686698,-0.12110475223660469,-3.1033927165627477
1772045292078049000,1.406049072265625,-0.7304279057025909,-0.19786358226835726,-2.9953052668094635
1772045292088034800,1.416034912109375,-0.8189467316329478,-0.38541795196831224,-2.8615806869745253
1772045292098019800,1.426019775390625,-0.8830068236112594,-0.6192050805330276,-2.7480326337277887
1772045292108006000,1.436005859375,-0.9412766417503357,-0.8464671912431716,-2.620404032680392
1772045292117992000,1.445991943359375,-1.0235048431038856,-1.0953934367507696,-2.4080630122482773
1772045292127977700,1.455977783203125,-1.0955272922635078,-1.3835580521911381,-2.0951970862716434
1772045292137962800,1.465962646484375,-1.1208441043496131,-1.6567431251645086,-1.8557354192018507
1772045292147949000,1.475948974609375,-1.1485399205267428,-1.9198913727700708,-1.6731389641702175
1772045292157934800,1.485934814453125,-0.9717232179403305,-2.2097604540407656,-1.3641647849351166
1772045292167919900,1.495919921875,-0.614021540415287,-2.3727789328992364,-1.1388947248250245
1772045292177906000,1.505906005859375,-0.2507002694427967,-2.49799842697829,-0.9757184250563382
1772045292187892000,1.51589208984375,0.0027086790033848955,-2.650110311897099,-0.9842927766561508
1772045292197877000,1.525876953125,0.15941665497422217,-2.8645661325260994,-1.1237865875422954
1772045292207862800,1.53586279296875,0.2987655226980336,-3.0372356523051858,-1.1905384028226136
1772045292217849000,1.54584912109375,0.40852121619079257,-3.0372280535206198,-1.232711072641611
1772045292227835000,1.5558349609375,0.5290770658403635,-2.8762705988451835,-1.1896902615606784
1772045292237820000,1.56581982421875,0.6921212636619806,-2.57322259478867,-0.9913701676964759
1772045292247806000,1.575805908203125,0.8295084576576948,-2.1481372338205573,-0.7539899830758571
1772045292257792000,1.5857919921875,0.849735837650299,-1.69810623216629,-0.4591074575573206
1772045292267777000,1.595777099609375,0.7515180400043725,-1.3273217857062816,-0.12981705100238322
1772045292277762800,1.6057626953125,0.5820043539077043,-1.01212011025846,0.15422493155002592
1772045292287748900,1.615748779296875,0.39845691829416896,-0.7426692553773522,0.34605566339492794
1772045292297735000,1.62573486328125,0.23217501719295977,-0.4850120064035058,0.4714192421197891
1772045292307720000,1.635719970703125,0.04626136390473693,-0.2384320317611098,0.5631774883627891
1772045292317706000,1.6457060546875,-0.12587972981976345,-0.010110182864964007,0.660803165334463
1772045292327692000,1.655692138671875,-0.2661637595018372,0.15146744953542948,0.8182002971798181
1772045292337677000,1.665677001953125,-0.3331529272019863,0.26936376111954446,1.0100152469336985
1772045292347662800,1.675662841796875,-0.3408504959672689,0.3655570672005415,1.1913181550234555
1772045292357649000,1.68564892578125,-0.33661972652971744,0.44611412047147747,1.396331609046459
1772045292367635000,1.695635009765625,-0.323440511482954,0.5037199217438697,1.6054408079504965
1772045292377620000,1.705619873046875,-0.26952479690015313,0.5859983919799328,1.7435498864799737
1772045292387606000,1.71560595703125,-0.24528874752176924,0.7583005397513508,1.8361960214734077
1772045292397591800,1.725591796875,-0.24534310805751008,0.9166387518391013,1.9417793794512748
1772045292407577000,1.7355771484375,-0.2771054795538075,1.0794558629065751,1.9920324798732996
1772045292417563000,1.74556298828125,-0.3045820817559957,1.2886007176458836,2.042109054684639
1772045292427549000,1.755548828125,-0.3468044359356165,1.4607383225053547,2.070184225568175
1772045292437534700,1.76553466796875,-0.36082189190480857,1.66407010705173,2.0965900019347665
1772045292447520000,1.77552001953125,-0.3568757115622982,1.8525676028206943,2.144934053865075
1772045292457506000,1.785506103515625,-0.329857977309823,1.9859828244455158,2.188515421438217
1772045292467491800,1.795491943359375,-0.32489308491144325,2.1039524935267866,2.227229475235939
1772045292477476900,1.805476806640625,-0.32589020619001235,2.196305636923015,2.2987860604494808
1772045292487463000,1.815462890625,-0.3396528106153011,2.247703669596463,2.422133623176813
1772045292497449000,1.825448974609375,-0.34466340531893075,2.2605320253789425,2.5221190150171515
1772045292507434800,1.835434814453125,-0.31927294347472485,2.259945749923587,2.5824726536929608
1772045292517419800,1.845419677734375,-0.27954174852371216,2.2940130008287727,2.641796364799142
1772045292527406000,1.855406005859375,-0.29134441452026366,2.287931488958001,2.6896996872246266
1772045292537391900,1.865391845703125,-0.2828992422580719,2.3089484118930996,2.6726865931034087
1772045292547378000,1.8753779296875,-0.25782555474545804,2.348735647880286,2.579436062476039
1772045292557363000,1.885363037109375,-0.1589724548706785,2.5096540857195855,2.478233111539483
1772045292567349000,1.895348876953125,-0.07138765838742256,2.720726985912025,2.3397125295996664
1772045292577334800,1.905334716796875,0.02050089970435947,2.9576193870157,2.2222394118636846
1772045292587319800,1.91531982421875,0.09755728791058063,3.221514069074392,2.0945330694049598
1772045292597306000,1.92530615234375,0.1693733825768344,3.480205337271094,1.9708435613721609
1772045292607292000,1.9352919921875,0.20105622256351632,3.6856180197447537,1.84753106995821
1772045292617278000,1.94527783203125,0.18065644514607265,3.7386084361761807,1.6937679107010364
1772045292627262700,1.9552626953125,0.11030454128086566,3.58698521155715,1.4983137276619671
1772045292637249000,1.9652490234375,0.028866029000282286,3.2684999843940137,1.3209399757146834
1772045292647234800,1.97523486328125,0.043851425819331775,2.9451380911052225,0.9821230314016342
1772045292657220900,1.985220947265625,0.16687690785229206,2.886100795724988,0.35122809759676454
1772045292667206000,1.995205810546875,0.25609949813783167,2.904823616373539,-0.17687690834105013
1772045292677192000,2.00519189453125,0.3083984251737594,2.827690984593332,-0.5209007736474275
1772045292687178000,2.015177978515625,0.28118308598995206,2.7031983434841034,-0.6856605432152748
1772045292697163800,2.025163818359375,0.1619476347565651,2.4949662196755407,-0.7639923216521739
1772045292707149000,2.035149169921875,0.09507540796697139,2.374981119118631,-0.9507540796697139
1772045292717134800,2.045134765625,0.06304595106628258,2.2419451060697435,-1.195440787911415
1772045292727121000,2.055120849609375,0.12564881627387367,1.918445850136876,-1.4859475825637578
1772045292737106000,2.06510595703125,0.18574644349515437,1.4714257207363843,-1.8432190519779919
1772045292747092000,2.075092041015625,0.18072189333140848,0.9327131038054823,-2.203500809124112
1772045292757078000,2.085078125,0.19573709163367747,0.36305619029551744,-2.5961276695579287
1772045292767063800,2.095063720703125,0.2635305249214172,-0.056204410041868685,-2.9964918462455272
1772045292777048800,2.105048828125,0.3531394841760397,-0.34617987429648633,-3.2481624220252034
1772045292787035000,2.115034912109375,0.3666887015789747,-0.5323343140706419,-3.2440041333019733
1772045292797021000,2.12502099609375,0.29624097265647725,-0.6590440467074513,-3.0518536679834125
1772045292807006700,2.1350068359375,0.17117372826337812,-0.7378112939521669,-2.764481664225459
1772045292816991700,2.14499169921875,0.03246083862185478,-0.7942138569146394,-2.4319407314419745
1772045292826978600,2.154978515625,-0.11953587721837684,-0.8339066926166415,-2.1529729834139344
1772045292836964600,2.164964599609375,-0.27567221361398697,-0.9114879449471831,-1.9600059410154818
1772045292846950700,2.17495068359375,-0.35669688439667224,-1.0174287380605935,-1.805377689361572
1772045292856935700,2.184935791015625,-0.37720483489632606,-1.1478323567792772,-1.6703619006723165
1772045292866921700,2.194921630859375,-0.3457096264362335,-1.3921180830046533,-1.5142986477792262
1772045292876907800,2.20490771484375,-0.23336919541358947,-1.6914739545449613,-1.285259590524435
1772045292886892800,2.214892822265625,-0.08049801656007766,-2.0103671779870984,-1.0058394225537777
1772045292896878600,2.224878662109375,0.04159925384521484,-2.3250793163523076,-0.724142541822791
1772045292906864600,2.23486474609375,0.14942193344878033,-2.558029701831937,-0.4561217197448015
1772045292916850700,2.2448505859375,0.25863223148584363,-2.7475135782897473,-0.1873924571365118
1772045292926835700,2.254835693359375,0.34698446867763993,-2.898661002090573,0.019470424145460127
1772045292936821800,2.26482177734375,0.4002244759559631,-3.003945084860921,0.1705956361144781
1772045292946807600,2.2748076171875,0.49721127050220965,-3.0484146334454416,0.27132395527660846
1772045292956793900,2.2847939453125,0.6478221032083035,-3.023386867433786,0.3925421047598123
1772045292966779000,2.29477880859375,0.8008014186114072,-2.941882888701558,0.529042579048872
1772045292976764700,2.3047646484375,0.9881073665082454,-2.8278362382829187,0.6714268506795168
1772045292986750700,2.314750732421875,1.1576380037397145,-2.7026246352493764,0.7735866639494895
1772045292996736800,2.32473681640625,1.2398925085783004,-2.582339967224002,0.8247603863477706
1772045293006721800,2.3347216796875,1.2759896578758954,-2.472505673803389,0.8365934474825859
1772045293016707600,2.34470751953125,1.219454700705409,-2.3505431356936692,0.756793350058794
1772045293026694000,2.35469384765625,1.0776438450485468,-2.1814970671087504,0.6504577124089003
1772045293036679700,2.3646796875,0.8817278897166252,-1.9754931407436727,0.46201019326150417
1772045293046664700,2.374664794921875,0.60034548176229,-1.7595754308685658,0.23214403753280638
1772045293056650800,2.384650634765625,0.3097475016951561,-1.6040677660316227,-0.03296761910021305
1772045293066636800,2.39463671875,0.06439794106397312,-1.4942138911277054,-0.395398078712821
1772045293076622800,2.404622802734375,-0.12395254288315773,-1.4376312954232096,-0.7707400423467159
1772045293086607600,2.414607666015625,-0.28419921894073485,-1.4416358548894523,-1.1069535261631012
1772045293096593700,2.42459375,-0.39765257964134215,-1.4796926138222217,-1.3905454268604516
1772045293106579700,2.434579833984375,-0.47046296430826184,-1.510326529277861,-1.5975357339143752
1772045293116564700,2.444564697265625,-0.527636219382286,-1.5396017236009238,-1.7535902189791202
1772045293126550800,2.45455078125,-0.5465268343457952,-1.4989301059946416,-1.9435849675685166
1772045293136536600,2.46453662109375,-0.5155705550679937,-1.3609700805470346,-2.141170901939273
1772045293146523000,2.47452294921875,-0.49642976473569866,-1.093217846277356,-2.3023504749327897
1772045293156507600,2.484507568359375,-0.4965794023394584,-0.6995815165400505,-2.370083702465892
1772045293166493700,2.49449365234375,-0.5149941799521446,-0.2360238015756011,-2.4235727160692213
1772045293176479700,2.504479736328125,-0.5709959800940007,0.21827625569999218,-2.4460738862127065
1772045293186465800,2.5144658203125,-0.5924047884235158,0.6665145287185907,-2.4208774856358763
1772045293196450800,2.524450927734375,-0.553356278507039,1.105206390234828,-2.408174071407318
1772045293206436600,2.5344365234375,-0.5324771566074341,1.4055556567266583,-2.3519980106770992
1772045293216423000,2.5444228515625,-0.560113424617052,1.5136702867478131,-2.1500971357166767
1772045293226408700,2.55440869140625,-0.5919277820289135,1.4041712166309357,-1.8519839577138424
1772045293236393700,2.564393798828125,-0.571845874921605,1.2499974307462571,-1.582459160813689
1772045293246379500,2.574379638671875,-0.4238017508983612,1.330834470002353,-1.564780880782008
1772045293256365800,2.58436572265625,-0.23408581925034522,1.7496365129172802,-1.611988037636876
1772045293266351600,2.5943515625,-0.14905311840269714,2.0970120267391206,-1.2803215496003626
1772045293276336600,2.604336669921875,-0.18944358098004013,2.298616549101472,-0.7024965272039174
1772045293286322700,2.61432275390625,-0.15849782309625296,2.4116829563111066,-0.08025310188829898
1772045293296308700,2.624308837890625,-0.03146835698578507,2.5739903642907738,0.505116344538331
1772045293306294800,2.634294677734375,0.07585103100445122,2.7618746965974568,1.1109978331178425
1772045293316279600,2.644279541015625,0.17383797903656958,2.9001056479409337,1.784572217220068
1772045293326265900,2.654265869140625,0.18068853905107826,2.983661298505962,2.374734158620238
1772045293336251600,2.664251708984375,0.10163546060230583,2.976687952362001,2.8141905747681855
1772045293346237700,2.67423779296875,0.025158954643271864,2.8809225163042544,3.055987406787276
1772045293356222700,2.68422265625,-0.08906363686416298,2.738699864976108,3.1220231827527285
1772045293366208800,2.694208740234375,-0.1949649016847834,2.556373751318455,3.038652241104841
1772045293376194800,2.70419482421875,-0.25026655420064925,2.4636636111781,2.8507915819346903
1772045293386180600,2.7141806640625,-0.3373603157639503,2.4456919011577964,2.550792736315727
1772045293396165600,2.72416552734375,-0.38931499593947083,2.4112694070741534,2.238195690408349
1772045293406151700,2.734151611328125,-0.4333972987720743,2.3228210160315035,1.9295178637713193
1772045293416137700,2.7441376953125,-0.4520049320757389,2.2185388037800786,1.6829209379941223
1772045293426123500,2.75412353515625,-0.3743558752059936,2.1365239529162645,1.5073498515546322
1772045293436108800,2.76410888671875,-0.20917115822434423,2.0832743010267616,1.3686375464349985
1772045293446094800,2.7740947265625,-0.0667406728317961,2.052425866037607,1.2923907575786113
1772045293456080600,2.78408056640625,0.02707154679894447,2.014545924976468,1.3473071736365556
1772045293466066700,2.794066650390625,0.04532030192865059,1.9918416334763167,1.5232798266142606
1772045293476051700,2.8040517578125,0.023677794441115108,1.9985411311149597,1.7606769623696803
1772045293486037800,2.814037841796875,0.011921890195738524,1.962170717833936,2.0608628549933434
1772045293496023600,2.8240234375,0.03077041958319023,1.9160648002192378,2.3819705396145583
1772045293506009900,2.834009765625,0.07670330958538689,1.8548212269663809,2.66462662076652
1772045293515995000,2.843994873046875,0.1298795948445797,1.7272037318348883,2.8209529085099696
1772045293525980700,2.853980712890625,0.18655249918103217,1.5509753505304456,2.885595184290409
1772045293535966700,2.863966796875,0.24742870042622087,1.3137430499479175,2.8722283377170563
1772045293545952800,2.873952880859375,0.3048860331386328,1.1079930983439088,2.7842344124436376
1772045293555937800,2.883937744140625,0.37396599910557266,0.9335741045489907,2.6714193496465684
1772045293565923600,2.893923583984375,0.430322092577815,0.7665767851874232,2.5551000781208275
1772045293575909600,2.90390966796875,0.4724819029152393,0.6174143977239728,2.401961772763729
1772045293585895700,2.913895751953125,0.5077192205131054,0.5383794394537806,2.196373149201274
1772045293595880700,2.923880615234375,0.527224131450057,0.5042801859751344,1.9100632217168807
1772045293605866800,2.93386669921875,0.5492506698191165,0.4823348961487412,1.5910381885886191
1772045293615852500,2.9438525390625,0.584429535228014,0.4418213917136192,1.2780793236315249
1772045293625838800,2.9538388671875,0.608926263102889,0.40551586036235093,0.9022709115296602
1772045293635823600,2.96382373046875,0.6317980201244354,0.3367074048131704,0.5411491964280605
1772045293645809700,2.9738095703125,0.63007368054986,0.2489808983042836,0.13924948073625565
1772045293655795700,2.983795654296875,0.581887449529767,0.13360066119432448,-0.20513795718550681
1772045293665781800,2.99378173828125,0.5403039777755737,-0.055988136942684646,-0.4369856421202421
1772045293675766800,3.003766845703125,0.4967950909167528,-0.30721038443297144,-0.6600432868778705
1772045293685752600,3.013752685546875,0.5047282220035791,-0.5340478399902582,-0.8662497500777244
1772045293695739000,3.02373876953125,0.5612918207466602,-0.7558858798250555,-1.0837409928798676
1772045293705724700,3.033724609375,0.6000818623900414,-0.9904191505819558,-1.2865782719075678
1772045293715709700,3.043709716796875,0.618540479144454,-1.3277996323511003,-1.405349028238654
1772045293725695500,3.053695556640625,0.6499994472473859,-1.6551277989223598,-1.4915022940814495
1772045293735681800,3.063681884765625,0.666601622480154,-1.9343606276273726,-1.564730611899495
1772045293745667600,3.07366748046875,0.6885889978826045,-2.202176867043972,-1.6718910099357365
1772045293755652600,3.083652587890625,0.7411106277585029,-2.3915765723496674,-1.8178981482386587
1772045293765639000,3.093638916015625,0.7980003897160292,-2.4744571001321076,-1.9551766211628914
1772045293775624700,3.103624755859375,0.8717243820965289,-2.4536107114583254,-2.078969005048275
1772045293785610800,3.11361083984375,0.9588689970642328,-2.381023614153266,-2.208420145347714
1772045293795595500,3.123595458984375,1.0198813919097185,-2.304807804957032,-2.3954402620404958
1772045293805581800,3.133581787109375,0.9860516030222177,-2.309024545869231,-2.6722131303727625
1772045293815567600,3.143567626953125,0.8714180926263332,-2.4311820220291613,-3.0313562388777733
1772045293825553000,3.153552978515625,0.6903717896461486,-2.711833777621388,-3.4391187091231346
1772045293835538200,3.1635380859375,0.5442196899145841,-3.1588936545103787,-3.7782472036033865
1772045293845524000,3.17352392578125,0.5598854610800743,-3.6387282582759854,-4.2049025903671975
1772045293855510000,3.183510009765625,0.7638584661394358,-3.7793800070255994,-4.891659112125635
1772045293865496000,3.19349609375,0.8598194247692823,-3.6037265029996632,-5.488704967820644
1772045293875481000,3.203481201171875,0.713842097082734,-3.681492464247346,-5.638163707882166
1772045293885467100,3.213467041015625,0.43753684626221656,-3.886498319485783,-5.5803112383723255
1772045293895453000,3.223452880859375,0.1944201638162136,-4.036958930066228,-5.56133590426743
1772045293905439200,3.233439208984375,0.05365911860638298,-4.040767090177535,-5.710757234928011
1772045293915424000,3.243424072265625,-0.03896773629784584,-3.9482220774710175,-5.898038632905483
1772045293925410000,3.25341015625,-0.15804889201866462,-3.8873967296302316,-6.023291736993193
1772045293935395800,3.263395751953125,-0.30172318519353863,-3.8069589188247916,-6.1320315131753675
1772045293945381000,3.273381103515625,-0.46291678671240805,-3.8045045114099976,-6.07299947849214
1772045293955367200,3.2833671875,-0.6282125628530979,-3.9235809726893898,-5.83724601829052
1772045293965353000,3.29335302734375,-0.6917617826998234,-4.046172748613357,-5.534975720608234
1772045293975339000,3.303339111328125,-0.6872399213612079,-4.076484884768724,-5.144508668556809
1772045293985324000,3.313323974609375,-0.6055073945701122,-3.9751527544945477,-4.656400157442689
1772045293995310000,3.32331005859375,-0.5353203806767239,-3.776550921079516,-4.133770952567458
1772045294005295900,3.3332958984375,-0.5196832145512104,-3.48110783906877,-3.609130992391705
1772045294015282200,3.3432822265625,-0.5645861861169338,-3.1433868732988834,-3.0898943525642153
1772045294025267200,3.35326708984375,-0.6290414148926734,-2.7950661875814196,-2.6276860063821075
1772045294035253000,3.3632529296875,-0.6990659682333469,-2.419391630992293,-2.270693353909254
1772045294045239000,3.373239013671875,-0.7480266907572746,-2.011351512849331,-2.0191034421503544
1772045294055225000,3.38322509765625,-0.7961842802047729,-1.6202900020360946,-1.856188423666358
1772045294065210000,3.393210205078125,-0.8621627730250359,-1.2571198299720883,-1.7391121962934732
1772045294075196000,3.40319580078125,-0.9299930311918259,-0.9357038100540638,-1.6202590223759412
1772045294085182000,3.413181884765625,-0.9859306069910526,-0.6576710047885775,-1.5229028099954127
1772045294095168000,3.42316796875,-1.0245768562495707,-0.41611645709276196,-1.3719658140748738
1772045294105153000,3.433153076171875,-1.0022469510197638,-0.1982742088958621,-1.2678753250032662
1772045294115139000,3.44313916015625,-0.9269769713062792,0.0506876924470067,-1.258233636432886
1772045294125124900,3.453124755859375,-0.860709651607275,0.3221381967127323,-1.2608826896369456
1772045294135111200,3.463111083984375,-0.8511211545288562,0.5576821058169007,-1.229913550877571
1772045294145096000,3.473095947265625,-0.8642962048571556,0.810083918480575,-1.2018401335597038
1772045294155082000,3.48308203125,-0.9005822277903557,1.099146944065392,-1.1585352448403834
1772045294165068000,3.493068115234375,-0.9324948579449206,1.3930559483766556,-1.0837480071425438
1772045294175054000,3.50305419921875,-0.9527684151668101,1.683696014019847,-0.9879781871706247
1772045294185039000,3.5130390625,-0.9550421322524547,1.9750415975838898,-0.8816185841232538
1772045294195025000,3.52302490234375,-0.9390776704013347,2.2568708725228905,-0.7425012053340673
1772045294205011200,3.53301123046875,-0.8550410313863307,2.5092355680465697,-0.5113116920471191
1772045294214997000,3.5429970703125,-0.7501659678082913,2.7982909948468206,-0.24935294648706913
1772045294224982000,3.55298193359375,-0.6777484549164772,3.126074796231091,-0.034542905592918394
1772045294234968000,3.562968017578125,-0.6976726141788065,3.401823582212627,0.20128888054192065
1772045294244954000,3.5729541015625,-0.7449415842235088,3.6118595405727625,0.4223462913930416
1772045294254940200,3.582940185546875,-0.8242601086754351,3.803728558601439,0.6663491090238094
1772045294264925000,3.592925048828125,-0.8968320084113627,3.960703373381495,0.9041209233105182
1772045294274911000,3.602910888671875,-0.9544927547413855,4.1044364292725914,1.136801551938057
1772045294284897000,3.61289697265625,-0.9780571702022105,4.231591859850287,1.3842624010682105
1772045294294882000,3.622882080078125,-0.9899953722119331,4.367746589441597,1.6461650325268506
1772045294304868000,3.6328681640625,-0.9953320570647716,4.500253610180318,1.9054267940878866
1772045294314854100,3.642854248046875,-1.0092531034547836,4.615300085291266,2.153995896720886
1772045294324840200,3.652840087890625,-0.9806687409400939,4.712085804307461,2.381920855253935
1772045294334825000,3.662824951171875,-0.9051485127925872,4.788302198025584,2.585077867755294
1772045294344811000,3.67281103515625,-0.8070493730902671,4.881595106489956,2.7182372149229046
1772045294354797000,3.682797119140625,-0.6956148779314011,5.033076584550738,2.776002006149292
1772045294364783000,3.692783203125,-0.6132581548273563,5.236080452316999,2.8436393720924853
1772045294374768000,3.70276806640625,-0.5544762955129147,5.465458532267808,2.867064671343565
1772045294384754000,3.71275390625,-0.49306416076011955,5.729623263439536,2.8518209249824285
1772045294394740200,3.722740234375,-0.47323586308769877,5.979226385295391,2.8506425288528203
1772045294404726000,3.73272607421875,-0.48725397664401676,6.1674810122191905,2.9062673854410646
1772045294414711000,3.7427109375,-0.5302724496373906,6.260937879073619,2.981978167724609
1772045294424697000,3.752697021484375,-0.5728303193816915,6.250410639840364,3.0650112557202576
1772045294434683100,3.76268310546875,-0.5675169788718223,6.183721952924132,3.0726509568184612
1772045294444669000,3.7726689453125,-0.5045265984842553,6.247986627563834,2.9115140539228914
1772045294454654000,3.782654052734375,-0.41187867339253426,6.3210752446502445,2.8268822985589503
1772045294464640300,3.79264013671875,-0.32320907734725624,6.2300762923419475,2.8445623321563005
1772045294474626000,3.8026259765625,-0.26545477098226544,6.0840755837798115,2.901253356671333
1772045294484612000,3.812612060546875,-0.25150336598660794,5.876911673724651,2.903493244552612
1772045294494596900,3.822596923828125,-0.23609781665988266,5.723080709928274,2.7804601546019314
1772045294504583200,3.832583251953125,-0.21368016008138654,5.6252656478643415,2.661574247458577
1772045294514569000,3.84256884765625,-0.15226791573073714,5.50680293456912,2.604557644250989
1772045294524554000,3.852553955078125,-0.11840780477020889,5.363932340726256,2.543386259451508
1772045294534540000,3.8625400390625,-0.0647240723123774,5.155851315826177,2.452546297097206
1772045294544526000,3.872526123046875,-0.041017070043087,4.920548522001504,2.3003163387566805
1772045294554512100,3.88251220703125,-0.031895021432638164,4.645095796357095,2.0618354994177817
1772045294564497000,3.892496826171875,0.015696732559334486,4.334579940637946,1.7364128742069005
1772045294574483200,3.902483154296875,0.14400984527217223,4.010766211928427,1.3617758439719676
1772045294584469000,3.912468994140625,0.3463771504342556,3.751082425563037,1.0103601148486137
1772045294594455000,3.922455078125,0.5717068317770958,3.456120989589393,0.7829337534874677
1772045294604440000,3.932440185546875,0.703765524226427,3.1044395952671766,0.5750637409895658
1772045294614426000,3.942426025390625,0.692331107020378,2.767856985877454,0.42453064969480037
1772045294624412200,3.952412109375,0.5412742841124534,2.452570262494683,0.2135305224776268
1772045294634398000,3.96239794921875,0.2965571807324886,2.0811950105346737,-0.24045944593548774
1772045294644383000,3.972383056640625,0.05778582944783847,1.680628589273244,-0.8130757937729358
1772045294654369000,3.982369140625,-0.172460845464468,1.3031535591334105,-1.338951433223486
1772045294664355000,3.99235498046875,-0.32115619993805883,1.091729653546214,-1.5993512589037417
1772045294674340000,4.002340087890625,-0.3857715877115726,1.0358327020183205,-1.6584651266515253
1772045294684326000,4.012325927734375,-0.33726503869593144,1.0825105743020773,-1.5464748242408037
1772045294694312200,4.022312255859375,-0.1917839700937271,1.1649170548319816,-1.2417016038268804
1772045294704298000,4.032298095703125,-0.042993338552117344,1.2462576596960424,-0.8047136236190795
1772045294714283000,4.042282958984375,0.07792670476734638,1.2467328759923577,-0.4293734135508537
1772045294724269000,4.05226904296875,0.1541477746605873,1.166786940357089,-0.20066636472940444
1772045294734255000,4.062255126953125,0.14148293887674807,1.0371738874942065,-0.1894616646260023
1772045294744241000,4.072240966796875,0.04056231201291084,0.8183394133895635,-0.35137598163485523
1772045294754226000,4.082225830078125,-0.021022914284467696,0.5362313215091824,-0.5275567244052887
1772045294764212200,4.092212158203125,0.018000938398076687,0.26023586729019876,-0.6549468405216932
1772045294774198000,4.102197998046875,0.06931260567903519,-0.013636895686388015,-0.6965618764579296
1772045294784184000,4.11218408203125,0.12633563862740993,-0.16984949392229318,-0.6282230842471123
1772045294794168800,4.1221689453125,0.17834347376227377,-0.2598436531022191,-0.5057932208865881
1772045294804155100,4.132155029296875,0.17224106523394583,-0.34658903961926696,-0.4301186789602041
1772045294814141000,4.142140869140625,0.13263504016571678,-0.408951095508039,-0.4335439772337675
1772045294824126500,4.15212646484375,0.06113045913404785,-0.47816930090188975,-0.5837807159304619
1772045294834112500,4.162112548828125,0.025077158111333847,-0.5822542370155454,-0.7772446019351482
1772045294844098300,4.172098388671875,0.03175941235423088,-0.7170885316580533,-1.0058785855203867
1772045294854084600,4.182084716796875,0.07241289151562377,-0.8690905264616012,-1.2558213145941495
1772045294864069400,4.1920693359375,0.0596785158932209,-1.0634931546211241,-1.5624749419271946
1772045294874055400,4.202055419921875,0.009160608788859098,-1.2490455368489026,-1.836450873017311
1772045294884041200,4.212041259765625,-0.10804065146949142,-1.418932147911191,-2.051676508975029
1772045294894027500,4.222027587890625,-0.23917700490951538,-1.5996838518589733,-2.277254612120986
1772045294904012500,4.232012451171875,-0.4063362733671441,-1.7938064940333365,-2.48685539393425
1772045294913998300,4.241998291015625,-0.5305564907431602,-2.028608352598548,-2.691490077772736
1772045294923984600,4.251984619140625,-0.6703998457193374,-2.292470885953307,-2.894991373667121
1772045294933969400,4.261969482421875,-0.8105740400850773,-2.6150188325107098,-3.034677492254972
1772045294943955500,4.27195556640625,-0.8962473403912037,-2.9106092140376565,-3.1715795330822467
1772045294953941200,4.281941162109375,-0.998873090672493,-3.2042005307018755,-3.3451632450968023
1772045294963927600,4.291927490234375,-1.1314940931797026,-3.474435521697998,-3.5463428200453517
1772045294973912600,4.30191259765625,-1.281863518345356,-3.6541426850289103,-3.8441456169247625
1772045294983898400,4.3118984375,-1.3952771315574646,-3.818817698922753,-4.135442685171961
1772045294993884400,4.321884521484375,-1.4592892927408216,-3.9568186409026382,-4.380009566426277
1772045295003870500,4.331870361328125,-1.490298178988695,-4.011964774063229,-4.565674176856875
1772045295013855500,4.34185546875,-1.4873393291831016,-4.031859561100602,-4.71027729358077
1772045295023841300,4.35184130859375,-1.4727438175976275,-4.119862254202365,-4.818454175183176
1772045295033827300,4.361827392578125,-1.4437947864890097,-4.26549120684266,-4.903281160858273
1772045295043812600,4.3718125,-1.3631367570616304,-4.356818660452961,-5.049477684253454
1772045295053798400,4.38179833984375,-1.2155577663321047,-4.2401738102346656,-5.40014405631423
1772045295063784400,4.391784423828125,-1.1472434509754181,-3.898752236381173,-5.797996542441845
1772045295073770500,4.4017705078125,-1.1963024462420493,-3.7494033864349126,-5.910040620866417
1772045295083755500,4.411755615234375,-1.28217331494689,-3.8196465509623287,-5.860681838935613
1772045295093741300,4.4217412109375,-1.299745211994648,-3.9485879881739616,-5.753499229067564
1772045295103727400,4.431727294921875,-1.1615701555568725,-4.041305434837937,-5.665736774462461
1772045295113713400,4.44171337890625,-1.0032301168382167,-4.005815019261837,-5.54701161083877
1772045295123698400,4.451698486328125,-0.9232208336431532,-3.954026964357495,-5.308928246384859
1772045295133684500,4.4616845703125,-0.9342682973582297,-3.866080385357141,-5.028278244358301
1772045295143670300,4.471670166015625,-1.0143733690779655,-3.71624872033,-4.697463989236951
1772045295153655600,4.481655517578125,-1.1793524804849176,-3.5810564060300587,-4.291477881014347
1772045295163641300,4.491641357421875,-1.339562843120098,-3.5296085428655144,-3.863011060914397
1772045295173627400,4.50162744140625,-1.4320844749510286,-3.5173902818053957,-3.5017905616134404
1772045295183613400,4.511613525390625,-1.465784499979019,-3.5041678121387956,-3.2943823214083907
1772045295193598500,4.521598388671875,-1.4528595519542693,-3.4254496647328136,-3.181168614682555
1772045295203584500,4.53158447265625,-1.4107470878899098,-3.2257968609601257,-3.069537208712101
1772045295213570300,4.5415703125,-1.340687463235855,-2.927710570964217,-2.9371020841658115
1772045295223556600,4.551556640625,-1.326567752468586,-2.5359143161356448,-2.7860248029917476
1772045295233541400,4.561541259765625,-1.336198335123062,-2.131097836214304,-2.5865011785566807
1772045295243527400,4.57152734375,-1.3246025898754596,-1.7035943081885576,-2.4292589450120925
1772045295253513200,4.58151318359375,-1.3288789520204067,-1.2184013922601937,-2.3440338999301193
1772045295263498200,4.591498291015625,-1.3543418945789336,-0.7167489244401455,-2.2812702775031326
1772045295273484500,4.601484619140625,-1.3736135812819004,-0.2598047823965549,-2.2364637520492074
1772045295283470300,4.61147021484375,-1.3660241490662097,0.17304478283226488,-2.2289660897701977
1772045295293456400,4.621456298828125,-1.3582500079333781,0.569561636441946,-2.253720007276535
1772045295303441400,4.63144140625,-1.3088602463424206,0.9338751333221793,-2.297847902816534
1772045295313427500,4.641427490234375,-1.208760872733593,1.273765552085638,-2.3943740941137075
1772045295323413200,4.651413330078125,-1.0543781202733515,1.5605451429083943,-2.4907442180663346
1772045295333398300,4.661398193359375,-0.837076262563467,1.7487886639162897,-2.4642238754093646
1772045295343384600,4.671384521484375,-0.6015080958008766,1.9708201804965733,-2.4252380189329386
1772045295353370400,4.681370361328125,-0.3860147488176822,2.130963103918731,-2.2820360011786223
1772045295363356400,4.6913564453125,-0.20405191551446913,2.294128590032458,-2.1283365548074245
1772045295373341400,4.701341552734375,-0.051334977374598384,2.5097324116528035,-1.947200819978118
1772045295383327500,4.711327392578125,0.024569720045849678,2.7309648868098853,-1.7266677252620457
1772045295393313300,4.721313232421875,0.02678630011677742,2.9893074876993895,-1.4709014046013353
1772045295403298300,4.73129833984375,-0.05124627617783844,3.3041572809696196,-1.1974229016393423
1772045295413284400,4.741284423828125,-0.2386264583546668,3.6301609209388492,-0.8872732488840818
1772045295423270400,4.7512705078125,-0.41828393732495606,3.9672546947211025,-0.5454045157849788
1772045295433256400,4.76125634765625,-0.5025941325843334,4.278943978133797,-0.20060031375586984
1772045295443241500,4.771241455078125,-0.47976168465986846,4.557265829473733,0.11728431716561316
1772045295453227500,4.7812275390625,-0.377792936982587,4.738524313899874,0.4088385750442743
1772045295463213600,4.791213623046875,-0.3596246814768761,4.913894909331202,0.6245511177361012
1772045295473198300,4.8011982421875,-0.4890039255838841,5.041137141409516,0.8944190289855003
1772045295483184400,4.811184326171875,-0.6289888079226017,5.128436070156097,1.2455658780395984
1772045295493170400,4.82117041015625,-0.7120084519147872,5.242323146098852,1.5995669474810361
1772045295503156500,4.831156494140625,-0.786463681179285,5.350562571543454,1.889346012380719
1772045295513141500,4.8411416015625,-0.8761491397362202,5.444769964504242,2.204419677534699
1772045295523127300,4.851127197265625,-0.9112170190513134,5.480438659256697,2.521393038830161
1772045295533113600,4.861113525390625,-0.894722907302901,5.483392248365282,2.760346756377816
1772045295543099400,4.871099365234375,-0.8737843103010207,5.446548080092668,2.972405452737212
1772045295553084400,4.88108447265625,-0.8177730847436934,5.424068537259101,3.1494518724262712
1772045295563070500,4.891070556640625,-0.7271428926825523,5.454810881525278,3.2194805174201724
1772045295573056500,4.901056396484375,-0.6356114409327507,5.457797203859687,3.2740544036507604
1772045295583041500,4.91104150390625,-0.5495862584490329,5.4794291899532075,3.3459652091294525
1772045295593027300,4.92102734375,-0.4713104479830712,5.576863143745064,3.446553243038058
1772045295603013600,4.931013671875,-0.40270986303091044,5.698742387485503,3.490535008105635
1772045295612999400,4.94099951171875,-0.34818916829228397,5.888787404957413,3.4903859550237653
1772045295622984400,4.950984375,-0.30532274405546483,6.116468033340573,3.489489882966876
1772045295632970200,4.96097021484375,-0.2905891391735524,6.3183145477652545,3.5243139435887336
1772045295642956500,4.97095654296875,-0.2938940259378403,6.476100971189141,3.571361525967717
1772045295652941600,4.980941650390625,-0.2742974181294441,6.556521246337891,3.660722647941112
1772045295662927400,4.99092724609375,-0.2128197438597679,6.5502218539327375,3.7286575355261564
1772045295672913400,5.000913330078125,-0.14151983682103456,6.5431111451447,3.7254064247757195
1772045295682899500,5.0108994140625,0.0023836072009056804,6.684890436619519,3.4826983231306072
1772045295692884500,5.020884521484375,0.22859124042205511,7.08230570037365,3.016561405327916
1772045295702870300,5.030870361328125,0.44101708959341046,7.521721784511208,2.624786777809262
1772045295712856600,5.040856689453125,0.5133258083485066,7.821879035562277,2.5519687943577765
1772045295722841600,5.050841552734375,0.4057575601637363,7.895653296825289,2.7556740883916615
1772045295732827400,5.060827392578125,0.17031112008467317,7.835256403529644,3.0049060388475657
1772045295742813400,5.0708134765625,-0.0581832358341664,7.689577182006835,3.1791181118935343
1772045295752799500,5.080799560546875,-0.19910569128394126,7.495245280995965,3.1376211493790147
1772045295762784500,5.090784423828125,-0.22364384714774785,7.194712766891717,2.9247943912565706
1772045295772770300,5.100770263671875,-0.1493687236905098,6.78405223711729,2.5865438486546277
1772045295782756400,5.11075634765625,-0.06132343355603516,6.280049406778812,2.174755191633105
1772045295792741600,5.12074169921875,-0.0306301160633564,5.734375426402687,1.749758093470335
1772045295802727400,5.1307275390625,0.008981763356924057,5.1995940114408725,1.3699907146096229
1772045295812713500,5.14071337890625,0.04068615758828818,4.726351645547151,1.0503116014868021
1772045295822698500,5.150698486328125,0.06942709890417754,4.34554820163697,0.7453507495462894
1772045295832684500,5.1606845703125,0.0851448925178498,4.016499787144363,0.5241308416098356
1772045295842670300,5.17067041015625,0.11964695464372634,3.695504038465023,0.3222907569259405
1772045295852656600,5.18065673828125,0.1558650999724865,3.431418802270293,0.06126724638938903
1772045295862641700,5.1906416015625,0.19271803607344626,3.2239117778658866,-0.26887071690559383
1772045295872627500,5.20062744140625,0.18927520214319227,3.0621640495955944,-0.651526802945137
1772045295882613800,5.21061376953125,0.1641477751493454,2.9429250912308693,-0.9863023629128932
1772045295892598500,5.2205986328125,0.12846497880630195,2.8931144738793373,-1.2889742271333933
1772045295902584600,5.23058447265625,0.06012034137658775,2.9369129913344976,-1.5579536651104688
1772045295912570400,5.2405703125,-0.011608531663939357,3.0538375352770086,-1.70331023055017
1772045295922556700,5.250556640625,-0.05375738221593201,3.136374948710203,-1.7599983324557542
1772045295932541700,5.260541748046875,-0.07712181812524795,3.17364347987473,-1.7616402544438838
1772045295942527500,5.270527587890625,-0.09209500391669571,3.2048771147891877,-1.7424235127985477
1772045295952513500,5.280513427734375,-0.13220840311832724,3.123393886584043,-1.7143232074737549
1772045295962498600,5.29049853515625,-0.15075637865662575,2.9400837303251026,-1.6985253343611955
1772045295972484600,5.300484619140625,-0.1264670829873532,2.6368670917034147,-1.708045442378521
1772045295982470400,5.310470458984375,-0.09353519278764724,2.282870113915205,-1.754111027982831
1772045295992456400,5.32045654296875,-0.0951801104504615,2.006155113250017,-1.7497732910394668
1772045296002441700,5.330441650390625,-0.13075045939497648,1.7662629458084702,-1.6900912680149078
1772045296012427500,5.340427490234375,-0.19814707538485526,1.573960504798591,-1.5962077001810073
1772045296022412500,5.35041259765625,-0.26019991919398305,1.4918191049456595,-1.478423616799712
1772045296032398300,5.3603984375,-0.3348445335507393,1.4705956996530294,-1.2972154012560844
1772045296042384600,5.370384521484375,-0.41867081775069237,1.4579007609918713,-1.092589485245943
1772045296052369700,5.38036962890625,-0.5264122305452823,1.4876862429246305,-0.9247411020129919
1772045296062355500,5.39035546875,-0.6417020859580487,1.4712088631153106,-0.7914701111644507
1772045296072341500,5.400341552734375,-0.7774572217725216,1.4005875129252672,-0.6891314341962337
1772045296082326500,5.410326416015625,-0.9025205023765563,1.3232625734433532,-0.6449164448946714
1772045296092312600,5.4203125,-1.0004981345910577,1.2518994649752975,-0.6128121646255255
1772045296102298600,5.430298583984375,-1.0730982375081628,1.1923939675614237,-0.5954010110974312
1772045296112284700,5.44028466796875,-1.189227393289283,1.1704486777350305,-0.5707201588273048
1772045296122269700,5.450269775390625,-1.3252876495301722,1.1893176288560032,-0.5046978268653154
1772045296132255500,5.46025537109375,-1.480621857496351,1.238268999029696,-0.43543724363446235
1772045296142241500,5.470241455078125,-1.62399119464159,1.2942851930230854,-0.3561480183422565
1772045296152226600,5.4802265625,-1.7864939790628849,1.3144994212731718,-0.20294892270863055
1772045296162212600,5.490212646484375,-1.9839492727912962,1.2926204746812582,-0.038382629886269566
1772045296172198700,5.50019873046875,-2.1445827562093736,1.228084289623797,0.10188859511315822
1772045296182183400,5.510183349609375,-2.288856933239847,1.1370841682717203,0.23425474607646463
1772045296192169500,5.52016943359375,-2.4242485695041713,1.0355720052555202,0.37728432987332344
1772045296202155500,5.530155517578125,-2.557102065593004,0.9296189371824264,0.47757659570574756
1772045296212141600,5.5401416015625,-2.688113294816017,0.8101756884172558,0.5492506698191165
1772045296222126600,5.550126708984375,-2.783615988284349,0.7001882502615452,0.6444780534774065
1772045296232112600,5.560112548828125,-2.8659318679213523,0.5898840012416243,0.7467571092128753
1772045296242098700,5.5700986328125,-2.950399957156181,0.5457885466665029,0.8385697159916162
1772045296252083500,5.58008349609375,-3.0327146677494046,0.5080006678029895,0.8967343201905489
1772045296262069500,5.590069580078125,-3.0969360877692695,0.49920069075375795,0.9560539396435022
1772045296272055600,5.6000556640625,-3.153642894375324,0.4706587791413068,1.030150856989622
1772045296282041600,5.61004150390625,-3.2012276523709295,0.42799861806631084,1.0706915416926146
1772045296292026600,5.620026611328125,-3.216858936744928,0.4081979390531778,1.070090068668127
1772045296302012400,5.630012451171875,-3.2034523426830765,0.34666122807264327,1.0554916344732046
1772045296311998700,5.639998779296875,-3.162526458054781,0.259396201595664,1.0276859281808137
1772045296321983500,5.6499833984375,-3.100551940178871,0.16481442236453295,0.9922457814872264
1772045296331969500,5.659969482421875,-3.00109320256114,0.08215075220316648,0.9629080433219671
1772045296341955600,5.66995556640625,-2.9140017790853974,0.055093818451464174,0.9564180967807769
1772045296351940600,5.679940673828125,-2.8508465269923207,-0.007247194649279117,0.9427022906392812
1772045296361926700,5.6899267578125,-2.781196067661047,-0.09693214174956083,0.8979583090275526
1772045296371912400,5.699912353515625,-2.6739889078736305,-0.2125064401268959,0.827734433722496
1772045296381898800,5.709898681640625,-2.548170571118593,-0.3202534058794379,0.778589586803317
1772045296391883500,5.719883544921875,-2.4024293902754783,-0.4194251432493329,0.7530033101260661
1772045296401869600,5.72986962890625,-2.244504435163736,-0.4847285132870078,0.6974111867636442
1772045296411855400,5.73985546875,-2.1095628807544706,-0.5616211988314986,0.6309604002565146
1772045296421841700,5.749841552734375,-1.9710041587613523,-0.6611380963772535,0.5891419507026672
1772045296431827500,5.759827392578125,-1.8357551458381116,-0.7111278696879744,0.5202426019996405
1772045296441812500,5.7698125,-1.691837673290819,-0.7109612809494137,0.44551264744699
1772045296451798500,5.779798583984375,-1.5427845914207399,-0.6718500445276498,0.3695990360677242
1772045296461784600,5.78978466796875,-1.3853718236148356,-0.5786182186007499,0.318744462621212
1772045296471770600,5.7997705078125,-1.2192680920921266,-0.411852954429388,0.17440204266011713
1772045296481755400,5.80975537109375,-1.082142763902992,-0.20864012008756397,-0.014829904863238335
1772045296491741700,5.81974169921875,-1.0028595299601555,-0.019960545749962328,-0.23960195232331752
1772045296501727500,5.8297275390625,-0.9303483474355191,0.1208773732215166,-0.4792442366570234
1772045296511712500,5.83971240234375,-0.8458288933396338,0.14075959303826094,-0.6931289793998002
1772045296521698600,5.849698486328125,-0.7435784061115235,0.015469956332445144,-0.8226508468478918
1772045296531684600,5.8596845703125,-0.6401414125125855,-0.18826573283970355,-0.9474217203766107
1772045296541669600,5.869669677734375,-0.5543629713315517,-0.4852417235061526,-1.1159294443011283
1772045296551655400,5.879655517578125,-0.4844049804210663,-0.8263315811872481,-1.3317343414515257
1772045296561641500,5.889641357421875,-0.3878548602590337,-1.1295844601660967,-1.5353233156293629
1772045296571627500,5.89962744140625,-0.2687069777112454,-1.391661863669753,-1.6892729373693465
1772045296581612500,5.909612548828125,-0.10956154089383781,-1.564353595280647,-1.8116057700961827
1772045296591598600,5.9195986328125,0.04487962722275406,-1.638871952909231,-1.856671238747239
1772045296601584400,5.92958447265625,0.1829167364945635,-1.6250807434439658,-1.8450293162703513
1772045296611569700,5.939569580078125,0.2980699233829975,-1.4989555326968431,-1.8391203844875097
1772045296621555500,5.949555419921875,0.4343968312034383,-1.3249573946624993,-1.8416437654852866
1772045296631541500,5.95954150390625,0.5594997131654993,-1.0967770000636576,-1.8822054929763077
1772045296641526500,5.969526611328125,0.6737514942348003,-0.8607470610082149,-1.907270960649848
1772045296651512600,5.9795126953125,0.7083201187908649,-0.6256108559221029,-1.8715572577118873
1772045296661498600,5.98949853515625,0.6673790365934371,-0.39329146182239055,-1.7651169906437396
1772045296671483400,5.9994833984375,0.5891255475571379,-0.22688567861318587,-1.6558756946802138
1772045296681469400,6.009469482421875,0.4707131762096658,-0.1540858153402805,-1.5200678788304327
1772045296691455500,6.01945556640625,0.3613865035176277,-0.2578577399820089,-1.268174015688896
1772045296701441500,6.029441650390625,0.29030626711156216,-0.5214589920520782,-0.9295774361282586
1772045296711426600,6.039426513671875,0.2918670136222616,-0.8529553842186928,-0.6473129846423864
1772045296721412600,6.04941259765625,0.33347795790527013,-1.171320492133498,-0.4410872322201729
1772045296731398700,6.059398681640625,0.37616672402024265,-1.4053794233769177,-0.30024551385641096
1772045296741383700,6.0693837890625,0.3886275251319632,-1.6106570812940597,-0.19984861860573291
1772045296751369500,6.079369384765625,0.39173257847521453,-1.7436884181678294,-0.10077332734763622
1772045296761355500,6.08935546875,0.3920797114124521,-1.7958949907451867,-0.022436288213729855
1772045296771340500,6.099340576171875,0.41060087200906126,-1.8385113126784562,0.04576280326545238
1772045296781326600,6.10932666015625,0.39757425370812416,-1.8051240068614482,0.05244388846457004
1772045296791312400,6.1193125,0.34983401288986204,-1.7282453498423098,-0.02753741074502468
1772045296801298700,6.129298583984375,0.24840423092748967,-1.6624989122122524,-0.18895488414764403
1772045296811283700,6.13928369140625,0.10527242886517196,-1.6305530373752115,-0.42227614876627917
1772045296821269500,6.14926953125,-0.08970891249775886,-1.631348571667075,-0.6868436155200004
1772045296831254800,6.1592548828125,-0.26875268001649527,-1.6203846945822238,-0.9417688091814518
1772045296841239800,6.16923974609375,-0.4018646443784237,-1.578238912770152,-1.2110709032416342
1772045296851225600,6.1792255859375,-0.4552314929068088,-1.4773767380952834,-1.456153917324543
1772045296861212000,6.1892119140625,-0.5429365913014859,-1.3551760073155164,-1.646490611219406
1772045296871196700,6.19919677734375,-0.6354021090310067,-1.201824935990572,-1.7752713049113749
1772045296881182700,6.2091826171875,-0.7370821759600192,-1.0410942758083344,-1.8650041828066108
1772045296891168500,6.21916845703125,-0.8108757264453917,-0.9051800769746303,-1.8831062412083148
1772045296901153500,6.229153564453125,-0.8658254602510481,-0.8377168985545634,-1.8301754460096358
1772045296911139800,6.239139892578125,-0.8867046552158891,-0.8203162664204835,-1.7789187215030193
1772045296921125600,6.249125732421875,-0.8370131341993808,-0.7311120885744691,-1.6626245844185352
1772045296931111700,6.259111572265625,-0.7602852838277816,-0.6684346831262111,-1.4281313534110784
1772045296941096700,6.2690966796875,-0.7221217765849083,-0.6203089501217007,-1.1666560074537993
1772045296951082800,6.279082763671875,-0.7150924624700099,-0.5631687205344438,-0.8760387381643057
1772045296961068500,6.289068603515625,-0.7452524768035859,-0.5136462724745273,-0.5973842938691377
1772045296971053600,6.299053466796875,-0.8017547007482498,-0.48381139844208954,-0.3555091359168291
1772045296981039900,6.309039794921875,-0.8469897538125515,-0.42177696707248685,-0.10963701728284359
1772045296991025700,6.319025634765625,-0.9227309312343597,-0.3646501814886927,0.12063479663729668
1772045297001010700,6.3290107421875,-0.981386533820629,-0.3082031948626041,0.3577677284985781
1772045297010996500,6.33899658203125,-1.045742393875122,-0.24176234522759912,0.5722738180100917
1772045297020982800,6.348982666015625,-1.1206103686589748,-0.1697401883289218,0.7794301292806863
1772045297030967800,6.3589677734375,-1.1763596553444862,-0.12390548887103796,0.9827753578305244
1772045297040953600,6.36895361328125,-1.2191454155605286,-0.081916651186347,1.158321894350648
1772045297050939600,6.378939697265625,-1.2093839730679987,-0.11828238829225302,1.3065958085417746
1772045297060925700,6.38892578125,-1.1734184142608195,-0.164620361097157,1.3755623772621155
1772045297070910700,6.39891064453125,-1.0609143171090631,-0.15206249281913042,1.339555244335532
1772045297080896500,6.408896484375,-0.9466800351638346,-0.09880115049183368,1.2493296144872903
1772045297090882800,6.4188828125,-0.8204010220944881,-0.01710398727506399,1.1445739395052195
1772045297100867800,6.428867919921875,-0.6131354052305221,0.2182394308209419,0.9219155231982469
1772045297110853600,6.438853515625,-0.41881468320079146,0.5741022024810314,0.6342652870208024
1772045297120839700,6.448839599609375,-0.36818452962730075,0.7297878542333841,0.4620516943156719
1772045297130824400,6.458824462890625,-0.4173217412292957,0.7615627564176917,0.27267420084178445
1772045297140810800,6.468810791015625,-0.5011632595309987,0.6680944913864135,0.06164543205201625
1772045297150796500,6.478796630859375,-0.5373943008739501,0.4435664818152785,-0.14777707058489323
1772045297160781600,6.488781494140625,-0.5103356135565787,0.1805789777293801,-0.3060778732717037
1772045297170768000,6.498767822265625,-0.36756599587015804,-0.05597878459244966,-0.3545797461122274
1772045297180753700,6.508753662109375,-0.1556464157205075,-0.0046925417304039,-0.6196300279468298
1772045297190739700,6.51873974609375,-0.017028291690349577,0.3811529880002141,-1.042394837012887
1772045297200724500,6.528724365234375,-0.07692892590165137,0.6222814192384482,-1.1374264058381318
1772045297210710800,6.538710693359375,-0.33141923527717587,0.7232336102843284,-1.0104553919166326
1772045297220696600,6.548696533203125,-0.6841233237106352,0.8250070545852184,-0.9236322639882564
1772045297230681600,6.558681640625,-0.9187702109098433,0.9986927656695246,-1.0324398447096348
1772045297240667600,6.568667724609375,-0.9937994406700134,1.137577212485671,-1.0864788934111596
1772045297250653700,6.57865380859375,-0.9310451705932616,1.1675108707174657,-1.0179097995758055
1772045297260638700,6.588638671875,-0.7781167085945606,1.1668041837528347,-0.8451245444625616
1772045297270624500,6.59862451171875,-0.6177356655675917,1.0369868404895066,-0.5907979012161493
1772045297280610600,6.608610595703125,-0.468051226991415,0.8111182299643754,-0.3127431763797998
1772045297290595800,6.618595947265625,-0.3597229176869616,0.5222922280058264,-0.1306464875638485
1772045297300581600,6.62858154296875,-0.29105452819559724,0.21227000102251767,-0.002406476619839668
1772045297310567700,6.638567626953125,-0.29022447057962414,-0.11572276693731545,0.09555705400407313
1772045297320553700,6.6485537109375,-0.3547276666829362,-0.4550777636498213,0.10249649787843226
1772045297330538800,6.658538818359375,-0.4338169489562511,-0.7537392231851816,0.10422317554056644
1772045297340524800,6.66852490234375,-0.5657307165095582,-0.9429425291359425,0.1066033486753702
1772045297350510600,6.678510498046875,-0.707737934988737,-1.0838134735941887,-0.015067220750451088
1772045297360495600,6.68849560546875,-0.8104770094513892,-1.184511982139945,-0.22552315808832643
1772045297370481700,6.698481689453125,-0.8339630989789962,-1.2617226475924253,-0.43690088644623754
1772045297380467700,6.7084677734375,-0.7482604995131492,-1.322011404338479,-0.5372837531715631
1772045297390452700,6.71845263671875,-0.552670122873783,-1.3385112882405519,-0.5290531004428863
1772045297400438800,6.728438720703125,-0.2664940509021282,-1.2875912483423948,-0.42512452393472194
1772045297410424800,6.7384248046875,0.04509468561238609,-1.164409105309844,-0.24372633877694605
1772045297420409600,6.74840966796875,0.34747722063064573,-0.9930454074323177,-0.018874796339869496
1772045297430395600,6.758395751953125,0.6431424209594726,-0.8382879764407872,0.23354805911183357
1772045297440381700,6.768381591796875,0.8878396505951881,-0.6958791548907757,0.44751346587538715
1772045297450366700,6.77836669921875,1.0568757823079824,-0.5916559793502092,0.6217237853556871
1772045297460352800,6.788352783203125,1.1503829180449248,-0.5583768100827932,0.7376409058213234
1772045297470338600,6.798338623046875,1.225948738899827,-0.5783885014981031,0.8235667926490307
1772045297480323600,6.808323486328125,1.2601087826550006,-0.6151286248743534,0.8942670532941818
1772045297490309600,6.8183095703125,1.259162441715598,-0.6612532471895217,0.9807055658191441
1772045297500295700,6.828295654296875,1.180336157760024,-0.7342506788611411,1.0407546685904263
1772045297510281500,6.838281494140625,1.070647702550888,-0.7912713737219571,1.0419628753364085
1772045297520266800,6.848266845703125,0.9371914182633161,-0.8802841206490993,1.0251935268431902
1772045297530252800,6.858252685546875,0.7873083153098821,-0.9973930812478065,0.9752478849351406
1772045297540238600,6.868238525390625,0.655226826506853,-1.101500521454215,0.8588678231328726
1772045297550223600,6.8782236328125,0.5861252332299948,-1.1926812600702046,0.7670429413944483
1772045297560209700,6.888209716796875,0.5677560483247042,-1.227573125231266,0.6663187138855456
1772045297570195700,6.89819580078125,0.5349316736200824,-1.2548258738160132,0.5570704036593437
1772045297580180700,6.9081806640625,0.5246387911319732,-1.3005986139535903,0.4485083221316337
1772045297590166500,6.91816650390625,0.5337462266951799,-1.3197715164572,0.31123920155763624
1772045297600152800,6.92815283203125,0.48607437493801114,-1.3155758183330297,0.11724456967711448
1772045297610137600,6.9381376953125,0.3990612773954868,-1.3481833719491958,-0.1109825866729021
1772045297620123600,6.94812353515625,0.28174130439460277,-1.4207283836781979,-0.4104033401429653
1772045297630109700,6.958109619140625,0.11434124945104121,-1.5160668264955282,-0.7962590990066528
1772045297640094700,6.9680947265625,-0.07202887890040874,-1.6932377493470907,-1.1285305671989918
1772045297650080800,6.978080810546875,-0.21457389405071733,-1.8996160619825124,-1.3942898740857839
1772045297660066600,6.988066650390625,-0.2928793690025806,-2.0865297956913706,-1.5842852071970701
1772045297670052900,6.998052978515625,-0.30035891110301016,-2.2100948005616665,-1.6935346864670513
1772045297680037600,7.00803759765625,-0.3204997818559408,-2.3006413329273463,-1.7261866637468337
1772045297690023700,7.018023681640625,-0.3216156341433525,-2.4401912579149005,-1.7465443921208381
1772045297700009500,7.028009521484375,-0.3020037557005882,-2.5301129363805055,-1.7735399510741232
1772045297709994500,7.037994384765625,-0.25884382840991016,-2.619011117017269,-1.8106670279413462
1772045297719980800,7.047980712890625,-0.23485271196961402,-2.7319477603673934,-1.8409224654734133
1772045297729966600,7.057966552734375,-0.19311843356788158,-2.814868620160222,-1.8938807332009076
1772045297739951600,7.06795166015625,-0.11085983707606792,-2.829116925743222,-1.9840712917357681
1772045297749937700,7.077937744140625,-0.009409642513329163,-2.791276147648692,-2.1351842287451026
1772045297759923700,7.087923828125,0.07862870642370544,-2.6959622547507283,-2.3341215777248143
1772045297769908700,7.09790869140625,0.13677753766477108,-2.575429749444127,-2.584652335819602
1772045297779894500,7.10789453125,0.1379874979764223,-2.483156539416313,-2.8270968180924654
1772045297789880800,7.117880859375,0.13589900126457213,-2.473573887556791,-3.089638331976533
1772045297799865600,7.127865478515625,0.14745324545800684,-2.543521284008026,-3.3033038790106772
1772045297809851600,7.1378515625,0.18588731327056884,-2.7036504711657763,-3.4529981813937423
1772045297819837700,7.147837646484375,0.2943868692223914,-2.8516712873786685,-3.574449555110931
1772045297829823500,7.157823486328125,0.47166532583534715,-2.778685546144843,-3.8637680167615414
1772045297839809500,7.1678095703125,0.6073024612933396,-2.4480899022102354,-4.282629973170161
1772045297849795600,7.177795654296875,0.5443184741139412,-2.266651969563961,-4.377422472542524
1772045297859781400,7.187781494140625,0.3871224177986383,-2.3383412412464617,-4.257700114575028
1772045297869766400,7.197766357421875,0.3272662072509527,-2.3055735286325216,-4.238391602993011
1772045297879752700,7.207752685546875,0.37484044385254384,-2.121322876653075,-4.395019504031539
1772045297889738500,7.217738525390625,0.4091477871239185,-1.9569529831856487,-4.534190658834576
1772045297899723500,7.2277236328125,0.3524503328680992,-1.9590946713894604,-4.5393905655652285
1772045297909709600,7.23770947265625,0.2718354119300842,-2.0208762970417737,-4.50585420666635
1772045297919695600,7.247695556640625,0.19631343021690845,-2.1020470982968806,-4.434810831671953
1772045297929680600,7.2576806640625,0.04294597401274368,-2.2547750692874193,-4.256543345755339
1772045297939666400,7.26766650390625,-0.1536421632260084,-2.4692870040178296,-3.989626101005077
1772045297949652500,7.277652587890625,-0.2924356986219995,-2.6180928331285713,-3.6720670487761495
1772045297959637800,7.2876376953125,-0.3696837917417288,-2.6259593287199734,-3.297011500868201
1772045297969623600,7.29762353515625,-0.4163239623636007,-2.5357763689696786,-2.8459534942537545
1772045297979609600,7.307609619140625,-0.44029052888453,-2.2684505434185267,-2.4226754749685524
1772045297989594400,7.317594482421875,-0.4354039258867502,-1.9482967985212802,-2.0243734915077685
1772045297999580700,7.32758056640625,-0.41054888609349727,-1.5911983475863933,-1.736719748198986
1772045298009566500,7.33756640625,-0.40500235788226124,-1.213052432447672,-1.5927911697357893
1772045298019551500,7.347551513671875,-0.4150654867351055,-0.8255681955993175,-1.5993237863749266
1772045298029537500,7.35753759765625,-0.4380243375182152,-0.4569114088177681,-1.739089984461665
1772045298039523600,7.367523681640625,-0.510612603867054,-0.13260112876296043,-1.9028595739483831
1772045298049508600,7.377508544921875,-0.657651423305273,0.12770780376344917,-2.068352918487787
1772045298059494400,7.387494384765625,-0.7462029824614524,0.3175532070100307,-2.167778338357806
1772045298069480700,7.397480712890625,-0.7736732462543994,0.4394254364877939,-2.1674527596652506
1772045298079465700,7.4074658203125,-0.8054221372146159,0.5158265391230583,-2.0856816544294356
1772045298089451500,7.417451416015625,-0.8392904314815998,0.5807438324525952,-1.9277286422669886
1772045298099437600,7.4274375,-0.886999181183055,0.6974903894796967,-1.7224217582553625
1772045298109422300,7.43742236328125,-0.9244002526860684,0.8163312884375452,-1.4862918659567832
1772045298119408600,7.44740869140625,-0.9988321741402149,0.9454784773543476,-1.2848837429493665
1772045298129394400,7.45739453125,-1.1121487567186354,1.129467848049104,-1.1598580178767441
1772045298139380500,7.46738037109375,-1.2660136227846144,1.3303595459669828,-0.9921797305136918
1772045298149365800,7.47736572265625,-1.4118341524742544,1.4992308425068854,-0.7217711365163326
1772045298159351600,7.4873515625,-1.4875604245878755,1.688031705136597,-0.432052861893177
1772045298169337600,7.497337646484375,-1.523065453211218,1.8975310724020003,-0.15411387239098548
1772045298179322400,7.507322265625,-1.534140827846527,2.1209639802128075,0.10253624536693096
1772045298189308700,7.51730859375,-1.5517536414265631,2.360049799707532,0.355565250018239
1772045298199294500,7.52729443359375,-1.615754258302599,2.6653537659972906,0.5957850419789552
1772045298209279500,7.537279541015625,-1.7614404940880835,2.9213170705348253,0.9080588472813367
1772045298219265500,7.547265625,-1.9078455456674097,3.2026839886590834,1.2494237225115299
1772045298229251600,7.55725146484375,-2.0362239421688018,3.4638504147976636,1.544876156872511
1772045298239236600,7.567236572265625,-2.1555529169045387,3.6696634947657585,1.841834904143214
1772045298249222400,7.577222412109375,-2.2533285237409175,3.866349849948287,2.086191942039132
1772045298259208400,7.58720849609375,-2.3274961682356894,4.007549880230426,2.2841811965137717
1772045298269193700,7.59719384765625,-2.359436782375723,4.107506922759115,2.4358716411501167
1772045298279179500,7.607179443359375,-2.3674950011469424,4.234591333927214,2.526167413625121
1772045298289165600,7.61716552734375,-2.3746811132587493,4.2827781494691965,2.6719956882297993
1772045298299150600,7.627150634765625,-2.3576947610139847,4.263895169822871,2.8343472276121378
1772045298309136600,7.63713671875,-2.319610967943817,4.193711918789148,2.9749428622603413
1772045298319122400,7.647122314453125,-2.250782492519915,4.148534806457161,3.0796529445350167
1772045298329107500,7.657107421875,-2.1781858967341483,4.09230789232254,3.1352550047695633
1772045298339093500,7.667093505859375,-2.092209741023928,4.068513759759068,3.135388275760412
1772045298349079600,7.67707958984375,-1.9999263018630444,4.155774402321875,3.0560873600304124
1772045298359064600,7.687064697265625,-1.9147956570662557,4.32254346588552,2.954023992872238
1772045298369050600,7.697050537109375,-1.8505590394772589,4.584879228064418,2.877463900282979
1772045298379036700,7.70703662109375,-1.8346683735147118,4.884064711473882,2.8336709357857703
1772045298389021700,7.717021728515625,-1.8456208524227142,5.10739328212738,2.8277842158347366
1772045298399007500,7.727007568359375,-1.8569876112200319,5.220473717862367,2.8765076224714514
1772045298408993500,7.73699365234375,-1.8512489214375614,5.236502477121353,2.863861491388082
1772045298418978600,7.746978515625,-1.7618052357472478,5.344413985785842,2.6298645194649697
1772045298428964600,7.756964599609375,-1.6319443456031382,5.500203097912669,2.3815046756684777
1772045298438950700,7.76695068359375,-1.527606896033138,5.513695032170415,2.237524074757099
1772045298448935400,7.776935302734375,-1.4181927277207373,5.5853387111455195,2.0452964525491
1772045298458921500,7.78692138671875,-1.3796202743507922,5.606698310038447,1.9651707764327524
1772045298468907500,7.796907470703125,-1.3913045746646822,5.486662648338079,2.0079969417244197
1772045298478893600,7.8068935546875,-1.416353675725311,5.351998157304525,2.0177584572821856
1772045298488878600,7.816878662109375,-1.4051939838074148,5.219023519054055,1.9725182165861128
1772045298498864600,7.82686474609375,-1.32797761926651,5.067341842246055,1.8986048391133545
1772045298508850700,7.8368505859375,-1.2267911810733376,4.8751308789119125,1.8688064976990222
1772045298518835500,7.84683544921875,-1.1515782653093338,4.568073346953094,1.8651228407502174
1772045298528821500,7.856821533203125,-1.0896365537244825,4.181522299301624,1.8346289182871578
1772045298538807600,7.8668076171875,-1.0188250147245823,3.760316117854416,1.7298720742613076
1772045298548792600,7.87679248046875,-0.9001111031472683,3.3516593291178345,1.5422008001834153
1772045298558778600,7.886778564453125,-0.7418482943832874,3.0427111611068245,1.2722598236978053
1772045298568764400,7.896764404296875,-0.5143336702167988,2.8277137809470294,0.9491478135168552
1772045298578749700,7.906749755859375,-0.3093864132978022,2.6003672068238255,0.6327133814036846
1772045298588735500,7.916735595703125,-0.12548048310279847,2.26532013643831,0.3511035944342613
1772045298598721500,7.926721435546875,0.10783961247205734,1.8976433006048201,0.06465221265256405
1772045298608706600,7.93670654296875,0.42282559934258457,1.553771995511651,-0.21097382373213766
1772045298618692600,7.946692626953125,0.7383072607755661,1.196722352154553,-0.4295867640405893
1772045298628678700,7.9566787109375,0.9720026194036007,0.8895598985165357,-0.6079354984998703
1772045298638663400,7.966663330078125,1.0832020636975765,0.7103147997394204,-0.7731254761785268
1772045298648649500,7.9766494140625,1.1042565421640873,0.6250821558728814,-0.9390577966570853
1772045298658635500,7.986635498046875,0.99634211089015,0.5888824229836463,-1.0417366653651
1772045298668620500,7.99662060546875,0.8085866656601428,0.621947657239437,-1.0786538988739252
1772045298678606600,8.006606689453125,0.5834510455846786,0.651687254203856,-1.0152432107150553
1772045298688592400,8.01659228515625,0.4139151476562023,0.6770864838764071,-0.8247294066876173
1772045298698577700,8.02657763671875,0.3236719821512699,0.6870622267067432,-0.6489022996604442
1772045298708563500,8.0365634765625,0.30026597212255,0.6377434845253824,-0.5191407782375812
1772045298718549500,8.046549560546875,0.2985971621274948,0.5218187652751803,-0.4305927262127399
1772045298728534500,8.056534423828126,0.3169581637263298,0.30410949580818414,-0.4529138636142015
1772045298738520600,8.0665205078125,0.33492870470285413,0.04219809652119875,-0.5382324321985245
1772045298748506600,8.076506591796875,0.3261076848655939,-0.2395215805634856,-0.6167711313843727
1772045298758491400,8.086491455078125,0.3230009510219097,-0.5259150946781039,-0.7225269233196974
1772045298768477400,8.0964775390625,0.4013099331051111,-0.7093541380137205,-0.7714110734760761
1772045298778463500,8.10646337890625,0.4768307457745075,-0.8384422902196645,-0.800531369498372
1772045298788448500,8.116448486328125,0.5682797799378633,-0.9259721051126718,-0.8282803771674633
1772045298798434600,8.1264345703125,0.6051601885676383,-0.9576105214357375,-0.9399486080169677
1772045298808420600,8.136420654296876,0.6363368325978517,-1.0326870974689721,-1.1077385390609502
1772045298818405600,8.146405517578126,0.6813263134032488,-1.124537113648653,-1.264330199742317
1772045298828391400,8.156391357421874,0.7308475924193859,-1.2122001995325087,-1.4128455214738844
1772045298838377500,8.16637744140625,0.7505927418529987,-1.3462000891774892,-1.5932406670689583
1772045298848362800,8.17636279296875,0.6955699428111315,-1.5465291847765446,-1.8633616762965917
1772045298858348500,8.1863486328125,0.5972101063460111,-1.8012533029079436,-2.168439432615042
1772045298868334600,8.19633447265625,0.48639060128033157,-2.071402369186282,-2.49416542468667
1772045298878319600,8.206319580078125,0.3811620480895042,-2.3811188912212846,-2.8074358398109673
1772045298888305700,8.2163056640625,0.32059272083640095,-2.7293191654294726,-3.0949352693408727
1772045298898291700,8.226291748046876,0.2962824554443359,-3.0513907266467806,-3.376878233787417
1772045298908276500,8.2362763671875,0.23328034808635711,-3.3631244337230917,-3.615778759843111
1772045298918262500,8.246262451171875,0.1767828003168106,-3.6287978158921,-3.811001472213864
1772045298928248600,8.25624853515625,0.1071557127279695,-3.835561328452825,-3.958900123351812
1772045298938233600,8.266233642578126,0.01628476158035919,-4.015006041455268,-4.104257273313403
1772045298948219600,8.2762197265625,-0.05572013365626335,-4.136793515259027,-4.3221226101249455
1772045298958205700,8.286205810546875,-0.13399462894797323,-4.211992840889096,-4.558050257849693
1772045298968190700,8.296190673828125,-0.22385900600207967,-4.217602497464418,-4.779011222589015
1772045298978176500,8.306176513671875,-0.2690752813006751,-4.170080867832898,-4.919520932519435
1772045298988162600,8.31616259765625,-0.3337631680548191,-4.0983004107356065,-4.988265967443585
1772045298998147600,8.326147705078125,-0.37592586446907367,-4.100366111093759,-4.979590493556857
1772045299008133600,8.336133544921875,-0.39497075667884196,-4.268680358272791,-4.928589205116033
1772045299018119700,8.34611962890625,-0.3533703703224659,-4.54869381596148,-4.916852005571126
1772045299028104400,8.3561044921875,-0.18093758190870285,-4.783376432061195,-4.9849149034500115
1772045299038090800,8.3660908203125,0.07094807966006919,-4.713451831963658,-5.17791000289917
1772045299048076500,8.37607666015625,0.1969605324814096,-4.390079709541797,-5.323295209911465
1772045299058061600,8.3860615234375,0.09939327116608619,-4.157986525413394,-5.2841187992990015
1772045299068047600,8.396047607421876,-0.1459750261316076,-3.9001743781387805,-5.318052633082867
1772045299078033700,8.40603369140625,-0.3901122107317671,-3.6194653394013643,-5.5583495819330215
1772045299088018700,8.416018798828125,-0.6384253293097019,-3.4109880086600777,-5.8476540150582785
1772045299098004500,8.42600439453125,-0.9113198949038982,-3.367853215810656,-6.026466275376081
1772045299107990500,8.435990478515626,-1.1538777744233608,-3.465527992621064,-6.108931208094954
1772045299117975600,8.4459755859375,-1.3164333119451999,-3.609387012979388,-6.054035834825038
1772045299127961600,8.455961669921875,-1.356347973704338,-3.7770460111200808,-5.84645925231576
1772045299137947600,8.46594775390625,-1.2734814744472502,-3.8839503885686395,-5.482192809447646
1772045299147932400,8.475932373046875,-1.1413923868596554,-3.8909365941941734,-5.090453253242373
1772045299157918700,8.485918701171874,-1.0961270117223263,-3.7697096768826244,-4.7814101004242895
1772045299167904500,8.495904541015625,-1.1637012493014336,-3.4635447098493573,-4.630515774601697
1772045299177889500,8.5058896484375,-1.3436217631220817,-3.048305620113015,-4.594937680742144
1772045299187875600,8.51587548828125,-1.5879086583912372,-2.5569571041643617,-4.589840649864077
1772045299197861600,8.525861572265624,-1.8526549888432025,-1.9703654224663971,-4.61072503246069
1772045299207846700,8.5358466796875,-2.0851894869983196,-1.3416624457478523,-4.6267958772957325
1772045299217832400,8.54583251953125,-2.3820447738945485,-0.7405038940370082,-4.653163075217605
1772045299227818500,8.555818603515625,-2.7679005327582358,-0.19821137279272077,-4.71624584659636
1772045299237803800,8.5658037109375,-3.120460755741596,0.3085696900874376,-4.8345577532440425
1772045299247789600,8.57578955078125,-3.4525112746596336,0.7812637744486332,-4.883195235162973
1772045299257775600,8.585775634765625,-3.7230899645268916,1.1740125076964496,-4.806228315338492
1772045299267760600,8.5957607421875,-3.9116520499646663,1.5076935504257678,-4.728970303612948
1772045299277746700,8.60574658203125,-3.952833955180645,1.8298159650474786,-4.6302965788930655
1772045299287732500,8.615732421875,-3.848031518447399,2.0844383763700725,-4.48112425455749
1772045299297717500,8.625717529296875,-3.718701374179125,2.343131982654333,-4.356093268787861
1772045299307703600,8.63570361328125,-3.584931201636791,2.6048341231048107,-4.178326718130707
1772045299317689600,8.645689697265626,-3.452431779682636,2.885587585505843,-3.9791327640414234
1772045299327674600,8.655674560546874,-3.40165903930068,3.198840172712505,-3.8513819979190824
1772045299337660700,8.66566064453125,-3.3604993459165096,3.5209549885496494,-3.7118589609384536
1772045299347646500,8.675646484375,-3.332763782250881,3.825766787408292,-3.5764556342363356
1772045299357631700,8.6856318359375,-3.3284617011427877,4.136159893530607,-3.4930338391840454
1772045299367617500,8.695617431640626,-3.2896646452367304,4.436166922456025,-3.344694458541274
1772045299377603600,8.705603515625,-3.205014185172319,4.720302428510784,-3.128235481396317
1772045299387588600,8.715588623046875,-3.055525049972534,5.019581727683544,-2.8435703985095024
1772045299397574700,8.72557470703125,-2.8926714062869547,5.3036278018891805,-2.5307839675098656
1772045299407560700,8.735560791015626,-2.7557226037085054,5.53132655045092,-2.2043781764805317
1772045299417545500,8.74554541015625,-2.6049521965265274,5.706772549206018,-1.9748300006598234
1772045299427531500,8.755531494140625,-2.4918857893168926,5.849792196130752,-1.782829757466912
1772045299437517600,8.765517578125,-2.4211188931763172,5.975134147545695,-1.588158833760023
1772045299447502600,8.775502685546876,-2.3632366130501032,6.085915658688545,-1.285377079424262
1772045299457488600,8.785488525390624,-2.233036700209975,6.199692844516038,-0.8946902471423148
1772045299467474700,8.795474609375,-2.0308681142240763,6.356974241027236,-0.4597147758007049
1772045299477459700,8.805459716796875,-1.7070331965960561,6.230253986996412,0.11219780768156051
1772045299487445500,8.815445556640626,-1.2069786654919386,6.013196459436417,0.6323147374749183
1772045299497431600,8.825431640625,-0.6744634418964386,5.945538635227083,0.7995598941177129
1772045299507416600,8.83541650390625,-0.2059919436663389,5.768360698112845,0.9664169282257556
1772045299517402600,8.845402587890625,0.1698246517419815,5.543051475036144,1.214424889844656
1772045299527388700,8.855388671875,0.5413023411631583,5.3739054532080885,1.3994757522910832
1772045299537373400,8.86537353515625,0.8866793746441602,5.2167199182868,1.4260603923559187
1772045299547359700,8.87535986328125,1.2341688702344893,5.05409131552875,1.4024053760021924
1772045299557345500,8.885345458984375,1.6826421210527418,4.956670221218467,1.4364075988471507
1772045299567330600,8.89533056640625,2.047681301859021,4.978921215993165,1.4108493792206047
1772045299577316600,8.905316650390626,2.143047217205167,4.958076580885052,1.3957692989885806
1772045299587302700,8.915302734375,2.166760101225972,4.688733278031647,1.5380775827735662
1772045299597287700,8.92528759765625,2.279695575532317,4.233267976368963,1.5603484512925148
1772045299607273500,8.9352734375,2.5951322287797924,3.8833269959732886,1.2928735726594924
1772045299617259500,8.945259521484376,2.9251620555251834,3.7403766148924826,0.7557341963946819
1772045299627244500,8.95524462890625,2.9407424864947793,3.5107404685273766,0.25454057825803755
1772045299637230600,8.965230712890625,2.6187135953754184,2.9676988824814554,0.11258826830387114
1772045299647216600,8.975216552734375,2.2754946167111396,2.688136091169715,-0.27284897288680077
1772045299657201400,8.985201416015625,1.9727742371737955,2.656163328325748,-0.7745867809027432
1772045299667187700,8.995187744140624,1.7144897962123156,2.4748680190205574,-0.9188158036172389
1772045299677173500,9.005173583984375,1.6058265923976898,2.0569021346688268,-0.844000801129639
1772045299687158500,9.015158447265625,1.6302905870467423,1.7350678893387317,-0.6493208173334598
1772045299697144600,9.02514453125,1.4829916553676128,1.7167561337091028,-0.5538473499596118
1772045299707129600,9.035129638671876,0.9325175812333821,1.573643693934381,-0.37851036453694104
1772045299717115600,9.04511572265625,0.14680968685746193,0.3226175046622753,-0.01621551400274038
1772045299727101400,9.055101318359375,-0.2586667182773352,-0.7352123635001481,0.984866777151823
1772045299737086500,9.06508642578125,-0.24094635266959666,-0.5401951105736196,1.2489061283782124
1772045299747072800,9.07507275390625,0.27317981227636334,-0.49408290934860705,0.3042705315887928
1772045299757058600,9.08505859375,0.14496902742683887,-0.1963185447834432,-0.38101927861794826
1772045299767043600,9.095043701171875,-0.6472007564395665,0.03836268307678401,-0.2960495234712958
1772045299777029600,9.105029541015625,-1.6518535995572805,0.48747795812562106,-0.4645375197820365
1772045299787015700,9.115015625,-2.830901471072435,1.0349509507477284,-1.2409588226355612
1772045299797000700,9.125000732421874,-3.0535826837331053,1.219227687016502,-1.845052404884994
1772045299806986500,9.134986572265625,-2.565523272457719,1.4372458032369613,-2.25813504723981
1772045299816972500,9.14497265625,-1.9757552988111973,2.0254078029915688,-2.465015318048
1772045299826957800,9.154957763671876,-1.3758575608164072,2.701357976314425,-2.4924694344237444
1772045299836944000,9.16494384765625,-0.49260932966470716,3.079899028250575,-2.587702955561876
1772045299846929700,9.1749296875,0.3969716116398573,3.185359052109718,-2.6679642407566306
1772045299856914700,9.184914794921875,1.064513729840517,3.2511768014103173,-2.7952611256316304
1772045299866900700,9.194900634765625,1.50813720254004,3.3171932881534096,-2.8254204093128443
1772045299876886800,9.20488671875,1.6589923653960228,3.1472067238479853,-2.6744337290316818
1772045299886871800,9.214871826171875,1.739282292163372,2.496332831853628,-2.484072485217452
1772045299896857900,9.22485791015625,1.8677777391731738,1.4723054261803625,-1.9662357753157615
1772045299906844000,9.234843994140626,2.075238586348295,0.5984890402406454,-1.090924255447462
1772045299916829000,9.244828857421876,2.2767069151103496,0.18791122031360863,-0.6835020500071346
1772045299926814700,9.254814697265624,2.362380288481712,-0.010729629937559366,-0.6720127608086913
1772045299936800800,9.26480078125,2.2211182988792655,-0.08771540059298276,-0.8381777209993452
1772045299946785800,9.274785888671875,2.104569894772768,0.06768968065232038,-1.197160451310873
1772045299956771800,9.284771728515626,1.955447839319706,0.27351591236293316,-1.4964318594381212
1772045299966758000,9.2947578125,1.773465716794133,0.3607721710115671,-1.5282447555452585
1772045299976742700,9.30474267578125,1.7513474084883927,0.20219430494904517,-1.332372200963646
1772045299986729000,9.31472900390625,1.8878069662451742,0.06484130548387765,-1.05536946939826
1772045299996714000,9.3247138671875,2.0837498095840212,0.03226969996392727,-0.8019191705949604
1772045300006699800,9.33469970703125,2.200581706807017,-0.03668459379673004,-0.5833907302321866
1772045300016684800,9.344684814453124,2.1766613175153733,-0.16339140382409095,-0.3897928060516715
1772045300026670600,9.354670654296875,2.3507576552271843,-0.14567366856485606,-0.3284420826299116
1772045300036657000,9.364656982421875,2.7489766365796324,-0.05613689776360988,-0.2891007637793198
1772045300046642000,9.374641845703126,2.97891761111021,-0.13293752111047505,-0.3378954090213403
1772045300056627700,9.384627685546874,2.905720272952318,-0.41879999708831306,-0.4073965595424175
1772045300066614000,9.394614013671875,2.7658979607641694,-0.7316521868005395,-0.5468593907684087
1772045300076598800,9.404598876953125,2.677126621377468,-0.9456012269511819,-0.7446244080331176
1772045300086584800,9.414584716796876,2.537333535283804,-0.8406240181729197,-0.9103099872089921
1772045300096570600,9.424570556640624,2.152485492157936,-0.697654055608809,-0.7857773794155567
1772045300106555600,9.4345556640625,1.9136773205608129,-0.5972349485263229,-0.674022054804489
1772045300116542000,9.4445419921875,1.93037418833971,-0.6369058646574616,-0.5900362326612696
1772045300126527700,9.45452783203125,2.053310247656703,-0.7194310031309723,-0.5019651870310307
1772045300136512800,9.4645126953125,2.083463393858075,-0.898207315352559,-0.501655828820914
1772045300146498600,9.47449853515625,1.7958786241322755,-1.0912702193409203,-0.4848050125893205
1772045300156484900,9.48448486328125,1.4192758467823265,-0.9384902259021997,-0.623588994705677
1772045300166470000,9.494469970703125,0.9607873979061842,-0.7535027840808034,-0.4835950888102874
1772045300176455700,9.50445556640625,0.5759422773897648,-0.6082675069332123,-0.1931716433261521
1772045300186442000,9.51444189453125,0.5357224952042102,-0.44766602608859535,-0.030259127326495945
1772045300196426800,9.5244267578125,0.48172728564441203,-0.5750459130719304,0.11965627046134322
1772045300206412800,9.534412841796875,0.36100597976744175,-0.8550684308499097,0.22975049345977602
1772045300216397800,9.544397705078126,0.4851473232209682,-1.0295704267531633,0.15802156562032177
1772045300226383600,9.554383544921874,0.8055465673118829,-1.0810229660928248,-0.1708819057099521
1772045300236370000,9.564369873046875,1.0555576854467392,-0.9789221895337105,-0.49946628288738426
1772045300246355000,9.57435498046875,1.234507308408618,-1.0397843622535468,-0.5705503552183508
1772045300256340700,9.5843408203125,1.4120207610875368,-0.8797823086068034,-0.6442055932115763
1772045300266326800,9.594326904296874,1.3004384549558161,-0.7762596825510263,-0.6160613026145846
1772045300276311800,9.604311767578125,0.888804111713171,-0.7779208937615155,-0.49452100850492714
1772045300286297900,9.6142978515625,0.5196873062044381,-0.907329071702063,-0.2680581949463114
1772045300296283600,9.62428369140625,0.4133844017803669,-1.0134414219900965,-0.13140131538598798
