time,seconds_elapsed,z,y,x
1772045290749952500,0.077952392578125,0.3685474693775177,0.05366193875670433,0.4913853704929352
1772045290759938800,0.087938720703125,0.21006622910499573,-0.040983181446790695,0.5481564998626709
1772045290769924600,0.097924560546875,0.013236785307526588,-0.17566323280334473,0.601408839225769
1772045290779909600,0.10790966796875,-0.2147468626499176,-0.38702261447906494,0.6055657267570496
1772045290789895700,0.117895751953125,-0.46300968527793884,-0.6410961747169495,0.5455982089042664
1772045290799881700,0.1278818359375,-0.701504647731781,-0.8536252379417419,0.4287976026535034
1772045290809866800,0.13786669921875,-0.891294538974762,-1.0074126720428467,0.2553454041481018
1772045290819852000,0.14785205078125,-1.0324440002441406,-1.0617674589157104,0.0743633359670639
1772045290829838300,0.15783837890625,-1.0957188606262207,-0.9197280406951904,-0.060843486338853836
1772045290839823400,0.1678232421875,-1.0808247327804565,-0.7089550495147705,-0.1467890739440918
1772045290849809200,0.17780908203125,-1.01040518283844,-0.563653290271759,-0.18646937608718872
1772045290859795200,0.187795166015625,-0.9028977155685425,-0.48736196756362915,-0.1824743002653122
1772045290869781200,0.19778125,-0.7788093090057373,-0.10021823644638062,-0.17227491736412048
1772045290879766300,0.207766357421875,-0.6163830757141113,0.0315205454826355,-0.1672188937664032
1772045290889752000,0.217751953125,-0.4455690085887909,0.03333282843232155,-0.1908635050058365
1772045290899738000,0.227738037109375,-0.293500691652298,-0.035160571336746216,-0.2634577453136444
1772045290909723400,0.237723388671875,-0.14561642706394196,-0.2530103325843811,-0.3545799255371094
1772045290919709200,0.247709228515625,-0.06179232522845268,-0.500602126121521,-0.4323027431964874
1772045290929695200,0.2576953125,-0.0591408833861351,-0.7518457770347595,-0.4578770697116852
1772045290939680000,0.267679931640625,-0.07445763051509857,-0.9398878216743469,-0.39193418622016907
1772045290949666300,0.277666259765625,-0.056307390332221985,-0.9684150815010071,-0.2563702464103699
1772045290959652000,0.287652099609375,0.04587342590093613,-0.9394278526306152,-0.08520199358463287
1772045290969637000,0.29763720703125,0.238770991563797,-0.9060837030410767,0.04424281790852547
1772045290979623200,0.307623046875,0.582406222820282,-0.928878664970398,0.02144884131848812
1772045290989609200,0.317609130859375,1.0131142139434814,-1.4531751871109009,-0.0775347352027893
1772045290999594200,0.32759423828125,1.231101632118225,-1.997939944267273,-0.14191745221614838
1772045291009580000,0.337580078125,1.241864562034607,-2.2578482627868652,-0.12289848923683167
1772045291019566000,0.347566162109375,1.1875278949737549,-2.2983899116516113,-0.04104520007967949
1772045291029552000,0.35755224609375,1.1543354988098145,-2.324431896209717,0.10143019258975983
1772045291039537200,0.367537109375,1.1300410032272339,-2.4034717082977295,0.2984277904033661
1772045291049523200,0.377523193359375,1.07212233543396,-2.5102086067199707,0.509164571762085
1772045291059509200,0.38750927734375,0.9808005094528198,-2.6456034183502197,0.7037113308906555
1772045291069494300,0.397494384765625,0.8951188921928406,-2.8140993118286133,0.8822882771492004
1772045291079480000,0.40747998046875,0.87577223777771,-2.985997438430786,1.0475438833236694
1772045291089466000,0.417466064453125,0.9315721392631531,-3.0686347484588623,1.2217782735824585
1772045291099451100,0.427451171875,1.027844786643982,-3.0713987350463867,1.406701922416687
1772045291109437200,0.437437255859375,1.1244627237319946,-3.0283944606781006,1.5570354461669922
1772045291119423200,0.44742333984375,1.215798020362854,-2.9758098125457764,1.6580719947814941
1772045291129408000,0.457407958984375,1.3295320272445679,-2.912341833114624,1.7392102479934692
1772045291139394300,0.467394287109375,1.4502848386764526,-2.8904519081115723,1.8351455926895142
1772045291149380000,0.477380126953125,1.5513930320739746,-2.9010415077209473,1.9285029172897339
1772045291159365000,0.487365234375,1.6396567821502686,-3.0683770179748535,2.0334784984588623
1772045291169351200,0.49735107421875,1.743107795715332,-3.2500181198120117,2.147829055786133
1772045291179337200,0.507337158203125,1.836010217666626,-3.363938808441162,2.2115209102630615
1772045291189323300,0.5173232421875,1.9479178190231323,-3.3076066970825195,2.156982183456421
1772045291199308000,0.52730810546875,2.0809342861175537,-3.006089448928833,1.9690206050872803
1772045291209294000,0.537294189453125,2.27545428276062,-2.5924015045166016,1.6629283428192139
1772045291219280100,0.547280029296875,2.5367321968078613,-2.3061068058013916,1.3161033391952515
1772045291229265200,0.55726513671875,2.767317533493042,-2.209129810333252,1.0399705171585083
1772045291239251200,0.567251220703125,2.8880956172943115,-2.229607343673706,0.8670070171356201
1772045291249237000,0.577237060546875,2.831901788711548,-2.380188226699829,0.7432296872138977
1772045291259222300,0.58722216796875,2.608748197555542,-2.5814049243927,0.6528659462928772
1772045291269208300,0.597208251953125,2.313093662261963,-2.718991279602051,0.6000621318817139
1772045291279194000,0.607194091796875,1.9921047687530518,-2.719421863555908,0.5982372760772705
1772045291289179100,0.61717919921875,1.668039083480835,-2.5627658367156982,0.6899152398109436
1772045291299165200,0.627165283203125,1.4135419130325317,-2.361018657684326,0.8905683755874634
1772045291309151200,0.637151123046875,1.251056432723999,-2.149670362472534,1.1709585189819336
1772045291319136300,0.64713623046875,1.2026556730270386,-1.9492746591567993,1.4277374744415283
1772045291329122000,0.6571220703125,1.3045673370361328,-1.76386296749115,1.529533863067627
1772045291339108400,0.6671083984375,1.4500023126602173,-1.5826345682144165,1.5440380573272705
1772045291349093000,0.677093017578125,1.6112021207809448,-1.4507170915603638,1.4990878105163574
1772045291359079200,0.6870791015625,1.7241226434707642,-1.2844064235687256,1.412590742111206
1772045291369065200,0.697065185546875,1.7260271310806274,-1.1550707817077637,1.2990037202835083
1772045291379051300,0.70705126953125,1.657525658607483,-1.070480227470398,1.2034404277801514
1772045291389036300,0.717036376953125,1.5936864614486694,-0.9945770502090454,1.144461989402771
1772045291399022000,0.72702197265625,1.5601180791854858,-0.9131900072097778,1.0957163572311401
1772045291409008400,0.73700830078125,1.5300483703613281,-0.8133009672164917,1.0002307891845703
1772045291418993200,0.7469931640625,1.518089771270752,-0.7245696783065796,0.8329287171363831
1772045291428979200,0.756979248046875,1.5561054944992065,-0.7455721497535706,0.6247028112411499
1772045291438965000,0.766965087890625,1.6429904699325562,-0.8606825470924377,0.4540872275829315
1772045291448950000,0.776949951171875,1.7709883451461792,-0.9973612427711487,0.3882562816143036
1772045291458936300,0.786936279296875,1.972008228302002,-1.1680270433425903,0.4116820991039276
1772045291468922000,0.796922119140625,2.177091121673584,-1.3191869258880615,0.5327640175819397
1772045291478907100,0.8069072265625,2.3084487915039062,-1.408589243888855,0.7406133413314819
1772045291488893200,0.81689306640625,2.3582651615142822,-1.4373847246170044,0.997347354888916
1772045291498879200,0.826879150390625,2.3637595176696777,-1.4138747453689575,1.2285724878311157
1772045291508864300,0.8368642578125,2.3462581634521484,-1.3758621215820312,1.3956210613250732
1772045291518850000,0.84685009765625,2.3363826274871826,-1.3023196458816528,1.5060327053070068
1772045291528836400,0.85683642578125,2.361772298812866,-1.2220802307128906,1.546979308128357
1772045291538822100,0.866822265625,2.4113399982452393,-1.1436434984207153,1.5230510234832764
1772045291548807200,0.87680712890625,2.481564998626709,-1.062299370765686,1.4478814601898193
1772045291558793000,0.88679296875,2.5612213611602783,-0.976936936378479,1.350430965423584
1772045291568779300,0.896779296875,2.611398696899414,-0.8622763752937317,1.2541265487670898
1772045291578764300,0.906764404296875,2.6325204372406006,-0.7190669775009155,1.1647014617919922
1772045291588750000,0.91675,2.6020901203155518,-0.5857640504837036,1.099179744720459
1772045291598736400,0.926736328125,2.5281763076782227,-0.4699551463127136,1.0663481950759888
1772045291608721200,0.93672119140625,2.4347476959228516,-0.3574456572532654,1.0563180446624756
1772045291618707200,0.946707275390625,2.367967128753662,-0.2722475826740265,1.0515966415405273
1772045291628693000,0.95669287109375,2.348740339279175,-0.20196756720542908,1.0346016883850098
1772045291638678000,0.966677978515625,2.381643533706665,-0.1629439741373062,1.0121943950653076
1772045291648664300,0.976664306640625,2.443713426589966,-0.1547590047121048,0.9781286120414734
1772045291658650000,0.986650146484375,2.510186195373535,-0.18047845363616943,0.941856324672699
1772045291668635100,0.99663525390625,2.520332098007202,-0.23634278774261475,0.9118677973747253
1772045291678621000,1.006620849609375,2.4251201152801514,-0.31159281730651855,0.9157124161720276
1772045291688607200,1.016607177734375,2.214669942855835,-0.3971679210662842,0.9756700396537781
1772045291698593000,1.026593017578125,1.9138705730438232,-0.4752747416496277,1.087609887123108
1772045291708578000,1.036578125,1.5756795406341553,-0.5390859246253967,1.2265299558639526
1772045291718564400,1.046564453125,1.2533246278762817,-0.5905040502548218,1.349941372871399
1772045291728550100,1.056550048828125,0.9857922792434692,-0.6264657378196716,1.4421000480651855
1772045291738535200,1.06653515625,0.7949350476264954,-0.6325669288635254,1.4995908737182617
1772045291748521200,1.076521240234375,0.6578946113586426,-0.6188141107559204,1.5185235738754272
1772045291758507300,1.08650732421875,0.5695049166679382,-0.5917472839355469,1.4994088411331177
1772045291768492300,1.0964921875,0.4821532666683197,-0.5285661816596985,1.4339150190353394
1772045291778478000,1.10647802734375,0.37913820147514343,-0.44776102900505066,1.3471384048461914
1772045291788464000,1.116464111328125,0.2773255705833435,-0.38420361280441284,1.2648403644561768
1772045291798449200,1.12644921875,0.18187262117862701,-0.3189234435558319,1.1879756450653076
1772045291808435200,1.136435302734375,0.09175710380077362,-0.2720201313495636,1.1117067337036133
1772045291818421200,1.146421142578125,0.008976055309176445,-0.23985576629638672,1.0381741523742676
1772045291828406800,1.15640673828125,-0.05898568779230118,-0.21416132152080536,0.9735501408576965
1772045291838392000,1.16639208984375,-0.10479480028152466,-0.19194118678569794,0.9042274951934814
1772045291848377900,1.1763779296875,-0.12324118614196777,-0.1743805706501007,0.822518527507782
1772045291858364000,1.186364013671875,-0.10892726480960846,-0.16025356948375702,0.7313477396965027
1772045291868349000,1.196348876953125,-0.06272594630718231,-0.15677228569984436,0.6244530081748962
1772045291878335000,1.2063349609375,0.0025896476581692696,-0.1682092249393463,0.5122668743133545
1772045291888321000,1.216321044921875,0.06784961372613907,-0.1911875158548355,0.4004359543323517
1772045291898305800,1.226305908203125,0.121954545378685,-0.22766967117786407,0.29129356145858765
1772045291908291800,1.236291748046875,0.15840309858322144,-0.2669486403465271,0.19598700106143951
1772045291918278000,1.24627783203125,0.18584507703781128,-0.31587517261505127,0.11579668521881104
1772045291928263000,1.256262939453125,0.21253660321235657,-0.36808139085769653,0.04746076837182045
1772045291938249000,1.2662490234375,0.2548912763595581,-0.4136211574077606,-0.0029127744492143393
1772045291948235000,1.276235107421875,0.3096810281276703,-0.4648984670639038,-0.04399416595697403
1772045291958221000,1.286220947265625,0.3780907690525055,-0.49977439641952515,-0.08325750380754471
1772045291968205800,1.296205810546875,0.4653977155685425,-0.5308388471603394,-0.11761946976184845
1772045291978192000,1.30619189453125,0.5547052621841431,-0.5586047768592834,-0.13747934997081757
1772045291988178000,1.316177978515625,0.6155155897140503,-0.5879450440406799,-0.13604764640331268
1772045291998163000,1.326162841796875,0.6308637261390686,-0.597387433052063,-0.12624645233154297
1772045292008149000,1.33614892578125,0.6005595922470093,-0.6158681511878967,-0.12763822078704834
1772045292018134800,1.346134765625,0.520392894744873,-0.6449970006942749,-0.15306711196899414
1772045292028119800,1.356119873046875,0.4135146141052246,-0.64970463514328,-0.22367310523986816
1772045292038105900,1.36610595703125,0.32263800501823425,-0.6108667850494385,-0.3223300576210022
1772045292048092000,1.376091796875,0.26084229350090027,-0.5151330828666687,-0.425641804933548
1772045292058077700,1.38607763671875,0.22379745543003082,-0.37415236234664917,-0.5332383513450623
1772045292068063000,1.39606298828125,0.18802480399608612,-0.19938026368618011,-0.6514571309089661
1772045292078049000,1.406049072265625,0.15379656851291656,-0.015009617432951927,-0.7809603810310364
1772045292088034800,1.416034912109375,0.10397867113351822,0.16592048108577728,-0.9004135131835938
1772045292098019800,1.426019775390625,0.04275970160961151,0.34217244386672974,-1.005507230758667
1772045292108006000,1.436005859375,-0.0337957926094532,0.5096466541290283,-1.0938241481781006
1772045292117992000,1.445991943359375,-0.12703631818294525,0.6685855984687805,-1.1593191623687744
1772045292127977700,1.455977783203125,-0.21928901970386505,0.8157771825790405,-1.1908278465270996
1772045292137962800,1.465962646484375,-0.30731722712516785,0.9651273488998413,-1.1793228387832642
1772045292147949000,1.475948974609375,-0.38658809661865234,1.1281615495681763,-1.131225824356079
1772045292157934800,1.485934814453125,-0.4475973844528198,1.2740271091461182,-1.0964316129684448
1772045292167919900,1.495919921875,-0.5096927285194397,1.3931779861450195,-1.0792592763900757
1772045292177906000,1.505906005859375,-0.5705960392951965,1.4605712890625,-1.0651304721832275
1772045292187892000,1.51589208984375,-0.6589083075523376,1.4537445306777954,-1.0152018070220947
1772045292197877000,1.525876953125,-0.7839712500572205,1.3886590003967285,-0.9101192951202393
1772045292207862800,1.53586279296875,-0.9392830729484558,1.246490478515625,-0.7597976922988892
1772045292217849000,1.54584912109375,-1.104859471321106,1.0248050689697266,-0.5689851641654968
1772045292227835000,1.5558349609375,-1.2487499713897705,0.758491575717926,-0.3802003264427185
1772045292237820000,1.56581982421875,-1.3643803596496582,0.47183161973953247,-0.21035891771316528
1772045292247806000,1.575805908203125,-1.442155361175537,0.19352036714553833,-0.08408034592866898
1772045292257792000,1.5857919921875,-1.4751369953155518,-0.043500859290361404,0.0027480926364660263
1772045292267777000,1.595777099609375,-1.4798153638839722,-0.22296357154846191,0.06199437379837036
1772045292277762800,1.6057626953125,-1.461895227432251,-0.35041216015815735,0.09005314111709595
1772045292287748900,1.615748779296875,-1.4426770210266113,-0.41441085934638977,0.09696324914693832
1772045292297735000,1.62573486328125,-1.4249809980392456,-0.42802202701568604,0.07222995907068253
1772045292307720000,1.635719970703125,-1.409546971321106,-0.40460485219955444,0.0409625805914402
1772045292317706000,1.6457060546875,-1.3917502164840698,-0.3258371353149414,0.009643860161304474
1772045292327692000,1.655692138671875,-1.3644049167633057,-0.22478827834129333,-0.019473811611533165
1772045292337677000,1.665677001953125,-1.3390798568725586,-0.1210237368941307,-0.0505252406001091
1772045292347662800,1.675662841796875,-1.3090580701828003,-0.025863928720355034,-0.07892438769340515
1772045292357649000,1.68564892578125,-1.2739012241363525,0.05357521399855614,-0.09963367879390717
1772045292367635000,1.695635009765625,-1.238080382347107,0.10768584907054901,-0.1223970428109169
1772045292377620000,1.705619873046875,-1.207200527191162,0.1500598043203354,-0.1495373547077179
1772045292387606000,1.71560595703125,-1.177621603012085,0.18102358281612396,-0.17720119655132294
1772045292397591800,1.725591796875,-1.1436065435409546,0.19762755930423737,-0.1832580864429474
1772045292407577000,1.7355771484375,-1.1106189489364624,0.19178059697151184,-0.17494477331638336
1772045292417563000,1.74556298828125,-1.0721865892410278,0.17237436771392822,-0.14930029213428497
1772045292427549000,1.755548828125,-1.0283809900283813,0.13872532546520233,-0.1110631674528122
1772045292437534700,1.76553466796875,-0.9753598570823669,0.1068367138504982,-0.06316488236188889
1772045292447520000,1.77552001953125,-0.9114142060279846,0.07683540880680084,-0.020501302555203438
1772045292457506000,1.785506103515625,-0.8463902473449707,0.04610028862953186,0.01705426350235939
1772045292467491800,1.795491943359375,-0.7685465812683105,0.009240278042852879,0.0547848604619503
1772045292477476900,1.805476806640625,-0.6890198588371277,-0.0143695417791605,0.09390630573034286
1772045292487463000,1.815462890625,-0.60068279504776,-0.037806689739227295,0.12802912294864655
1772045292497449000,1.825448974609375,-0.5169128775596619,-0.05843823403120041,0.16067248582839966
1772045292507434800,1.835434814453125,-0.43944740295410156,-0.05982866883277893,0.17992687225341797
1772045292517419800,1.845419677734375,-0.3608788847923279,-0.06730347871780396,0.1943815052509308
1772045292527406000,1.855406005859375,-0.28647947311401367,-0.07527139037847519,0.20812928676605225
1772045292537391900,1.865391845703125,-0.2256874144077301,-0.07859551161527634,0.22913500666618347
1772045292547378000,1.8753779296875,-0.17525672912597656,-0.07865862548351288,0.24226438999176025
1772045292557363000,1.885363037109375,-0.11607414484024048,-0.07920513302087784,0.24969983100891113
1772045292567349000,1.895348876953125,-0.053827010095119476,-0.09443441778421402,0.2493986189365387
1772045292577334800,1.905334716796875,0.030930444598197937,-0.11824823170900345,0.25163382291793823
1772045292587319800,1.91531982421875,0.14048516750335693,-0.15494684875011444,0.2478470802307129
1772045292597306000,1.92530615234375,0.28217101097106934,-0.183218315243721,0.23683127760887146
1772045292607292000,1.9352919921875,0.44963428378105164,-0.20803818106651306,0.22090370953083038
1772045292617278000,1.94527783203125,0.6258851289749146,-0.22002625465393066,0.2126189023256302
1772045292627262700,1.9552626953125,0.7914181351661682,-0.22551396489143372,0.21450655162334442
1772045292637249000,1.9652490234375,0.9336414933204651,-0.223799467086792,0.20735478401184082
1772045292647234800,1.97523486328125,1.0170120000839233,-0.23331335186958313,0.19467946887016296
1772045292657220900,1.985220947265625,1.065895676612854,-0.23389524221420288,0.16152071952819824
1772045292667206000,1.995205810546875,1.1036698818206787,-0.21497881412506104,0.10767214000225067
1772045292677192000,2.00519189453125,1.1542861461639404,-0.15588675439357758,0.04664164036512375
1772045292687178000,2.015177978515625,1.2275267839431763,-0.09717205166816711,-0.007264467887580395
1772045292697163800,2.025163818359375,1.316132664680481,-0.03887864947319031,-0.039335962384939194
1772045292707149000,2.035149169921875,1.4296519756317139,0.017741752788424492,-0.04681944474577904
1772045292717134800,2.045134765625,1.549511432647705,0.0788203552365303,-0.05710461735725403
1772045292727121000,2.055120849609375,1.6480313539505005,0.12704861164093018,-0.05832913890480995
1772045292737106000,2.06510595703125,1.705559492111206,0.1693606823682785,-0.047561075538396835
1772045292747092000,2.075092041015625,1.705041527748108,0.18793275952339172,-0.020673269405961037
1772045292757078000,2.085078125,1.6217963695526123,0.16383424401283264,0.012189922854304314
1772045292767063800,2.095063720703125,1.480757713317871,0.10031092911958694,0.04913356155157089
1772045292777048800,2.105048828125,1.3094415664672852,0.008302551694214344,0.08373351395130157
1772045292787035000,2.115034912109375,1.156263828277588,-0.09106424450874329,0.120977021753788
1772045292797021000,2.12502099609375,1.029627799987793,-0.18581722676753998,0.1588122397661209
1772045292807006700,2.1350068359375,0.929787278175354,-0.2511831820011139,0.19282878935337067
1772045292816991700,2.14499169921875,0.8646961450576782,-0.29085415601730347,0.2262190729379654
1772045292826978600,2.154978515625,0.8105080127716064,-0.3046133816242218,0.2615352272987366
1772045292836964600,2.164964599609375,0.7687532305717468,-0.27952805161476135,0.29743942618370056
1772045292846950700,2.17495068359375,0.7324362397193909,-0.2292395830154419,0.33074676990509033
1772045292856935700,2.184935791015625,0.6909303069114685,-0.17940324544906616,0.373409628868103
1772045292866921700,2.194921630859375,0.6398069262504578,-0.14132803678512573,0.4118318557739258
1772045292876907800,2.20490771484375,0.5772426724433899,-0.12542477250099182,0.4445834159851074
1772045292886892800,2.214892822265625,0.5101877450942993,-0.13447286188602448,0.4691050052642822
1772045292896878600,2.224878662109375,0.44732359051704407,-0.1402357518672943,0.47979211807250977
1772045292906864600,2.23486474609375,0.38037997484207153,-0.14109301567077637,0.48736295104026794
1772045292916850700,2.2448505859375,0.32082462310791016,-0.13926464319229126,0.4855189919471741
1772045292926835700,2.254835693359375,0.2514846920967102,-0.11908214539289474,0.47858545184135437
1772045292936821800,2.26482177734375,0.17456020414829254,-0.09020340442657471,0.46475884318351746
1772045292946807600,2.2748076171875,0.10291823744773865,-0.0549175851047039,0.44611138105392456
1772045292956793900,2.2847939453125,0.03614959120750427,-0.028808750212192535,0.4090942442417145
1772045292966779000,2.29477880859375,-0.013326083309948444,-0.0076731047593057156,0.3558616638183594
1772045292976764700,2.3047646484375,-0.049058061093091965,-0.006543506868183613,0.29030224680900574
1772045292986750700,2.314750732421875,-0.06820538640022278,-0.02605009637773037,0.2172386795282364
1772045292996736800,2.32473681640625,-0.08201715350151062,-0.07043685019016266,0.1416449099779129
1772045293006721800,2.3347216796875,-0.09220027923583984,-0.13788406550884247,0.06920985877513885
1772045293016707600,2.34470751953125,-0.09003861993551254,-0.21985600888729095,0.006567775271832943
1772045293026694000,2.35469384765625,-0.07688553631305695,-0.31042104959487915,-0.035872627049684525
1772045293036679700,2.3646796875,-0.05637040734291077,-0.3912486135959625,-0.06899472326040268
1772045293046664700,2.374664794921875,-0.028562478721141815,-0.46893516182899475,-0.08394011855125427
1772045293056650800,2.384650634765625,-0.009901833720505238,-0.525593638420105,-0.08698049187660217
1772045293066636800,2.39463671875,-0.009502892382442951,-0.5711408853530884,-0.08708355575799942
1772045293076622800,2.404622802734375,-0.028289254754781723,-0.5943077206611633,-0.08706485480070114
1772045293086607600,2.414607666015625,-0.06832882016897202,-0.6021957397460938,-0.0922689363360405
1772045293096593700,2.42459375,-0.12464279681444168,-0.5768544673919678,-0.11390824615955353
1772045293106579700,2.434579833984375,-0.18898025155067444,-0.5317426323890686,-0.1508268564939499
1772045293116564700,2.444564697265625,-0.26835402846336365,-0.4621749818325043,-0.2071312963962555
1772045293126550800,2.45455078125,-0.3656691312789917,-0.37495115399360657,-0.28252166509628296
1772045293136536600,2.46453662109375,-0.4777931272983551,-0.2754962146282196,-0.38034310936927795
1772045293146523000,2.47452294921875,-0.5858317017555237,-0.17210911214351654,-0.4855816662311554
1772045293156507600,2.484507568359375,-0.6760550737380981,-0.06393877416849136,-0.5919924974441528
1772045293166493700,2.49449365234375,-0.7432141304016113,0.045078523457050323,-0.6878175735473633
1772045293176479700,2.504479736328125,-0.7848549485206604,0.14337317645549774,-0.7658402919769287
1772045293186465800,2.5144658203125,-0.8081754446029663,0.22726169228553772,-0.8287063241004944
1772045293196450800,2.524450927734375,-0.8148675560951233,0.2924329936504364,-0.8849546313285828
1772045293206436600,2.5344365234375,-0.8068215847015381,0.33855149149894714,-0.9311993718147278
1772045293216423000,2.5444228515625,-0.7948197722434998,0.4002365469932556,-0.9591259360313416
1772045293226408700,2.55440869140625,-0.7960922122001648,0.45169758796691895,-0.9806256294250488
1772045293236393700,2.564393798828125,-0.8275955319404602,0.4833562970161438,-0.9940839409828186
1772045293246379500,2.574379638671875,-0.8939615488052368,0.5005757212638855,-1.0161300897598267
1772045293256365800,2.58436572265625,-0.9416006803512573,0.5065231919288635,-1.0548256635665894
1772045293266351600,2.5943515625,-0.9602369070053101,0.5244305729866028,-1.0807592868804932
1772045293276336600,2.604336669921875,-0.9561478495597839,0.5469791293144226,-1.0971627235412598
1772045293286322700,2.61432275390625,-0.9471050500869751,0.5528676509857178,-1.1127235889434814
1772045293296308700,2.624308837890625,-0.9219657778739929,0.5544478893280029,-1.1390527486801147
1772045293306294800,2.634294677734375,-0.8682609796524048,0.5455837845802307,-1.17118239402771
1772045293316279600,2.644279541015625,-0.7706161737442017,0.5377652645111084,-1.203800916671753
1772045293326265900,2.654265869140625,-0.617194414138794,0.500882625579834,-1.2246606349945068
1772045293336251600,2.664251708984375,-0.4452936351299286,0.46258658170700073,-1.2240842580795288
1772045293346237700,2.67423779296875,-0.2762921154499054,0.4306992292404175,-1.203071117401123
1772045293356222700,2.68422265625,-0.13118764758110046,0.391400545835495,-1.160595178604126
1772045293366208800,2.694208740234375,-0.012999484315514565,0.35277673602104187,-1.102312445640564
1772045293376194800,2.70419482421875,0.08837755024433136,0.31315645575523376,-1.033032774925232
1772045293386180600,2.7141806640625,0.1798883080482483,0.3011234998703003,-0.9553797841072083
1772045293396165600,2.72416552734375,0.2457059621810913,0.2998509705066681,-0.8785721063613892
1772045293406151700,2.734151611328125,0.284354567527771,0.31575483083724976,-0.8034765720367432
1772045293416137700,2.7441376953125,0.2972868084907532,0.3485020101070404,-0.7363231778144836
1772045293426123500,2.75412353515625,0.29084354639053345,0.38326263427734375,-0.6878381967544556
1772045293436108800,2.76410888671875,0.2698459327220917,0.4157266318798065,-0.6719053983688354
1772045293446094800,2.7740947265625,0.23891015350818634,0.44136542081832886,-0.6700798273086548
1772045293456080600,2.78408056640625,0.21439331769943237,0.4750171899795532,-0.6727816462516785
1772045293466066700,2.794066650390625,0.21258875727653503,0.510287344455719,-0.6707070469856262
1772045293476051700,2.8040517578125,0.2348909080028534,0.5548578500747681,-0.6578090190887451
1772045293486037800,2.814037841796875,0.27743303775787354,0.5946382880210876,-0.6344695687294006
1772045293496023600,2.8240234375,0.3432021141052246,0.6257697343826294,-0.60797518491745
1772045293506009900,2.834009765625,0.43608200550079346,0.6266395449638367,-0.5674565434455872
1772045293515995000,2.843994873046875,0.531869649887085,0.6049867272377014,-0.5202171802520752
1772045293525980700,2.853980712890625,0.611964225769043,0.5790289044380188,-0.46991753578186035
1772045293535966700,2.863966796875,0.6749182939529419,0.5366659164428711,-0.418173223733902
1772045293545952800,2.873952880859375,0.7275642156600952,0.48862725496292114,-0.36737877130508423
1772045293555937800,2.883937744140625,0.7670196294784546,0.42177221179008484,-0.32201269268989563
1772045293565923600,2.893923583984375,0.8032492995262146,0.35424378514289856,-0.2735317051410675
1772045293575909600,2.90390966796875,0.837724506855011,0.27091020345687866,-0.22440050542354584
1772045293585895700,2.913895751953125,0.8734294772148132,0.19402474164962769,-0.19050991535186768
1772045293595880700,2.923880615234375,0.9101835489273071,0.12382480502128601,-0.1627606898546219
1772045293605866800,2.93386669921875,0.9527243375778198,0.07911725342273712,-0.1471385955810547
1772045293615852500,2.9438525390625,0.9946311116218567,0.04553571343421936,-0.14710204303264618
1772045293625838800,2.9538388671875,1.029244065284729,0.02229510433971882,-0.166169211268425
1772045293635823600,2.96382373046875,1.0620112419128418,0.015774011611938477,-0.193686380982399
1772045293645809700,2.9738095703125,1.0909494161605835,0.022024983540177345,-0.2164047360420227
1772045293655795700,2.983795654296875,1.118077039718628,0.035843897610902786,-0.24443510174751282
1772045293665781800,2.99378173828125,1.1424721479415894,0.04851282015442848,-0.2648029327392578
1772045293675766800,3.003766845703125,1.1592206954956055,0.0725160464644432,-0.2745472192764282
1772045293685752600,3.013752685546875,1.1715664863586426,0.09379976242780685,-0.28604674339294434
1772045293695739000,3.02373876953125,1.1726173162460327,0.10998063534498215,-0.30800682306289673
1772045293705724700,3.033724609375,1.1664512157440186,0.13968420028686523,-0.3314002752304077
1772045293715709700,3.043709716796875,1.1535098552703857,0.20051175355911255,-0.37599578499794006
1772045293725695500,3.053695556640625,1.1265056133270264,0.27330073714256287,-0.4219840466976166
1772045293735681800,3.063681884765625,1.0946834087371826,0.3567863702774048,-0.46541327238082886
1772045293745667600,3.07366748046875,1.0525476932525635,0.4365070164203644,-0.49604442715644836
1772045293755652600,3.083652587890625,1.0061156749725342,0.46928855776786804,-0.503875732421875
1772045293765639000,3.093638916015625,0.9716455340385437,0.46230122447013855,-0.4867156147956848
1772045293775624700,3.103624755859375,0.9572537541389465,0.41701802611351013,-0.4549686312675476
1772045293785610800,3.11361083984375,0.9674334526062012,0.33467042446136475,-0.4188345968723297
1772045293795595500,3.123595458984375,0.9964460730552673,0.2043336182832718,-0.3655519187450409
1772045293805581800,3.133581787109375,1.0292847156524658,0.06284892559051514,-0.2934899926185608
1772045293815567600,3.143567626953125,1.0456016063690186,-0.07455591857433319,-0.20125636458396912
1772045293825553000,3.153552978515625,1.0374256372451782,-0.19174647331237793,-0.0949096754193306
1772045293835538200,3.1635380859375,0.992206335067749,-0.26902836561203003,0.0011876651551574469
1772045293845524000,3.17352392578125,0.8815363049507141,-0.3118080496788025,0.044483207166194916
1772045293855510000,3.183510009765625,0.7241383790969849,-0.3660682439804077,0.024265233427286148
1772045293865496000,3.19349609375,0.5785928964614868,-0.3841921389102936,-0.031345564872026443
1772045293875481000,3.203481201171875,0.45432719588279724,-0.36442816257476807,-0.07512383908033371
1772045293885467100,3.213467041015625,0.34585317969322205,-0.33054131269454956,-0.09029266983270645
1772045293895453000,3.223452880859375,0.23589499294757843,-0.30655476450920105,-0.08755045384168625
1772045293905439200,3.233439208984375,0.10901162028312683,-0.3018236756324768,-0.06646434962749481
1772045293915424000,3.243424072265625,-0.022050419822335243,-0.31882044672966003,-0.03333217650651932
1772045293925410000,3.25341015625,-0.1638384461402893,-0.3538029193878174,0.016816746443510056
1772045293935395800,3.263395751953125,-0.3098316192626953,-0.39198219776153564,0.0835874080657959
1772045293945381000,3.273381103515625,-0.45965680480003357,-0.41045814752578735,0.16546709835529327
1772045293955367200,3.2833671875,-0.6219394207000732,-0.4136095345020294,0.24817752838134766
1772045293965353000,3.29335302734375,-0.8022482395172119,-0.4074115455150604,0.32509976625442505
1772045293975339000,3.303339111328125,-0.9794608950614929,-0.3947736322879791,0.36199724674224854
1772045293985324000,3.313323974609375,-1.1501531600952148,-0.370193213224411,0.36626896262168884
1772045293995310000,3.32331005859375,-1.3026944398880005,-0.3323206901550293,0.350148469209671
1772045294005295900,3.3332958984375,-1.426828384399414,-0.28743603825569153,0.32790815830230713
1772045294015282200,3.3432822265625,-1.5179790258407593,-0.24993175268173218,0.3140007555484772
1772045294025267200,3.35326708984375,-1.5835777521133423,-0.22750286757946014,0.32489416003227234
1772045294035253000,3.3632529296875,-1.6346246004104614,-0.23254592716693878,0.34741145372390747
1772045294045239000,3.373239013671875,-1.6768122911453247,-0.2654205560684204,0.39229637384414673
1772045294055225000,3.38322509765625,-1.7131603956222534,-0.32816770672798157,0.45075494050979614
1772045294065210000,3.393210205078125,-1.7460813522338867,-0.40238523483276367,0.5233132839202881
1772045294075196000,3.40319580078125,-1.7732328176498413,-0.47263070940971375,0.6031723618507385
1772045294085182000,3.413181884765625,-1.7919764518737793,-0.5473403930664062,0.6816666126251221
1772045294095168000,3.42316796875,-1.8055534362792969,-0.6116046905517578,0.7543985843658447
1772045294105153000,3.433153076171875,-1.8276561498641968,-0.6705487370491028,0.7990176677703857
1772045294115139000,3.44313916015625,-1.8535946607589722,-0.7226780652999878,0.8176268935203552
1772045294125124900,3.453124755859375,-1.886936068534851,-0.7651706337928772,0.8160585761070251
1772045294135111200,3.463111083984375,-1.9233697652816772,-0.7878756523132324,0.7998637557029724
1772045294145096000,3.473095947265625,-1.9548991918563843,-0.7953876256942749,0.7781275510787964
1772045294155082000,3.48308203125,-1.9873268604278564,-0.7786471843719482,0.7428736686706543
1772045294165068000,3.493068115234375,-2.011197090148926,-0.740034818649292,0.6984316110610962
1772045294175054000,3.50305419921875,-2.039135694503784,-0.674728512763977,0.6458188891410828
1772045294185039000,3.5130390625,-2.059715986251831,-0.5878333449363708,0.5835970640182495
1772045294195025000,3.52302490234375,-2.0739078521728516,-0.498233824968338,0.5178972482681274
1772045294205011200,3.53301123046875,-2.06825852394104,-0.4074176251888275,0.42689383029937744
1772045294214997000,3.5429970703125,-2.0482888221740723,-0.3109957277774811,0.3195657730102539
1772045294224982000,3.55298193359375,-2.01662278175354,-0.22898875176906586,0.2106901854276657
1772045294234968000,3.562968017578125,-1.973297119140625,-0.14177311956882477,0.11443107575178146
1772045294244954000,3.5729541015625,-1.9262361526489258,-0.05824067443609238,0.022691572085022926
1772045294254940200,3.582940185546875,-1.8733434677124023,0.013415364548563957,-0.051619622856378555
1772045294264925000,3.592925048828125,-1.8254209756851196,0.07575677335262299,-0.11035697162151337
1772045294274911000,3.602910888671875,-1.779842734336853,0.13168707489967346,-0.151616632938385
1772045294284897000,3.61289697265625,-1.7298530340194702,0.17288057506084442,-0.18487899005413055
1772045294294882000,3.622882080078125,-1.6693283319473267,0.2110251486301422,-0.21275651454925537
1772045294304868000,3.6328681640625,-1.6017831563949585,0.23280368745326996,-0.2204381376504898
1772045294314854100,3.642854248046875,-1.52622389793396,0.25171053409576416,-0.21709316968917847
1772045294324840200,3.652840087890625,-1.4413615465164185,0.2602638304233551,-0.2106131762266159
1772045294334825000,3.662824951171875,-1.3571208715438843,0.2398991882801056,-0.20259533822536469
1772045294344811000,3.67281103515625,-1.2757335901260376,0.21145714819431305,-0.19441437721252441
1772045294354797000,3.682797119140625,-1.187686800956726,0.17141222953796387,-0.19269172847270966
1772045294364783000,3.692783203125,-1.0878324508666992,0.11572765558958054,-0.1897611916065216
1772045294374768000,3.70276806640625,-0.9748347997665405,0.07087907940149307,-0.198194682598114
1772045294384754000,3.71275390625,-0.849358320236206,0.035383664071559906,-0.22190479934215546
1772045294394740200,3.722740234375,-0.7098814845085144,0.014281540177762508,-0.2532634139060974
1772045294404726000,3.73272607421875,-0.5498406887054443,0.01731754280626774,-0.29239511489868164
1772045294414711000,3.7427109375,-0.3759266436100006,0.04006733372807503,-0.33832022547721863
1772045294424697000,3.752697021484375,-0.19589509069919586,0.07791644334793091,-0.38264960050582886
1772045294434683100,3.76268310546875,-0.024102147668600082,0.11569380015134811,-0.4222814440727234
1772045294444669000,3.7726689453125,0.14730848371982574,0.1495084911584854,-0.46929824352264404
1772045294454654000,3.782654052734375,0.3291245102882385,0.19491641223430634,-0.5279596447944641
1772045294464640300,3.79264013671875,0.510887086391449,0.23377007246017456,-0.5923498272895813
1772045294474626000,3.8026259765625,0.6894858479499817,0.2564808130264282,-0.6557504534721375
1772045294484612000,3.812612060546875,0.8564386367797852,0.2816665768623352,-0.7103247046470642
1772045294494596900,3.822596923828125,1.0059235095977783,0.31143516302108765,-0.7485007643699646
1772045294504583200,3.832583251953125,1.1617122888565063,0.34058666229248047,-0.7848483920097351
1772045294514569000,3.84256884765625,1.3210039138793945,0.35745659470558167,-0.8135496377944946
1772045294524554000,3.852553955078125,1.485049843788147,0.3650175631046295,-0.8262315988540649
1772045294534540000,3.8625400390625,1.6453907489776611,0.3731212615966797,-0.8335217833518982
1772045294544526000,3.872526123046875,1.80007004737854,0.3734584152698517,-0.8275269865989685
1772045294554512100,3.88251220703125,1.935553789138794,0.3677663803100586,-0.7990418076515198
1772045294564497000,3.892496826171875,2.0515835285186768,0.36174896359443665,-0.753523588180542
1772045294574483200,3.902483154296875,2.1419012546539307,0.3359183669090271,-0.7153584957122803
1772045294584469000,3.912468994140625,2.2225139141082764,0.29987674951553345,-0.7138005495071411
1772045294594455000,3.922455078125,2.2865352630615234,0.2597998082637787,-0.755372166633606
1772045294604440000,3.932440185546875,2.32981538772583,0.22652307152748108,-0.8278383612632751
1772045294614426000,3.942426025390625,2.3629651069641113,0.22089387476444244,-0.9178116321563721
1772045294624412200,3.952412109375,2.367264986038208,0.24641068279743195,-0.9998636841773987
1772045294634398000,3.96239794921875,2.302138090133667,0.2942415475845337,-1.0555915832519531
1772045294644383000,3.972383056640625,2.1463122367858887,0.34941157698631287,-1.074787974357605
1772045294654369000,3.982369140625,1.9355610609054565,0.4023567736148834,-1.0544722080230713
1772045294664355000,3.99235498046875,1.7195019721984863,0.4571654200553894,-1.0137990713119507
1772045294674340000,4.002340087890625,1.5194560289382935,0.49180862307548523,-0.9566735029220581
1772045294684326000,4.012325927734375,1.3786104917526245,0.5042945742607117,-0.8989838361740112
1772045294694312200,4.022312255859375,1.3093398809432983,0.4880507290363312,-0.8415890336036682
1772045294704298000,4.032298095703125,1.3081870079040527,0.44653257727622986,-0.7920404076576233
1772045294714283000,4.042282958984375,1.3541027307510376,0.3737823963165283,-0.7536408305168152
1772045294724269000,4.05226904296875,1.4161815643310547,0.28367993235588074,-0.7184178233146667
1772045294734255000,4.062255126953125,1.4599562883377075,0.21110117435455322,-0.6810296773910522
1772045294744241000,4.072240966796875,1.4752819538116455,0.15891332924365997,-0.6311918497085571
1772045294754226000,4.082225830078125,1.4589604139328003,0.1230156347155571,-0.5913944840431213
1772045294764212200,4.092212158203125,1.4153660535812378,0.09681705385446548,-0.5759590864181519
1772045294774198000,4.102197998046875,1.3727679252624512,0.08777330070734024,-0.5758408308029175
1772045294784184000,4.11218408203125,1.3537648916244507,0.09541470557451248,-0.6042751669883728
1772045294794168800,4.1221689453125,1.360601544380188,0.10069761425256729,-0.6459351778030396
1772045294804155100,4.132155029296875,1.385343074798584,0.11623317003250122,-0.6975607872009277
1772045294814141000,4.142140869140625,1.424924612045288,0.13534070551395416,-0.7389891743659973
1772045294824126500,4.15212646484375,1.46377432346344,0.16020770370960236,-0.7706871628761292
1772045294834112500,4.162112548828125,1.4991703033447266,0.1755484640598297,-0.7996200919151306
1772045294844098300,4.172098388671875,1.5219639539718628,0.17208608984947205,-0.8295990824699402
1772045294854084600,4.182084716796875,1.5286051034927368,0.15688887238502502,-0.8671784996986389
1772045294864069400,4.1920693359375,1.5234769582748413,0.14059485495090485,-0.9043487310409546
1772045294874055400,4.202055419921875,1.5150063037872314,0.1345839500427246,-0.9411900043487549
1772045294884041200,4.212041259765625,1.5104433298110962,0.1382410079240799,-0.9743173718452454
1772045294894027500,4.222027587890625,1.511315941810608,0.16484704613685608,-0.9987509250640869
1772045294904012500,4.232012451171875,1.5130279064178467,0.19744521379470825,-1.0072578191757202
1772045294913998300,4.241998291015625,1.513142466545105,0.22848732769489288,-1.0080574750900269
1772045294923984600,4.251984619140625,1.505973219871521,0.2619091868400574,-1.0049114227294922
1772045294933969400,4.261969482421875,1.4917161464691162,0.2895800769329071,-0.9969764947891235
1772045294943955500,4.27195556640625,1.4593461751937866,0.31962957978248596,-0.9886663556098938
1772045294953941200,4.281941162109375,1.4105803966522217,0.34374839067459106,-0.9749475717544556
1772045294963927600,4.291927490234375,1.333744764328003,0.3803181052207947,-0.947878897190094
1772045294973912600,4.30191259765625,1.2331569194793701,0.41215577721595764,-0.8999577760696411
1772045294983898400,4.3118984375,1.1106700897216797,0.42078280448913574,-0.8305869698524475
1772045294993884400,4.321884521484375,0.9785079956054688,0.39923176169395447,-0.7263415455818176
1772045295003870500,4.331870361328125,0.8549714088439941,0.34755098819732666,-0.6067200303077698
1772045295013855500,4.34185546875,0.7472020983695984,0.26458123326301575,-0.4749290347099304
1772045295023841300,4.35184130859375,0.6437055468559265,0.167231485247612,-0.3408074378967285
1772045295033827300,4.361827392578125,0.5288868546485901,0.07176586985588074,-0.21802416443824768
1772045295043812600,4.3718125,0.3929559290409088,-0.017328578978776932,-0.1267717480659485
1772045295053798400,4.38179833984375,0.23371438682079315,-0.10860415548086166,-0.06954607367515564
1772045295063784400,4.391784423828125,0.09505423903465271,-0.16867786645889282,-0.01791856624186039
1772045295073770500,4.4017705078125,-0.014878923073410988,-0.18228165805339813,0.04066171869635582
1772045295083755500,4.411755615234375,-0.12353590130805969,-0.15945623815059662,0.09862542152404785
1772045295093741300,4.4217412109375,-0.24258798360824585,-0.12499794363975525,0.1353772133588791
1772045295103727400,4.431727294921875,-0.38055169582366943,-0.07522772252559662,0.12984557449817657
1772045295113713400,4.44171337890625,-0.5212591886520386,-0.011492295190691948,0.08062708377838135
1772045295123698400,4.451698486328125,-0.6592923998832703,0.07276692986488342,0.012412343174219131
1772045295133684500,4.4616845703125,-0.7823026180267334,0.16679804027080536,-0.058374159038066864
1772045295143670300,4.471670166015625,-0.8865978717803955,0.2564171552658081,-0.0968371257185936
1772045295153655600,4.481655517578125,-0.9639492630958557,0.32932043075561523,-0.09286001324653625
1772045295163641300,4.491641357421875,-1.0239888429641724,0.3721296787261963,-0.047547660768032074
1772045295173627400,4.50162744140625,-1.1003525257110596,0.366359680891037,0.03557337820529938
1772045295183613400,4.511613525390625,-1.1938363313674927,0.3191295862197876,0.14381223917007446
1772045295193598500,4.521598388671875,-1.3137307167053223,0.24054820835590363,0.270000159740448
1772045295203584500,4.53158447265625,-1.439955234527588,0.12664000689983368,0.4035683274269104
1772045295213570300,4.5415703125,-1.5582443475723267,0.000987351406365633,0.5423744916915894
1772045295223556600,4.551556640625,-1.652692198753357,-0.13277150690555573,0.685860276222229
1772045295233541400,4.561541259765625,-1.7297695875167847,-0.2641468048095703,0.8309086561203003
1772045295243527400,4.57152734375,-1.7905218601226807,-0.3984968662261963,0.970135509967804
1772045295253513200,4.58151318359375,-1.8372894525527954,-0.5267480611801147,1.107871413230896
1772045295263498200,4.591498291015625,-1.8708300590515137,-0.6493163704872131,1.2445064783096313
1772045295273484500,4.601484619140625,-1.8975622653961182,-0.7653478980064392,1.3764934539794922
1772045295283470300,4.61147021484375,-1.9197125434875488,-0.8746384382247925,1.500536561012268
1772045295293456400,4.621456298828125,-1.9447294473648071,-0.9633508324623108,1.6148061752319336
1772045295303441400,4.63144140625,-1.9684301614761353,-1.0408450365066528,1.705802321434021
1772045295313427500,4.641427490234375,-2.002854108810425,-1.0958842039108276,1.780565857887268
1772045295323413200,4.651413330078125,-2.0386576652526855,-1.124566674232483,1.83137845993042
1772045295333398300,4.661398193359375,-2.080352544784546,-1.1396093368530273,1.8410297632217407
1772045295343384600,4.671384521484375,-2.1247639656066895,-1.1389533281326294,1.8033857345581055
1772045295353370400,4.681370361328125,-2.1794347763061523,-1.1124385595321655,1.729432463645935
1772045295363356400,4.6913564453125,-2.2369887828826904,-1.0663371086120605,1.612054467201233
1772045295373341400,4.701341552734375,-2.2887823581695557,-1.0052809715270996,1.4570817947387695
1772045295383327500,4.711327392578125,-2.3408477306365967,-0.9300679564476013,1.2780697345733643
1772045295393313300,4.721313232421875,-2.392582654953003,-0.8333372473716736,1.0840556621551514
1772045295403298300,4.73129833984375,-2.4324986934661865,-0.7206879258155823,0.8997970819473267
1772045295413284400,4.741284423828125,-2.439786672592163,-0.6021468639373779,0.7421035766601562
1772045295423270400,4.7512705078125,-2.413898229598999,-0.4684127867221832,0.6117058992385864
1772045295433256400,4.76125634765625,-2.3608531951904297,-0.34064051508903503,0.49375540018081665
1772045295443241500,4.771241455078125,-2.289371967315674,-0.23624326288700104,0.37289050221443176
1772045295453227500,4.7812275390625,-2.2301735877990723,-0.1537415236234665,0.23674120008945465
1772045295463213600,4.791213623046875,-2.178176164627075,-0.080226831138134,0.11603448539972305
1772045295473198300,4.8011982421875,-2.1317782402038574,-0.009992278181016445,0.028302503749728203
1772045295483184400,4.811184326171875,-2.0635132789611816,0.035649511963129044,-0.03123246319591999
1772045295493170400,4.82117041015625,-1.99237859249115,0.06090453639626503,-0.07749221473932266
1772045295503156500,4.831156494140625,-1.9068013429641724,0.07936077564954758,-0.10147478431463242
1772045295513141500,4.8411416015625,-1.8064967393875122,0.10157990455627441,-0.10793166607618332
1772045295523127300,4.851127197265625,-1.6978750228881836,0.10983170568943024,-0.10094699263572693
1772045295533113600,4.861113525390625,-1.591315746307373,0.1032734140753746,-0.0891098901629448
1772045295543099400,4.871099365234375,-1.4903329610824585,0.08855519443750381,-0.06839422136545181
1772045295553084400,4.88108447265625,-1.3943935632705688,0.05978917330503464,-0.04686911776661873
1772045295563070500,4.891070556640625,-1.3066034317016602,0.01785264164209366,-0.028783325105905533
1772045295573056500,4.901056396484375,-1.2300240993499756,-0.02346828393638134,-0.015149643644690514
1772045295583041500,4.91104150390625,-1.1473987102508545,-0.06281834840774536,-0.006434714887291193
1772045295593027300,4.92102734375,-1.0610510110855103,-0.10874339938163757,-0.009464036673307419
1772045295603013600,4.931013671875,-0.967056393623352,-0.14982666075229645,-0.02324669435620308
1772045295612999400,4.94099951171875,-0.8678024411201477,-0.17808020114898682,-0.04593310132622719
1772045295622984400,4.950984375,-0.752713680267334,-0.19626933336257935,-0.07174525409936905
1772045295632970200,4.96097021484375,-0.6152669191360474,-0.19516430795192719,-0.1042017713189125
1772045295642956500,4.97095654296875,-0.46476078033447266,-0.17752833664417267,-0.13548007607460022
1772045295652941600,4.980941650390625,-0.29602348804473877,-0.15432441234588623,-0.17253856360912323
1772045295662927400,4.99092724609375,-0.12740331888198853,-0.1314028650522232,-0.21153123676776886
1772045295672913400,5.000913330078125,0.032504744827747345,-0.11587435007095337,-0.26038771867752075
1772045295682899500,5.0108994140625,0.17099310457706451,-0.1123102456331253,-0.32595258951187134
1772045295692884500,5.020884521484375,0.2973771095275879,-0.10755881667137146,-0.43037793040275574
1772045295702870300,5.030870361328125,0.437650591135025,-0.0906195119023323,-0.5728378891944885
1772045295712856600,5.040856689453125,0.6157612800598145,-0.060039766132831573,-0.7327376008033752
1772045295722841600,5.050841552734375,0.8413584232330322,-0.0031668960582464933,-0.8803076148033142
1772045295732827400,5.060827392578125,1.1153217554092407,0.07314366847276688,-0.9929742813110352
1772045295742813400,5.0708134765625,1.4119443893432617,0.16954264044761658,-1.0778052806854248
1772045295752799500,5.080799560546875,1.699940800666809,0.26100486516952515,-1.1390531063079834
1772045295762784500,5.090784423828125,1.947545051574707,0.3319706618785858,-1.1964011192321777
1772045295772770300,5.100770263671875,2.141829252243042,0.38246941566467285,-1.2509647607803345
1772045295782756400,5.11075634765625,2.269165277481079,0.40635770559310913,-1.2941348552703857
1772045295792741600,5.12074169921875,2.338730812072754,0.40998324751853943,-1.325217604637146
1772045295802727400,5.1307275390625,2.358760356903076,0.40308406949043274,-1.3463761806488037
1772045295812713500,5.14071337890625,2.3492822647094727,0.3744646906852722,-1.354614019393921
1772045295822698500,5.150698486328125,2.3344922065734863,0.35269999504089355,-1.3569093942642212
1772045295832684500,5.1606845703125,2.3094677925109863,0.3255845904350281,-1.3639781475067139
1772045295842670300,5.17067041015625,2.271080493927002,0.28840315341949463,-1.36888587474823
1772045295852656600,5.18065673828125,2.215712308883667,0.2555384635925293,-1.3904324769973755
1772045295862641700,5.1906416015625,2.1381733417510986,0.2120692878961563,-1.4199365377426147
1772045295872627500,5.20062744140625,2.0368199348449707,0.17893213033676147,-1.45586359500885
1772045295882613800,5.21061376953125,1.918540358543396,0.15638181567192078,-1.5065525770187378
1772045295892598500,5.2205986328125,1.7974278926849365,0.15447759628295898,-1.5664689540863037
1772045295902584600,5.23058447265625,1.6932913064956665,0.1933450996875763,-1.635636329650879
1772045295912570400,5.2405703125,1.6110255718231201,0.25966304540634155,-1.7215474843978882
1772045295922556700,5.250556640625,1.5561703443527222,0.3540734350681305,-1.8207569122314453
1772045295932541700,5.260541748046875,1.5251778364181519,0.46480539441108704,-1.933900237083435
1772045295942527500,5.270527587890625,1.5196142196655273,0.5884354710578918,-2.0484273433685303
1772045295952513500,5.280513427734375,1.5230015516281128,0.7038731575012207,-2.160269021987915
1772045295962498600,5.29049853515625,1.507298231124878,0.7993839383125305,-2.2681689262390137
1772045295972484600,5.300484619140625,1.4622663259506226,0.864479660987854,-2.3667144775390625
1772045295982470400,5.310470458984375,1.391112208366394,0.9074881076812744,-2.4650321006774902
1772045295992456400,5.32045654296875,1.2995702028274536,0.9268240928649902,-2.5544919967651367
1772045296002441700,5.330441650390625,1.1956363916397095,0.9400280714035034,-2.634704113006592
1772045296012427500,5.340427490234375,1.092525601387024,0.9570133686065674,-2.702434539794922
1772045296022412500,5.35041259765625,0.9987018704414368,0.9680995345115662,-2.773283004760742
1772045296032398300,5.3603984375,0.9315658211708069,0.9716736674308777,-2.8348004817962646
1772045296042384600,5.370384521484375,0.8872071504592896,0.9784958958625793,-2.892482042312622
1772045296052369700,5.38036962890625,0.859184205532074,0.986020028591156,-2.9415528774261475
1772045296062355500,5.39035546875,0.8352833986282349,0.9869657158851624,-2.984199285507202
1772045296072341500,5.400341552734375,0.8087149858474731,0.9829232096672058,-3.0103225708007812
1772045296082326500,5.410326416015625,0.7729636430740356,0.9756889939308167,-3.0362496376037598
1772045296092312600,5.4203125,0.7297391295433044,0.9621263742446899,-3.065263271331787
1772045296102298600,5.430298583984375,0.6756538152694702,0.9489937424659729,-3.090338945388794
1772045296112284700,5.44028466796875,0.6244674324989319,0.9307234287261963,-3.125271797180176
1772045296122269700,5.450269775390625,0.5793694257736206,0.9299998879432678,-3.1584815979003906
1772045296132255500,5.46025537109375,0.5461586713790894,0.9455963373184204,-3.190246343612671
1772045296142241500,5.470241455078125,0.5295243263244629,0.9763688445091248,-3.2298359870910645
1772045296152226600,5.4802265625,0.5270673632621765,1.0127224922180176,-3.260067939758301
1772045296162212600,5.490212646484375,0.5319409370422363,1.0622721910476685,-3.2895987033843994
1772045296172198700,5.50019873046875,0.5356025695800781,1.1220279932022095,-3.3149991035461426
1772045296182183400,5.510183349609375,0.540073037147522,1.1831589937210083,-3.332676649093628
1772045296192169500,5.52016943359375,0.5397528409957886,1.2489467859268188,-3.34501051902771
1772045296202155500,5.530155517578125,0.5283180475234985,1.3069278001785278,-3.3476943969726562
1772045296212141600,5.5401416015625,0.5177621245384216,1.3630744218826294,-3.3367481231689453
1772045296222126600,5.550126708984375,0.4979037642478943,1.4114283323287964,-3.3131000995635986
1772045296232112600,5.560112548828125,0.4774201512336731,1.4568604230880737,-3.278636932373047
1772045296242098700,5.5700986328125,0.46286889910697937,1.4864510297775269,-3.2300353050231934
1772045296252083500,5.58008349609375,0.45017948746681213,1.5155956745147705,-3.1698718070983887
1772045296262069500,5.590069580078125,0.45536094903945923,1.537299394607544,-3.0896878242492676
1772045296272055600,5.6000556640625,0.45857152342796326,1.5464015007019043,-2.99573016166687
1772045296282041600,5.61004150390625,0.4653005301952362,1.5460808277130127,-2.8898813724517822
1772045296292026600,5.620026611328125,0.47112923860549927,1.5365636348724365,-2.7699997425079346
1772045296302012400,5.630012451171875,0.47993096709251404,1.5112841129302979,-2.6354501247406006
1772045296311998700,5.639998779296875,0.4743754267692566,1.4673521518707275,-2.493724822998047
1772045296321983500,5.6499833984375,0.47657787799835205,1.413004994392395,-2.342332363128662
1772045296331969500,5.659969482421875,0.4770981967449188,1.3459943532943726,-2.1916894912719727
1772045296341955600,5.66995556640625,0.48854708671569824,1.2767494916915894,-2.047062635421753
1772045296351940600,5.679940673828125,0.5022497773170471,1.2070956230163574,-1.8959370851516724
1772045296361926700,5.6899267578125,0.506582498550415,1.141057014465332,-1.7538390159606934
1772045296371912400,5.699912353515625,0.5060794949531555,1.0874452590942383,-1.6196435689926147
1772045296381898800,5.709898681640625,0.4990237355232239,1.0484118461608887,-1.4978684186935425
1772045296391883500,5.719883544921875,0.4986796975135803,1.016387701034546,-1.4031656980514526
1772045296401869600,5.72986962890625,0.49576324224472046,1.0091084241867065,-1.3249512910842896
1772045296411855400,5.73985546875,0.4889104962348938,1.010662317276001,-1.265982747077942
1772045296421841700,5.749841552734375,0.4735715091228485,1.0286951065063477,-1.2163405418395996
1772045296431827500,5.759827392578125,0.4565865099430084,1.051810622215271,-1.1847363710403442
1772045296441812500,5.7698125,0.44743800163269043,1.0893683433532715,-1.16176176071167
1772045296451798500,5.779798583984375,0.4531398117542267,1.1314873695373535,-1.1460657119750977
1772045296461784600,5.78978466796875,0.46000438928604126,1.1678168773651123,-1.1413536071777344
1772045296471770600,5.7997705078125,0.4831179678440094,1.1952147483825684,-1.1433035135269165
1772045296481755400,5.80975537109375,0.508735716342926,1.2048816680908203,-1.1329939365386963
1772045296491741700,5.81974169921875,0.5414605140686035,1.1940662860870361,-1.1016416549682617
1772045296501727500,5.8297275390625,0.5803024768829346,1.166369915008545,-1.0566076040267944
1772045296511712500,5.83971240234375,0.6262120604515076,1.1361730098724365,-0.9983576536178589
1772045296521698600,5.849698486328125,0.6749167442321777,1.0969457626342773,-0.949124276638031
1772045296531684600,5.8596845703125,0.7119291424751282,1.0546001195907593,-0.9051978588104248
1772045296541669600,5.869669677734375,0.7229357361793518,1.0225415229797363,-0.8692103028297424
1772045296551655400,5.879655517578125,0.69502192735672,1.0002809762954712,-0.8422505855560303
1772045296561641500,5.889641357421875,0.6367828845977783,0.9838868379592896,-0.8248263597488403
1772045296571627500,5.89962744140625,0.5436923503875732,0.9670530557632446,-0.8171967267990112
1772045296581612500,5.909612548828125,0.43864476680755615,0.9405964016914368,-0.8201763033866882
1772045296591598600,5.9195986328125,0.33688822388648987,0.9112716317176819,-0.8283699154853821
1772045296601584400,5.92958447265625,0.24081869423389435,0.8785877227783203,-0.8337745070457458
1772045296611569700,5.939569580078125,0.16371388733386993,0.8432651162147522,-0.8475915789604187
1772045296621555500,5.949555419921875,0.09649542719125748,0.7998664975166321,-0.8723688721656799
1772045296631541500,5.95954150390625,0.042257074266672134,0.7455145120620728,-0.9062036275863647
1772045296641526500,5.969526611328125,0.0028803758323192596,0.6978855133056641,-0.9577049016952515
1772045296651512600,5.9795126953125,-0.015697453171014786,0.6613255739212036,-1.0238739252090454
1772045296661498600,5.98949853515625,-0.012641209177672863,0.6383004188537598,-1.0959800481796265
1772045296671483400,5.9994833984375,0.0039964476600289345,0.6506310701370239,-1.1749732494354248
1772045296681469400,6.009469482421875,0.033699482679367065,0.7001834511756897,-1.2556328773498535
1772045296691455500,6.01945556640625,0.07683970034122467,0.7726750373840332,-1.3249661922454834
1772045296701441500,6.029441650390625,0.1123923659324646,0.8496691584587097,-1.413155436515808
1772045296711426600,6.039426513671875,0.13369357585906982,0.9334354996681213,-1.505667805671692
1772045296721412600,6.04941259765625,0.13799671828746796,1.0165172815322876,-1.611480712890625
1772045296731398700,6.059398681640625,0.12497042119503021,1.0955005884170532,-1.7103229761123657
1772045296741383700,6.0693837890625,0.10824497044086456,1.1642290353775024,-1.788525938987732
1772045296751369500,6.079369384765625,0.09379403293132782,1.1928117275238037,-1.832077980041504
1772045296761355500,6.08935546875,0.07695113867521286,1.1816405057907104,-1.84670090675354
1772045296771340500,6.099340576171875,0.07385605573654175,1.1253536939620972,-1.8446193933486938
1772045296781326600,6.10932666015625,0.07925668358802795,1.026835322380066,-1.8235247135162354
1772045296791312400,6.1193125,0.09341016411781311,0.9104889631271362,-1.778254508972168
1772045296801298700,6.129298583984375,0.10190564393997192,0.780638575553894,-1.7198556661605835
1772045296811283700,6.13928369140625,0.09403615444898605,0.6419949531555176,-1.644368052482605
1772045296821269500,6.14926953125,0.06508093327283859,0.5090587139129639,-1.5602384805679321
1772045296831254800,6.1592548828125,0.02628973498940468,0.40453338623046875,-1.4810267686843872
1772045296841239800,6.16923974609375,-0.023855455219745636,0.32265424728393555,-1.422522783279419
1772045296851225600,6.1792255859375,-0.08495011925697327,0.2625746428966522,-1.393144130706787
1772045296861212000,6.1892119140625,-0.14043787121772766,0.2365954965353012,-1.3814607858657837
1772045296871196700,6.19919677734375,-0.19256840646266937,0.2541014552116394,-1.3883321285247803
1772045296881182700,6.2091826171875,-0.23331423103809357,0.31317436695098877,-1.4146018028259277
1772045296891168500,6.21916845703125,-0.26603806018829346,0.40693438053131104,-1.4548876285552979
1772045296901153500,6.229153564453125,-0.30880922079086304,0.5287116765975952,-1.5097463130950928
1772045296911139800,6.239139892578125,-0.353793203830719,0.6624470353126526,-1.571278691291809
1772045296921125600,6.249125732421875,-0.3929741680622101,0.8014416694641113,-1.6475145816802979
1772045296931111700,6.259111572265625,-0.4207235872745514,0.9228454828262329,-1.7241086959838867
1772045296941096700,6.2690966796875,-0.4443540871143341,1.0306966304779053,-1.7964948415756226
1772045296951082800,6.279082763671875,-0.45810213685035706,1.106188178062439,-1.8439607620239258
1772045296961068500,6.289068603515625,-0.4667808413505554,1.1550393104553223,-1.86600661277771
1772045296971053600,6.299053466796875,-0.46882638335227966,1.182842493057251,-1.8623703718185425
1772045296981039900,6.309039794921875,-0.46626657247543335,1.1748570203781128,-1.8280044794082642
1772045296991025700,6.319025634765625,-0.45592114329338074,1.1466673612594604,-1.7705388069152832
1772045297001010700,6.3290107421875,-0.43508854508399963,1.091626763343811,-1.6911883354187012
1772045297010996500,6.33899658203125,-0.40114477276802063,1.0278106927871704,-1.5923913717269897
1772045297020982800,6.348982666015625,-0.35363131761550903,0.9582222104072571,-1.4787055253982544
1772045297030967800,6.3589677734375,-0.295565128326416,0.8875506520271301,-1.354012131690979
1772045297040953600,6.36895361328125,-0.22760869562625885,0.8124644160270691,-1.227077841758728
1772045297050939600,6.378939697265625,-0.166697695851326,0.7291656732559204,-1.1002321243286133
1772045297060925700,6.38892578125,-0.11263872683048248,0.6386730670928955,-0.9761841893196106
1772045297070910700,6.39891064453125,-0.07066698372364044,0.5435233116149902,-0.8670824766159058
1772045297080896500,6.408896484375,-0.03195767477154732,0.45354709029197693,-0.7674791812896729
1772045297090882800,6.4188828125,0.018826760351657867,0.3756876289844513,-0.693295419216156
1772045297100867800,6.428867919921875,0.0828973576426506,0.31026148796081543,-0.6721534132957458
1772045297110853600,6.438853515625,0.165323406457901,0.27637335658073425,-0.683453381061554
1772045297120839700,6.448839599609375,0.2594752013683319,0.2751493752002716,-0.703688383102417
1772045297130824400,6.458824462890625,0.34981295466423035,0.28275948762893677,-0.7100901007652283
1772045297140810800,6.468810791015625,0.41231176257133484,0.31823331117630005,-0.7113015651702881
1772045297150796500,6.478796630859375,0.4361326992511749,0.36174821853637695,-0.7137307524681091
1772045297160781600,6.488781494140625,0.4299142062664032,0.4090840220451355,-0.723149836063385
1772045297170768000,6.498767822265625,0.4073846638202667,0.4269985258579254,-0.7515126466751099
1772045297180753700,6.508753662109375,0.3520212769508362,0.41099345684051514,-0.8118268847465515
1772045297190739700,6.51873974609375,0.3052869737148285,0.41040849685668945,-0.8862395882606506
1772045297200724500,6.528724365234375,0.2795994281768799,0.43403953313827515,-0.9553105235099792
1772045297210710800,6.538710693359375,0.28774702548980713,0.482326865196228,-0.9933227300643921
1772045297220696600,6.548696533203125,0.31533578038215637,0.5611889362335205,-0.9974311590194702
1772045297230681600,6.558681640625,0.3401917517185211,0.6513090133666992,-0.9835687875747681
1772045297240667600,6.568667724609375,0.35715287923812866,0.7430139183998108,-0.9714939594268799
1772045297250653700,6.57865380859375,0.384479820728302,0.8380953073501587,-0.9774044156074524
1772045297260638700,6.588638671875,0.43394726514816284,0.9215947389602661,-1.0032509565353394
1772045297270624500,6.59862451171875,0.5025198459625244,0.9947264790534973,-1.048656940460205
1772045297280610600,6.608610595703125,0.5743979811668396,1.0534257888793945,-1.1048064231872559
1772045297290595800,6.618595947265625,0.6395729780197144,1.1005741357803345,-1.1590570211410522
1772045297300581600,6.62858154296875,0.693091094493866,1.1187790632247925,-1.2031275033950806
1772045297310567700,6.638567626953125,0.7263215184211731,1.1076160669326782,-1.2179456949234009
1772045297320553700,6.6485537109375,0.7311176061630249,1.0858359336853027,-1.1992894411087036
1772045297330538800,6.658538818359375,0.7185231447219849,1.0260998010635376,-1.1417949199676514
1772045297340524800,6.66852490234375,0.7015548348426819,0.9410361051559448,-1.0366219282150269
1772045297350510600,6.678510498046875,0.6604568958282471,0.843837320804596,-0.8897848129272461
1772045297360495600,6.68849560546875,0.5990962982177734,0.7290619611740112,-0.7079865336418152
1772045297370481700,6.698481689453125,0.5120072960853577,0.6233167052268982,-0.5116463303565979
1772045297380467700,6.7084677734375,0.4048835039138794,0.5290738344192505,-0.3230418264865875
1772045297390452700,6.71845263671875,0.3009265065193176,0.4481343626976013,-0.1679842472076416
1772045297400438800,6.728438720703125,0.19660142064094543,0.3997012972831726,-0.060012251138687134
1772045297410424800,6.7384248046875,0.10833863914012909,0.38981130719184875,-0.009915869683027267
1772045297420409600,6.74840966796875,0.05689036101102829,0.40693384408950806,-0.007849790155887604
1772045297430395600,6.758395751953125,0.04067037254571915,0.4439348876476288,-0.04297532141208649
1772045297440381700,6.768381591796875,0.051429010927677155,0.4735351502895355,-0.10277500748634338
1772045297450366700,6.77836669921875,0.0822625681757927,0.4907107651233673,-0.17333728075027466
1772045297460352800,6.788352783203125,0.12069038301706314,0.49975618720054626,-0.24625329673290253
1772045297470338600,6.798338623046875,0.14957372844219208,0.502612292766571,-0.31716230511665344
1772045297480323600,6.808323486328125,0.17430995404720306,0.4960768520832062,-0.3983477056026459
1772045297490309600,6.8183095703125,0.201246976852417,0.48314258456230164,-0.4650707542896271
1772045297500295700,6.828295654296875,0.2357354462146759,0.4654911458492279,-0.5158005356788635
1772045297510281500,6.838281494140625,0.27520400285720825,0.4468819200992584,-0.551533043384552
1772045297520266800,6.848266845703125,0.30572250485420227,0.41838130354881287,-0.5670432448387146
1772045297530252800,6.858252685546875,0.33398082852363586,0.3822578191757202,-0.5681213140487671
1772045297540238600,6.868238525390625,0.34889134764671326,0.36251604557037354,-0.5562859773635864
1772045297550223600,6.8782236328125,0.3647974133491516,0.33553576469421387,-0.544744610786438
1772045297560209700,6.888209716796875,0.38688087463378906,0.31095796823501587,-0.5370342135429382
1772045297570195700,6.89819580078125,0.41390275955200195,0.3007557988166809,-0.5270159840583801
1772045297580180700,6.9081806640625,0.43777960538864136,0.2762983739376068,-0.5137448906898499
1772045297590166500,6.91816650390625,0.47512319684028625,0.23220893740653992,-0.5081809759140015
1772045297600152800,6.92815283203125,0.51530921459198,0.18485048413276672,-0.4922685921192169
1772045297610137600,6.9381376953125,0.558891773223877,0.1275395005941391,-0.4689355790615082
1772045297620123600,6.94812353515625,0.5860669612884521,0.06135408952832222,-0.42810240387916565
1772045297630109700,6.958109619140625,0.6016993522644043,0.002272989135235548,-0.3644700348377228
1772045297640094700,6.9680947265625,0.5972169637680054,-0.05191035196185112,-0.27983078360557556
1772045297650080800,6.978080810546875,0.5681567788124084,-0.09643203765153885,-0.1902928352355957
1772045297660066600,6.988066650390625,0.5301249623298645,-0.11921538412570953,-0.10174031555652618
1772045297670052900,6.998052978515625,0.49123096466064453,-0.12646403908729553,-0.03777372092008591
1772045297680037600,7.00803759765625,0.46345362067222595,-0.11799091845750809,0.020719682797789574
1772045297690023700,7.018023681640625,0.4340827763080597,-0.08999574184417725,0.07047665119171143
1772045297700009500,7.028009521484375,0.40609002113342285,-0.05819626525044441,0.1100994274020195
1772045297709994500,7.037994384765625,0.37717437744140625,-0.025036664679646492,0.14956089854240417
1772045297719980800,7.047980712890625,0.34763991832733154,-0.008646772243082523,0.20211465656757355
1772045297729966600,7.057966552734375,0.31682881712913513,-0.008251262828707695,0.2632600963115692
1772045297739951600,7.06795166015625,0.28347378969192505,-0.05153535678982735,0.33148708939552307
1772045297749937700,7.077937744140625,0.2493155300617218,-0.13691452145576477,0.4143189489841461
1772045297759923700,7.087923828125,0.2234487682580948,-0.24572409689426422,0.504252016544342
1772045297769908700,7.09790869140625,0.2007901519536972,-0.36660459637641907,0.5957341194152832
1772045297779894500,7.10789453125,0.18475979566574097,-0.4728282392024994,0.6826575398445129
1772045297789880800,7.117880859375,0.16368356347084045,-0.5547734498977661,0.7551367282867432
1772045297799865600,7.127865478515625,0.12626110017299652,-0.6040035486221313,0.8019963502883911
1772045297809851600,7.1378515625,0.07370354980230331,-0.6138536334037781,0.8178045749664307
1772045297819837700,7.147837646484375,0.004275212064385414,-0.5982294082641602,0.7916272878646851
1772045297829823500,7.157823486328125,-0.0925474762916565,-0.5943262577056885,0.7169459462165833
1772045297839809500,7.1678095703125,-0.18012338876724243,-0.5633409023284912,0.6208311319351196
1772045297849795600,7.177795654296875,-0.23010705411434174,-0.4773227274417877,0.5394402146339417
1772045297859781400,7.187781494140625,-0.27248460054397583,-0.3807882070541382,0.4866992235183716
1772045297869766400,7.197766357421875,-0.3189614415168762,-0.3131384253501892,0.4439484179019928
1772045297879752700,7.207752685546875,-0.36112675070762634,-0.2842519283294678,0.4091190695762634
1772045297889738500,7.217738525390625,-0.3928428888320923,-0.2778278887271881,0.39588087797164917
1772045297899723500,7.2277236328125,-0.43624362349510193,-0.3009289503097534,0.39571550488471985
1772045297909709600,7.23770947265625,-0.49027591943740845,-0.357826292514801,0.4043627977371216
1772045297919695600,7.247695556640625,-0.565782368183136,-0.4182334244251251,0.4274265766143799
1772045297929680600,7.2576806640625,-0.6594038605690002,-0.46593064069747925,0.4705842137336731
1772045297939666400,7.26766650390625,-0.7791475653648376,-0.5078833699226379,0.5330291986465454
1772045297949652500,7.277652587890625,-0.9132755994796753,-0.5574682950973511,0.6069842576980591
1772045297959637800,7.2876376953125,-1.0574679374694824,-0.6033444404602051,0.6769026517868042
1772045297969623600,7.29762353515625,-1.1809782981872559,-0.6448383927345276,0.745735764503479
1772045297979609600,7.307609619140625,-1.2737375497817993,-0.6859629154205322,0.8055327534675598
1772045297989594400,7.317594482421875,-1.3366622924804688,-0.7352079749107361,0.860701858997345
1772045297999580700,7.32758056640625,-1.3677704334259033,-0.8128995299339294,0.9151560664176941
1772045298009566500,7.33756640625,-1.3817298412322998,-0.9153087735176086,0.9860755205154419
1772045298019551500,7.347551513671875,-1.388831377029419,-1.0414084196090698,1.0686521530151367
1772045298029537500,7.35753759765625,-1.403727650642395,-1.186104655265808,1.1514073610305786
1772045298039523600,7.367523681640625,-1.4248020648956299,-1.3410826921463013,1.2447458505630493
1772045298049508600,7.377508544921875,-1.4489543437957764,-1.4721564054489136,1.3333582878112793
1772045298059494400,7.387494384765625,-1.4888652563095093,-1.5799942016601562,1.3977152109146118
1772045298069480700,7.397480712890625,-1.5469297170639038,-1.6629596948623657,1.4192754030227661
1772045298079465700,7.4074658203125,-1.6197911500930786,-1.7101056575775146,1.4052098989486694
1772045298089451500,7.417451416015625,-1.681514024734497,-1.7147958278656006,1.3499709367752075
1772045298099437600,7.4274375,-1.7386014461517334,-1.6769342422485352,1.2561448812484741
1772045298109422300,7.43742236328125,-1.7753819227218628,-1.6005045175552368,1.127445101737976
1772045298119408600,7.44740869140625,-1.8182929754257202,-1.4902994632720947,0.9810884594917297
1772045298129394400,7.45739453125,-1.8607451915740967,-1.3367575407028198,0.8243911862373352
1772045298139380500,7.46738037109375,-1.901878833770752,-1.1579725742340088,0.6764145493507385
1772045298149365800,7.47736572265625,-1.9233498573303223,-0.9733266830444336,0.5400269627571106
1772045298159351600,7.4873515625,-1.9327574968338013,-0.7992318868637085,0.4009383022785187
1772045298169337600,7.497337646484375,-1.9361885786056519,-0.6408276557922363,0.2745729684829712
1772045298179322400,7.507322265625,-1.9320378303527832,-0.5094656348228455,0.15280631184577942
1772045298189308700,7.51730859375,-1.926486611366272,-0.3992766737937927,0.04478226229548454
1772045298199294500,7.52729443359375,-1.9140520095825195,-0.31340542435646057,-0.03263423219323158
1772045298209279500,7.537279541015625,-1.8708691596984863,-0.2539093792438507,-0.07522488385438919
1772045298219265500,7.547265625,-1.814502239227295,-0.22041425108909607,-0.09592936187982559
1772045298229251600,7.55725146484375,-1.7369272708892822,-0.21497464179992676,-0.08439832925796509
1772045298239236600,7.567236572265625,-1.645267367362976,-0.22503739595413208,-0.05160735547542572
1772045298249222400,7.577222412109375,-1.5479865074157715,-0.2509201467037201,-0.0068993400782346725
1772045298259208400,7.58720849609375,-1.444084644317627,-0.28754714131355286,0.045864805579185486
1772045298269193700,7.59719384765625,-1.3430869579315186,-0.3220705986022949,0.10455719381570816
1772045298279179500,7.607179443359375,-1.2343876361846924,-0.35037869215011597,0.15477721393108368
1772045298289165600,7.61716552734375,-1.1219406127929688,-0.3592526316642761,0.19852833449840546
1772045298299150600,7.627150634765625,-1.0081101655960083,-0.3573751151561737,0.22641004621982574
1772045298309136600,7.63713671875,-0.8967870473861694,-0.34185561537742615,0.2353404015302658
1772045298319122400,7.647122314453125,-0.7997187972068787,-0.3178030252456665,0.2288697212934494
1772045298329107500,7.657107421875,-0.7134413719177246,-0.2788514196872711,0.20291484892368317
1772045298339093500,7.667093505859375,-0.6362882852554321,-0.24146142601966858,0.16534458100795746
1772045298349079600,7.67707958984375,-0.5744062066078186,-0.2016959935426712,0.11250166594982147
1772045298359064600,7.687064697265625,-0.5102930068969727,-0.15409864485263824,0.04441475868225098
1772045298369050600,7.697050537109375,-0.4206308126449585,-0.09529553353786469,-0.026845982298254967
1772045298379036700,7.70703662109375,-0.3083338439464569,-0.02887176349759102,-0.09523889422416687
1772045298389021700,7.717021728515625,-0.16617383062839508,0.047972485423088074,-0.15464867651462555
1772045298399007500,7.727007568359375,-0.013203728944063187,0.12565794587135315,-0.20137223601341248
1772045298408993500,7.73699365234375,0.1410903036594391,0.18680965900421143,-0.23763571679592133
1772045298418978600,7.746978515625,0.2748236060142517,0.24354325234889984,-0.27884411811828613
1772045298428964600,7.756964599609375,0.412007212638855,0.2967173755168915,-0.3306797742843628
1772045298438950700,7.76695068359375,0.5350894331932068,0.34652674198150635,-0.38873669505119324
1772045298448935400,7.776935302734375,0.6543819308280945,0.39820608496665955,-0.45997098088264465
1772045298458921500,7.78692138671875,0.7907626628875732,0.47521325945854187,-0.5336401462554932
1772045298468907500,7.796907470703125,0.9254235625267029,0.5637606382369995,-0.6005722284317017
1772045298478893600,7.8068935546875,1.0682251453399658,0.6553784012794495,-0.6601042747497559
1772045298488878600,7.816878662109375,1.2040215730667114,0.7568798065185547,-0.7117528915405273
1772045298498864600,7.82686474609375,1.3364883661270142,0.8465628623962402,-0.7565515637397766
1772045298508850700,7.8368505859375,1.4688133001327515,0.9162596464157104,-0.7932690978050232
1772045298518835500,7.84683544921875,1.589794397354126,0.9697452187538147,-0.8107620477676392
1772045298528821500,7.856821533203125,1.6985504627227783,1.0031540393829346,-0.8047097325325012
1772045298538807600,7.8668076171875,1.7763943672180176,1.026200771331787,-0.7759689092636108
1772045298548792600,7.87679248046875,1.842612862586975,1.030670404434204,-0.7288708090782166
1772045298558778600,7.886778564453125,1.890886902809143,1.0112991333007812,-0.6840407848358154
1772045298568764400,7.896764404296875,1.929206132888794,0.9930023550987244,-0.6355419158935547
1772045298578749700,7.906749755859375,1.9590734243392944,0.9696429967880249,-0.5874388217926025
1772045298588735500,7.916735595703125,1.9770209789276123,0.9594394564628601,-0.5452756285667419
1772045298598721500,7.926721435546875,1.9704499244689941,0.9651843905448914,-0.5236420035362244
1772045298608706600,7.93670654296875,1.9399559497833252,0.9484595656394958,-0.5346472263336182
1772045298618692600,7.946692626953125,1.8713912963867188,0.9063822031021118,-0.5780972242355347
1772045298628678700,7.9566787109375,1.7796119451522827,0.8476422429084778,-0.6425039768218994
1772045298638663400,7.966663330078125,1.6693508625030518,0.780008852481842,-0.7216967940330505
1772045298648649500,7.9766494140625,1.5516119003295898,0.7332228422164917,-0.8008170127868652
1772045298658635500,7.986635498046875,1.4356988668441772,0.7009592056274414,-0.8620694279670715
1772045298668620500,7.99662060546875,1.337654948234558,0.6898105144500732,-0.8905327320098877
1772045298678606600,8.006606689453125,1.275141716003418,0.6964399218559265,-0.8936629891395569
1772045298688592400,8.01659228515625,1.2574858665466309,0.7026802897453308,-0.8737834692001343
1772045298698577700,8.02657763671875,1.2678195238113403,0.6971848607063293,-0.8528398275375366
1772045298708563500,8.0365634765625,1.3050631284713745,0.6794432401657104,-0.8216447830200195
1772045298718549500,8.046549560546875,1.3400160074234009,0.6527271866798401,-0.7976182699203491
1772045298728534500,8.056534423828126,1.3623428344726562,0.6199396252632141,-0.7701122760772705
1772045298738520600,8.0665205078125,1.3617945909500122,0.5774728655815125,-0.745421290397644
1772045298748506600,8.076506591796875,1.3464826345443726,0.5309186577796936,-0.7129415273666382
1772045298758491400,8.086491455078125,1.3225510120391846,0.504570722579956,-0.6848589777946472
1772045298768477400,8.0964775390625,1.2966643571853638,0.4742793142795563,-0.6609659790992737
1772045298778463500,8.10646337890625,1.2900253534317017,0.4433397948741913,-0.6459976434707642
1772045298788448500,8.116448486328125,1.2963213920593262,0.4209032654762268,-0.6394215822219849
1772045298798434600,8.1264345703125,1.3151538372039795,0.3999050557613373,-0.629010796546936
1772045298808420600,8.136420654296876,1.3355042934417725,0.3763779103755951,-0.6194651126861572
1772045298818405600,8.146405517578126,1.3697147369384766,0.3478298783302307,-0.6125483512878418
1772045298828391400,8.156391357421874,1.4103785753250122,0.3116224706172943,-0.6223745346069336
1772045298838377500,8.16637744140625,1.4470514059066772,0.269985556602478,-0.6328703165054321
1772045298848362800,8.17636279296875,1.4743285179138184,0.23077140748500824,-0.6281758546829224
1772045298858348500,8.1863486328125,1.4904675483703613,0.20124654471874237,-0.6132067441940308
1772045298868334600,8.19633447265625,1.4872779846191406,0.1689484417438507,-0.5844605565071106
1772045298878319600,8.206319580078125,1.4668312072753906,0.13590925931930542,-0.5395929217338562
1772045298888305700,8.2163056640625,1.4208885431289673,0.0966266542673111,-0.49677523970603943
1772045298898291700,8.226291748046876,1.3629354238510132,0.06064601615071297,-0.45387277007102966
1772045298908276500,8.2362763671875,1.2878433465957642,0.025740744546055794,-0.4042785167694092
1772045298918262500,8.246262451171875,1.1975600719451904,-0.02108748070895672,-0.354865700006485
1772045298928248600,8.25624853515625,1.1052300930023193,-0.07349095493555069,-0.303760290145874
1772045298938233600,8.266233642578126,1.0033422708511353,-0.11536117643117905,-0.24652069807052612
1772045298948219600,8.2762197265625,0.8846641182899475,-0.15120823681354523,-0.19016487896442413
1772045298958205700,8.286205810546875,0.7573357224464417,-0.1862138956785202,-0.13246643543243408
1772045298968190700,8.296190673828125,0.6336915493011475,-0.21810059249401093,-0.0654238685965538
1772045298978176500,8.306176513671875,0.5276077389717102,-0.2636409103870392,0.014901860617101192
1772045298988162600,8.31616259765625,0.4462927579879761,-0.3063815236091614,0.09789013117551804
1772045298998147600,8.326147705078125,0.3732779324054718,-0.347584068775177,0.18892230093479156
1772045299008133600,8.336133544921875,0.2972252070903778,-0.3794609010219574,0.27050456404685974
1772045299018119700,8.34611962890625,0.18496178090572357,-0.38072511553764343,0.3220553696155548
1772045299028104400,8.3561044921875,0.030151242390275,-0.38339751958847046,0.31233489513397217
1772045299038090800,8.3660908203125,-0.1398593783378601,-0.3972044289112091,0.2503032088279724
1772045299048076500,8.37607666015625,-0.2690397799015045,-0.39184877276420593,0.170278400182724
1772045299058061600,8.3860615234375,-0.36301499605178833,-0.3749294579029083,0.10747811943292618
1772045299068047600,8.396047607421876,-0.43741074204444885,-0.3784792721271515,0.08423089981079102
1772045299078033700,8.40603369140625,-0.5160829424858093,-0.40096938610076904,0.0948001816868782
1772045299088018700,8.416018798828125,-0.6098505854606628,-0.4390268325805664,0.14146408438682556
1772045299098004500,8.42600439453125,-0.7302315831184387,-0.4788813292980194,0.22122548520565033
1772045299107990500,8.435990478515626,-0.873653769493103,-0.5013750195503235,0.3207877278327942
1772045299117975600,8.4459755859375,-1.0304687023162842,-0.4962470829486847,0.40922707319259644
1772045299127961600,8.455961669921875,-1.2099977731704712,-0.47732505202293396,0.4823228418827057
1772045299137947600,8.46594775390625,-1.387272596359253,-0.47057288885116577,0.5137361288070679
1772045299147932400,8.475932373046875,-1.554877758026123,-0.48620256781578064,0.520811915397644
1772045299157918700,8.485918701171874,-1.7153979539871216,-0.5070297718048096,0.5138381719589233
1772045299167904500,8.495904541015625,-1.879607081413269,-0.5387372374534607,0.5076155662536621
1772045299177889500,8.5058896484375,-2.046926975250244,-0.5897703170776367,0.524742841720581
1772045299187875600,8.51587548828125,-2.1995034217834473,-0.6625726819038391,0.5644487738609314
1772045299197861600,8.525861572265624,-2.3280138969421387,-0.7368309497833252,0.6253363490104675
1772045299207846700,8.5358466796875,-2.436094045639038,-0.8179275393486023,0.7044018507003784
1772045299217832400,8.54583251953125,-2.5254037380218506,-0.9078209400177002,0.8049681186676025
1772045299227818500,8.555818603515625,-2.59070086479187,-0.9814243316650391,0.9291650652885437
1772045299237803800,8.5658037109375,-2.6546475887298584,-1.0076218843460083,1.0663820505142212
1772045299247789600,8.57578955078125,-2.7188212871551514,-0.9964523911476135,1.1983282566070557
1772045299257775600,8.585775634765625,-2.7748565673828125,-0.9735137820243835,1.3352186679840088
1772045299267760600,8.5957607421875,-2.819855213165283,-0.9350948929786682,1.46212899684906
1772045299277746700,8.60574658203125,-2.8737292289733887,-0.8916459679603577,1.5608878135681152
1772045299287732500,8.615732421875,-2.9437217712402344,-0.8544784188270569,1.62837815284729
1772045299297717500,8.625717529296875,-3.0203840732574463,-0.8256795406341553,1.6716718673706055
1772045299307703600,8.63570361328125,-3.1019980907440186,-0.8114991188049316,1.6936917304992676
1772045299317689600,8.645689697265626,-3.1812751293182373,-0.8200222849845886,1.7026878595352173
1772045299327674600,8.655674560546874,-3.261881113052368,-0.8222971558570862,1.6897519826889038
1772045299337660700,8.66566064453125,-3.328620672225952,-0.7815347909927368,1.6429544687271118
1772045299347646500,8.675646484375,-3.38638973236084,-0.6765139102935791,1.5500166416168213
1772045299357631700,8.6856318359375,-3.4238314628601074,-0.48780494928359985,1.4065332412719727
1772045299367617500,8.695617431640626,-3.443105697631836,-0.2320443093776703,1.219565749168396
1772045299377603600,8.705603515625,-3.4386510848999023,0.08587692677974701,0.985943615436554
1772045299387588600,8.715588623046875,-3.3970694541931152,0.4629955589771271,0.713513195514679
1772045299397574700,8.72557470703125,-3.32063627243042,0.875999391078949,0.4205537438392639
1772045299407560700,8.735560791015626,-3.219285249710083,1.3184782266616821,0.12150413542985916
1772045299417545500,8.74554541015625,-3.114628791809082,1.771560549736023,-0.17030668258666992
1772045299427531500,8.755531494140625,-3.025015354156494,2.2184078693389893,-0.4290330111980438
1772045299437517600,8.765517578125,-2.9537603855133057,2.649014472961426,-0.6315333843231201
1772045299447502600,8.775502685546876,-2.8666348457336426,3.051107883453369,-0.7834103107452393
1772045299457488600,8.785488525390624,-2.766780138015747,3.433100938796997,-0.8894422054290771
1772045299467474700,8.795474609375,-2.6317696571350098,3.7728943824768066,-0.9477365612983704
1772045299477459700,8.805459716796875,-2.463616132736206,4.040680885314941,-1.0080167055130005
1772045299487445500,8.815445556640626,-2.2917702198028564,4.257054328918457,-1.0807063579559326
1772045299497431600,8.825431640625,-2.1436121463775635,4.422507286071777,-1.159641146659851
1772045299507416600,8.83541650390625,-2.0068366527557373,4.534229755401611,-1.231414556503296
1772045299517402600,8.845402587890625,-1.8870668411254883,4.601963043212891,-1.2829238176345825
1772045299527388700,8.855388671875,-1.7928187847137451,4.645009994506836,-1.3225510120391846
1772045299537373400,8.86537353515625,-1.713495135307312,4.64841890335083,-1.3564480543136597
1772045299547359700,8.87535986328125,-1.6302837133407593,4.62882137298584,-1.3979471921920776
1772045299557345500,8.885345458984375,-1.527206301689148,4.60971212387085,-1.4588979482650757
1772045299567330600,8.89533056640625,-1.4040957689285278,4.566163539886475,-1.4966084957122803
1772045299577316600,8.905316650390626,-1.2433403730392456,4.4641876220703125,-1.505291223526001
1772045299587302700,8.915302734375,-1.0461853742599487,4.333337783813477,-1.4840065240859985
1772045299597287700,8.92528759765625,-0.8230324983596802,4.193267345428467,-1.5038872957229614
1772045299607273500,8.9352734375,-0.6290361285209656,4.080749988555908,-1.6052281856536865
1772045299617259500,8.945259521484376,-0.5065943598747253,4.023828029632568,-1.7580907344818115
1772045299627244500,8.95524462890625,-0.4261166453361511,3.98596453666687,-1.8764963150024414
1772045299637230600,8.965230712890625,-0.339155912399292,3.9489188194274902,-1.9390531778335571
1772045299647216600,8.975216552734375,-0.3041346073150635,3.9300858974456787,-1.966997742652893
1772045299657201400,8.985201416015625,-0.2987622022628784,3.8996174335479736,-1.9729275703430176
1772045299667187700,8.995187744140624,-0.30288761854171753,3.8186593055725098,-1.9504021406173706
1772045299677173500,9.005173583984375,-0.29024532437324524,3.6422770023345947,-1.9005571603775024
1772045299687158500,9.015158447265625,-0.22961345314979553,3.3952248096466064,-1.8417682647705078
1772045299697144600,9.02514453125,-0.12155516445636749,3.0682520866394043,-1.7704282999038696
1772045299707129600,9.035129638671876,-0.031367722898721695,2.8593642711639404,-1.6273072957992554
1772045299717115600,9.04511572265625,0.09876817464828491,3.164038896560669,-1.3489243984222412
1772045299727101400,9.055101318359375,0.2856309711933136,3.4376463890075684,-1.126460075378418
1772045299737086500,9.06508642578125,0.4857427477836609,3.236609935760498,-1.0276449918746948
1772045299747072800,9.07507275390625,0.7125390768051147,2.7121264934539795,-0.9418194890022278
1772045299757058600,9.08505859375,0.944810152053833,2.2401461601257324,-0.781995952129364
1772045299767043600,9.095043701171875,1.1707816123962402,1.860845685005188,-0.5468829870223999
1772045299777029600,9.105029541015625,1.3638666868209839,1.5619982481002808,-0.2533949017524719
1772045299787015700,9.115015625,1.4561803340911865,1.4069898128509521,0.13937796652317047
1772045299797000700,9.125000732421874,1.436894178390503,1.3033273220062256,0.5958501696586609
1772045299806986500,9.134986572265625,1.3550002574920654,1.196674108505249,1.0319488048553467
1772045299816972500,9.14497265625,1.249308705329895,1.0187946557998657,1.3448262214660645
1772045299826957800,9.154957763671876,1.1166696548461914,0.8795313835144043,1.4878395795822144
1772045299836944000,9.16494384765625,0.9560379385948181,0.7835294604301453,1.5318679809570312
1772045299846929700,9.1749296875,0.7536471486091614,0.7016167640686035,1.5361807346343994
1772045299856914700,9.184914794921875,0.5374743342399597,0.6193605065345764,1.5053575038909912
1772045299866900700,9.194900634765625,0.3507939875125885,0.585401177406311,1.443568468093872
1772045299876886800,9.20488671875,0.21782636642456055,0.6528468132019043,1.3728729486465454
1772045299886871800,9.214871826171875,0.12201030552387238,0.8914560079574585,1.301730990409851
1772045299896857900,9.22485791015625,0.13680283725261688,1.084109902381897,1.2241554260253906
1772045299906844000,9.234843994140626,0.2072935849428177,1.0621223449707031,1.0871570110321045
1772045299916829000,9.244828857421876,0.2744976580142975,0.924025297164917,0.9300398230552673
1772045299926814700,9.254814697265624,0.29776450991630554,0.8406497836112976,0.833985447883606
1772045299936800800,9.26480078125,0.3003024756908417,0.729075014591217,0.8219900131225586
1772045299946785800,9.274785888671875,0.26376479864120483,0.5162162184715271,0.8585906028747559
1772045299956771800,9.284771728515626,0.19132575392723083,0.2819267511367798,0.9142404794692993
1772045299966758000,9.2947578125,0.1177295669913292,0.12866359949111938,0.957838237285614
1772045299976742700,9.30474267578125,0.05899141728878021,0.06959283351898193,0.9970628619194031
1772045299986729000,9.31472900390625,0.03628545626997948,0.07117026299238205,1.0078197717666626
1772045299996714000,9.3247138671875,0.04843879118561745,0.10304803401231766,0.958781361579895
1772045300006699800,9.33469970703125,0.09099970757961273,0.15054981410503387,0.8866527676582336
1772045300016684800,9.344684814453124,0.13734644651412964,0.19515857100486755,0.832168459892273
1772045300026670600,9.354670654296875,0.1973290592432022,0.19819732010364532,0.7746059894561768
1772045300036657000,9.364656982421875,0.24899731576442719,0.23218777775764465,0.6735520958900452
1772045300046642000,9.374641845703126,0.2685036063194275,0.32695716619491577,0.5802852511405945
1772045300056627700,9.384627685546874,0.2908174395561218,0.3951798975467682,0.5086054801940918
1772045300066614000,9.394614013671875,0.26080790162086487,0.3728678524494171,0.4260731339454651
1772045300076598800,9.404598876953125,0.21293175220489502,0.2861129641532898,0.30747830867767334
1772045300086584800,9.414584716796876,0.15867596864700317,0.2416139543056488,0.21724751591682434
1772045300096570600,9.424570556640624,0.10245795547962189,0.2733018398284912,0.18174730241298676
1772045300106555600,9.4345556640625,0.05655627325177193,0.3234204947948456,0.17482711374759674
1772045300116542000,9.4445419921875,0.041381049901247025,0.2957744896411896,0.1640402376651764
1772045300126527700,9.45452783203125,0.015350078232586384,0.17142798006534576,0.12663206458091736
1772045300136512800,9.4645126953125,-0.0312749482691288,0.051747385412454605,0.06557323783636093
1772045300146498600,9.47449853515625,-0.07826197147369385,0.019726671278476715,0.01994291879236698
1772045300156484900,9.48448486328125,-0.11414194107055664,0.0451958142220974,-0.005692403297871351
1772045300166470000,9.494469970703125,-0.1469031423330307,0.18248715996742249,0.013469054363667965
1772045300176455700,9.50445556640625,-0.13091832399368286,0.33702534437179565,0.08884397149085999
1772045300186442000,9.51444189453125,-0.04115302488207817,0.4642108976840973,0.2094949334859848
1772045300196426800,9.5244267578125,0.057392992079257965,0.5633348226547241,0.4299599528312683
1772045300206412800,9.534412841796875,0.15348802506923676,0.43957066535949707,0.593587338924408
1772045300216397800,9.544397705078126,0.1960141807794571,0.21463210880756378,0.6552631855010986
1772045300226383600,9.554383544921874,0.17974376678466797,0.030677681788802147,0.6489467024803162
1772045300236370000,9.564369873046875,0.16643035411834717,-0.037390317767858505,0.5879467129707336
1772045300246355000,9.57435498046875,0.15141259133815765,-0.0349564254283905,0.46242329478263855
1772045300256340700,9.5843408203125,0.13639315962791443,0.026089617982506752,0.327896386384964
1772045300266326800,9.594326904296874,0.13899949193000793,0.15027427673339844,0.22957158088684082
1772045300276311800,9.604311767578125,0.14824624359607697,0.2555370330810547,0.16206523776054382
1772045300286297900,9.6142978515625,0.16233742237091064,0.407429039478302,0.12938465178012848
1772045300296283600,9.62428369140625,0.19936761260032654,0.6321703195571899,0.12610363960266113
