time,seconds_elapsed,z,y,x
1772094020464349200,0.08334912109375,-0.05651391438245773,-0.025354477215372026,0.021234748670551924
1772094020474298000,0.093298095703125,0.00720306324660778,-0.02709123788010329,-0.022867793232481927
1772094020484247300,0.103247314453125,0.10306056150197983,0.009334668447822332,-0.053968102357164024
1772094020494196200,0.1131962890625,0.22713351589441297,0.05573171449620276,-0.06533150015361606
1772094020504146400,0.123146484375,0.21935411406457422,0.11136362187974154,-0.10268559070974588
1772094020514095400,0.133095458984375,0.12907704629004002,0.17221646051565184,-0.1181627805005759
1772094020524044300,0.143044189453125,-0.007279051092267036,0.17707140799984336,-0.07606131275426596
1772094020533993200,0.1529931640625,-0.06618482904732227,0.12949333547335118,0.02487885906025767
1772094020543942100,0.162942138671875,0.028560324051976203,0.05015930292503908,0.03027227906901389
1772094020553891000,0.17289111328125,0.16153028612732886,0.015943656525108964,0.033973617804981766
1772094020563840300,0.18284033203125,0.24335282928943633,-0.024466679796483367,0.011417466071248054
1772094020573790200,0.192790283203125,0.2318511920660734,-0.018157661046460268,-0.04622410063426941
1772094020583739400,0.202739501953125,0.1459434254169464,0.032966943246778097,-0.10426453046426176
1772094020593688300,0.212688232421875,0.07004150447547436,0.07703720858171582,-0.11093750542216002
1772094020603637200,0.22263720703125,0.04427870218753814,0.04903691129898652,-0.10638375110793859
1772094020613586200,0.232586181640625,0.03844108207523823,0.01718499835571274,-0.1150412874791771
1772094020623535000,0.24253515625,0.08241641740202903,0.015926504460908472,-0.1389744997197762
1772094020633484000,0.252484130859375,0.12255787365436553,-0.014598032336123288,-0.19209230539053676
1772094020643434200,0.262434326171875,0.11427812108695506,-0.008879636423010378,-0.2136717210466042
1772094020653383200,0.272383056640625,0.08036825270056724,0.04076939715864136,-0.16591960712745785
1772094020663332600,0.28233251953125,0.06018471184968948,0.039904103832505644,-0.0813731554267928
1772094020673281800,0.29228173828125,-0.022065701335668562,-0.002357760373596102,-0.02099262874405831
1772094020683230700,0.302230712890625,-0.13337269765734672,-0.02508508568946272,0.00031034459080547095
1772094020693179600,0.3121796875,-0.13849661654233933,-0.014156974037736653,-0.013856566319055854
1772094020703128600,0.322128662109375,-0.10052782815396785,0.036630762983951716,-0.05829754639621824
1772094020713078500,0.33207861328125,0.006081950262188911,0.049511250812467184,-0.11799173478260636
1772094020723027700,0.34202783203125,0.09205752145051956,0.059714062130637464,-0.13832940674927086
1772094020732976600,0.3519765625,0.14110942938923834,0.035054417045321314,-0.06529332356769592
1772094020742925600,0.361925537109375,0.2311550264954567,0.005942066867463291,0.012043671678192912
1772094020752874500,0.37187451171875,0.23312603430747986,0.007018208198994398,-0.023172201272845267
1772094020762823700,0.38182373046875,0.21423837848603725,0.024049659960810092,-0.07679258617088199
1772094020772772600,0.391772705078125,0.2353577388823032,-0.005600833948049694,-0.06877448021434247
1772094020782722800,0.401722900390625,0.24005378774404523,-0.06883810176877304,-0.026704540117457508
1772094020792671700,0.411671630859375,0.2293424241155386,-0.07729250765019095,0.007766725011356174
1772094020802620700,0.42162060546875,0.229785491707921,-0.0399547928401269,-0.015166114547662436
1772094020812569600,0.431569580078125,0.22689561548531054,0.030741230021324006,-0.06835015385504811
1772094020822518500,0.4415185546875,0.1385316878557205,0.0356139871568419,-0.07765413490366191
1772094020832467500,0.451467529296875,0.05451017334461212,0.054850547747500235,-0.04113565492145717
1772094020842416600,0.461416748046875,-0.04417524181306362,-0.03459304661126807,-0.03270717806573957
1772094020852365600,0.471365478515625,-0.12203589560687542,-0.0806396717867814,0.027374511800892648
1772094020862315800,0.481315673828125,-0.12911913186609744,-0.0920831856147386,0.04744874705839902
1772094020872264700,0.4912646484375,-0.06667232030332088,-0.1030756312069483,0.05749718979876488
1772094020882213600,0.501213623046875,-0.06144435652196407,-0.0781280360257253,0.03466013876441866
1772094020892162600,0.51116259765625,-0.11371581102907657,-0.022557265978585928,0.014183094859682022
1772094020902111500,0.521111572265625,-0.15579963352084159,0.04174293663222343,0.0005980754910036921
1772094020912060400,0.531060302734375,-0.1667787081748247,0.03640754868732765,0.04156462092325091
1772094020922009600,0.541009521484375,-0.0779343035519123,0.050957257502852,0.061959685632959005
1772094020931959600,0.55095947265625,0.04021335244476795,0.015164890704955905,-0.011258366519398986
1772094020941908500,0.560908447265625,0.20859540416300296,-0.025637522807298228,-0.03060293579548597
1772094020951857700,0.570857666015625,0.32534313023388384,-0.04887354656397365,-0.062159445988759394
1772094020961806600,0.580806640625,0.31635376809239385,-0.0514131023784168,-0.072183192679286
1772094020971755500,0.590755615234375,0.26085925988554953,-0.1055395462356042,-0.08966021451782434
1772094020981704700,0.60070458984375,0.09944529361426829,-0.11805790448714978,-0.047042212084122
1772094020991653600,0.610653564453125,-0.1370937640070915,0.061799343972094356,-0.01814443623870611
1772094021001603600,0.620603515625,-0.271252059084177,0.10374134684037417,-0.07767729658354074
1772094021011552500,0.630552490234375,-0.2497720486819744,0.0981159812392667,-0.10201916269026697
1772094021021501400,0.64050146484375,-0.1895136870741844,0.11648053563521243,-0.08778393578454852
1772094021031450600,0.65045068359375,-0.14820201799869537,0.042549942166171965,-0.03874397401195019
1772094021041399800,0.66039990234375,-0.2391542085558176,0.04709138042151462,-0.052824229551665484
1772094021051348700,0.6703486328125,-0.2895084312647581,0.203682077555079,-0.13730645690970122
1772094021061297700,0.680297607421875,-0.07268295889496802,0.19943689599968492,-0.1431893226695247
1772094021071247600,0.69024755859375,0.1988075851202011,0.11198734326865524,-0.362293243099004
1772094021081196500,0.700196533203125,0.35090134986042976,0.17473770435526967,-0.49811537973508235
1772094021091145500,0.7101455078125,0.292645560246706,0.1101562919165939,-0.1603106081392616
1772094021101094700,0.7200947265625,0.08813128791749476,0.12751056415829806,0.016012356113456187
1772094021111043600,0.730043701171875,-0.22652970478236675,0.13317748561250045,0.08084272007821128
1772094021120992800,0.73999267578125,-0.27974750022888184,0.03575575198139995,0.27214875219557433
1772094021130941700,0.749941650390625,-0.2643891875773668,-0.10520477045644074,0.3694813279721886
1772094021140891600,0.7598916015625,-0.189618901014328,-0.1583157810602337,0.20985998073872178
1772094021150840600,0.769840576171875,0.08206161261498927,-0.07528068377058952,0.023501853352319448
1772094021160789500,0.77978955078125,0.3167816381156444,-0.03717058721538633,-0.003578497807588428
1772094021170738700,0.78973876953125,0.36469957358837124,-0.009840937469527125,-0.09132352635385468
1772094021180687600,0.7996875,0.08359189092218876,0.11898523933198302,-0.18029760350473223
1772094021190636500,0.809636474609375,-0.07195639818608761,0.3676351155836135,-0.15169601586060596
1772094021200585700,0.819585693359375,0.01120411558151245,0.3175072489764541,-0.10355784349963068
1772094021210534700,0.82953466796875,0.08322773378491401,0.024407515221461652,-0.13769196736225858
1772094021220484600,0.839484619140625,0.04849778118729591,-0.07511818668525666,-0.06646768284300342
1772094021230433800,0.849433837890625,-0.04557575626075268,0.03090001904591918,0.08200975456358864
1772094021240382700,0.8593828125,-0.19521511358618734,0.013353621765598653,0.12086599331097676
1772094021250331600,0.86933154296875,-0.3002338234186172,0.046408188496902585,0.01975201756581664
1772094021260280600,0.879280517578125,-0.27274375894665714,0.1401782129537314,-0.07414937818571925
1772094021270229500,0.8892294921875,-0.19538170232474802,0.20754173039160667,0.08594724927614443
1772094021280178400,0.899178466796875,0.03428220883011818,0.258870789482072,0.38844449671525505
1772094021290128600,0.909128662109375,0.3873533039450645,0.04939195354804397,0.3808225870020687
1772094021300077600,0.91907763671875,0.713556850400567,-0.08403868484161793,0.3673381784636527
1772094021310026800,0.92902685546875,1.023546928679943,-0.11099895328581333,0.316235292811878
1772094021319975700,0.9389755859375,1.249291036042571,-0.13347951903268693,0.11959496872816235
1772094021329924600,0.948924560546875,1.316052788195014,0.0273660727661103,0.04809137407718226
1772094021339873500,0.95887353515625,0.943183936676383,0.0919105872604996,-0.00109614293994382
1772094021349822500,0.968822509765625,0.4118155450284481,0.0007703998506069183,-0.011829147578100673
1772094021359772700,0.978772705078125,0.13817863663434982,0.04884754447303712,0.09488795910347253
1772094021369721600,0.9887216796875,0.05894026474654674,-0.020469079793989656,0.03906477606468834
1772094021379670500,0.99867041015625,0.019970190361142157,-0.03136003777310252,-0.021876119880587793
1772094021389619700,1.00861962890625,-0.09553893382549285,0.016114537846297024,-0.11163375319116749
1772094021399568600,1.018568603515625,-0.24335341381132602,0.019759324089437723,-0.13575597606468945
1772094021409517600,1.028517578125,-0.39395840129852294,-0.05244096585512161,-0.06523564769686199
1772094021419466500,1.038466552734375,-0.37438451677858825,-0.08799882064424455,0.035753703871497414
1772094021429416700,1.048416748046875,-0.1655243241995573,-0.07081358482651412,0.06308009993105661
1772094021439365600,1.05836572265625,0.0673819298774004,-0.016209668783843518,-0.02202488755137892
1772094021449314600,1.068314453125,0.23422376641631126,0.04494045403189957,-0.12247604972296394
1772094021459263500,1.078263427734375,0.377055781814456,0.05293335248194635,-0.12789933514702134
1772094021469212400,1.08821240234375,0.36660277686119075,0.021939079281315207,-0.0678730926615186
1772094021479161600,1.09816162109375,0.22703765430450437,-0.06654306790046394,-0.03914726671637036
1772094021489110800,1.10811083984375,0.13469488617181777,-0.05682984846383333,-0.06212763521154411
1772094021499059700,1.118059814453125,0.06517360617816448,-0.014825009492412208,-0.07800693039670586
1772094021509009700,1.128009765625,0.05853285298943519,0.0015916531056165695,-0.07106171436868608
1772094021518958600,1.13795849609375,0.12364040819406509,-0.02670746272690594,-0.06050733140017837
1772094021528907500,1.147907470703125,0.10535539444088936,-0.034055633532628415,-0.06282033931659534
1772094021538856400,1.1578564453125,0.017714520388841627,-0.07198109423592686,0.014993406595569104
1772094021548805600,1.1678056640625,-0.1432464414179325,-0.09409545701891184,0.07604206006452441
1772094021558754600,1.177754638671875,-0.3402607133805752,0.023879874618165195,-0.020432839436829088
1772094021568703700,1.187703857421875,-0.472736169937253,0.18281232627201824,-0.13125800705831497
1772094021578653700,1.19765380859375,-0.3789455410838127,0.19370416103396565,-0.16513254840299485
1772094021588602600,1.2076025390625,-0.15021978756189344,0.09565474222488701,-0.13500291094137354
1772094021598551600,1.217551513671875,0.04697977783977985,0.02171619377825409,-0.09888404300231486
1772094021608500700,1.227500732421875,0.197757783806324,0.02236873940285295,-0.04324632693249732
1772094021618449700,1.23744970703125,0.26759470562040805,0.002416376959346235,0.010164835661649703
1772094021628398600,1.247398681640625,0.31105215455293656,-0.02809698085654527,0.04723150584483519
1772094021638347500,1.257347412109375,0.2992693623006344,-0.02868033370245248,0.01753638734295964
1772094021648296700,1.267296630859375,0.2141360871553421,0.0322631971579045,-0.04555418374976143
1772094021658246400,1.277246337890625,0.269774972268939,0.08676124167330562,-0.06912789676189422
1772094021668195600,1.287195556640625,0.19874562579989433,0.060624783767387266,-0.10225490767490118
1772094021678144500,1.29714453125,0.026261983981728552,0.0377597852801904,-0.14425733549352734
1772094021688093400,1.307093505859375,-0.06619535044133663,0.033990094015747305,-0.11005374485757201
1772094021698042400,1.31704248046875,-0.15993512589037417,-0.019954992792010306,-0.04708890077006071
1772094021707991600,1.326991455078125,-0.1699333728134632,-0.10469828223902732,0.055177295483835036
1772094021717940500,1.3369404296875,-0.028840310037136076,-0.1070953334433958,0.06852174756228924
1772094021727890400,1.346890380859375,0.08892039246857165,-0.06510740907415748,-0.025739165684022007
1772094021737839400,1.35683935546875,0.1505798530459404,0.004574431776069104,-0.10327449651360511
1772094021747788500,1.36678857421875,0.10916121646463871,0.05763681746516376,-0.10498272520359606
1772094021757737500,1.376737548828125,0.014096914413571356,0.035532245423831044,-0.06678020112458616
1772094021767686400,1.386686279296875,-0.023965981999039647,-0.010807334816269576,-0.01794946165587753
1772094021777635600,1.396635498046875,0.06412438938617705,-0.0017290522823110222,-0.01670406470466405
1772094021787584500,1.40658447265625,0.22421967427432535,0.013592545088008045,-0.028181115476042032
1772094021797534500,1.416534423828125,0.3507680788695812,-0.04368650844804942,-0.02008873870689422
1772094021807483400,1.4264833984375,0.3548199846088886,-0.06994381625466048,-0.04745638237558305
1772094021817432300,1.436432373046875,0.16161913345456122,-0.015899104997329414,-0.08352152909971773
1772094021827381200,1.44638134765625,0.0016243863314390182,0.07837002808805554,-0.0934275676947087
1772094021837330700,1.45633056640625,-0.015403320837020873,0.11902787289731204,-0.11655479731466621
1772094021847279600,1.466279541015625,0.004605447968840598,0.08281593811362982,-0.08761625106744468
1772094021857228500,1.476228515625,-0.0793114371240139,0.03169803755581379,0.0076519395252689715
1772094021867178500,1.486178466796875,-0.102752518466115,-0.0035697117129340765,0.06719758628644049
1772094021877127400,1.49612744140625,-0.08365268119871616,-0.011989201544597745,0.11428126289211213
1772094021887076400,1.506076416015625,-0.004106266275048256,-0.026989677201770243,0.08354637128002941
1772094021897025500,1.516025634765625,0.026007716959714888,-0.026258257654681802,0.0113448757590726
1772094021906974500,1.525974365234375,-0.019729367342591283,0.009219371505081652,-0.07122428451925515
1772094021916923600,1.535923583984375,-0.037519291055202485,-0.0014043869052082299,-0.06727485277373343
1772094021926872600,1.54587255859375,0.0073503627628088,-0.048999739360064264,0.015084062287397683
1772094021936821500,1.555821533203125,0.14885609799325467,-0.04891498368605971,0.0013278510702773927
1772094021946771500,1.565771484375,0.2659451848477125,-0.07397814980465918,-0.049775546038150785
1772094021956720600,1.575720703125,0.32613457287251946,-0.027494777179695663,-0.14211824110560117
1772094021966669600,1.585669677734375,0.2412111410856247,0.048673795341327784,-0.13983294318001716
1772094021976618500,1.595618408203125,0.2120622034907341,0.07144074028152972,-0.07253982409723103
1772094021986567400,1.6055673828125,0.2267933241546154,0.05554521548077464,-0.05626921890638768
1772094021996516400,1.615516357421875,0.17840718664824962,0.03980678093787283,-0.06460950602199882
1772094022006465500,1.625465576171875,0.04681669623255729,0.0409981096142903,-0.05011672415863722
1772094022016415500,1.63541552734375,-0.01083469774723053,-0.0027398367600515484,0.0013039952706545592
1772094022026364700,1.64536474609375,0.10926818397045135,-0.003879216053523123,0.01993212337307632
1772094022036313600,1.655313720703125,0.24359891300499437,-0.025752828883193433,-0.028795813308283683
1772094022046262500,1.665262451171875,0.2614525496035814,-0.043420368325151504,-0.060887635954655704
1772094022056211500,1.67521142578125,0.24688100341558455,-0.012646971333585678,-0.03123933400288224
1772094022066160400,1.685160400390625,0.2350841826379299,0.06829108061157167,-0.05963219253346324
1772094022076109300,1.695109375,0.1802601210385561,0.09706276412559672,-0.12568210662212223
1772094022086059500,1.7050595703125,0.12561901479065418,0.08507670438615604,-0.1344627944489941
1772094022096008400,1.715008544921875,0.11769172892272471,0.025065668602939694,-0.06233666571918874
1772094022105957600,1.72495751953125,0.04687573294341564,-0.03001048632767051,-0.035227746051922436
1772094022115906600,1.734906494140625,-0.01425707341134548,-0.0485915604179725,-0.008461758070811629
1772094022125855500,1.74485546875,-0.021482933011651037,-0.031733729923702776,0.03331179289538413
1772094022135804400,1.754804443359375,-0.09049860157072544,-0.0517830682019703,0.07922923873327672
1772094022145753300,1.76475341796875,-0.20174597665965555,-0.04672244207784533,0.12965594215653836
1772094022155702500,1.77470263671875,-0.2512058808773756,0.05333837135257199,0.05250986637286842
1772094022165652500,1.784652587890625,-0.4176473199218511,0.07909394018212333,-0.033223639687895774
1772094022175601400,1.794601318359375,-0.42748949950039383,0.08239310959167778,-0.016401939952932296
1772094022185550300,1.80455029296875,-0.2103366948723793,0.09155463169598951,-0.01743267124015838
1772094022195499500,1.81449951171875,-0.0487029483705759,0.08650443563433363,-0.0608336407450959
1772094022205448400,1.824448486328125,0.08923428072333335,0.07824399055559188,-0.043748285105265676
1772094022215397600,1.834397705078125,0.24560791473984717,0.034800643213652074,0.0410359574066475
1772094022225346600,1.8443466796875,0.4625222344368696,-0.02087665594788268,0.1294124157242477
1772094022235296500,1.854296630859375,0.6625380263030529,-0.06077898794841021,0.11349672491829842
1772094022245245400,1.864245361328125,0.7311106272697449,-0.15481548132169992,0.04913629828654229
1772094022255194400,1.8741943359375,0.6991513084292411,-0.17012056594863534,0.0361328051328659
1772094022265143300,1.884143310546875,0.621847119474411,0.04095129306418821,0.007008490522578358
1772094022275092500,1.894092529296875,0.3467921609759331,0.2566957835305482,-0.0815169843442738
1772094022285041700,1.904041748046875,-0.01188859071433544,0.2402451821302995,-0.07340462423302233
1772094022294990600,1.913990478515625,-0.2830734297811985,0.11340638888687826,0.07577617566995322
1772094022304940500,1.9239404296875,-0.45615854462385175,-0.027422202850540634,0.2273288192708045
1772094022314889500,1.933889404296875,-0.6335843190193176,-0.07094541734552476,0.204357547397539
1772094022324838400,1.94383837890625,-0.7727700868695974,-0.03704156314139254,0.0743826754849404
1772094022334787300,1.953787353515625,-0.72007894564569,0.04126067867376841,-0.051700230490416284
1772094022344736500,1.963736572265625,-0.4889852939486503,0.13731999224470928,-0.18678060884848235
1772094022354685400,1.973685546875,-0.12717501206099988,0.12617189943306148,-0.20679807241745293
1772094022364634600,1.983634521484375,0.1723392649114132,0.03294279290292179,-0.13332849318943918
1772094022374583600,1.99358349609375,0.36550855188369746,0.004841526313615031,-0.11692359409444034
1772094022384533500,2.003533447265625,0.4168856878995895,-0.0007715015373716596,-0.14109130921065807
1772094022394482400,2.013482421875,0.24934184057116507,-0.009487651069427375,-0.1301254593644291
1772094022404431600,2.023431640625,-0.03242576730847359,-0.004957250231329817,-0.09430098952837287
1772094022414380500,2.033380615234375,-0.20621055485308168,-0.03586208929955028,-0.008988193097710609
1772094022424329500,2.04332958984375,-0.16892098090052604,-0.04321048386755865,0.05110679464191198
1772094022434278400,2.0532783203125,-0.04886486093401909,0.00955297367388848,0.03454823935516178
1772094022444227600,2.0632275390625,0.1170300501435995,0.020202971637132576,-0.05804353510253131
1772094022454177300,2.07317724609375,0.2292535767883062,0.02757874283583369,-0.11536715843267738
1772094022464126500,2.08312646484375,0.22411153772473333,0.04540938215132337,-0.12464067127779126
1772094022474075600,2.09307568359375,0.14698270533680916,0.04465054030776955,-0.07895129857473075
1772094022484024600,2.103024658203125,0.125417939260602,0.0037348848125431685,-0.024404081155359744
1772094022493973500,2.112973388671875,0.17815116606056688,-0.0240640446791891,-0.05046615865081548
1772094022503922400,2.12292236328125,0.2181096669614315,-0.044830180324148386,-0.0813509070623666
1772094022513871400,2.132871337890625,0.26516660169065,-0.05256268340549432,-0.0604413900244981
1772094022523821600,2.142821533203125,0.3009060235917568,-0.031402022884460166,-0.03291230871640145
1772094022533770500,2.1527705078125,0.2304220360457897,-0.001460163079900667,-0.01649228511750698
1772094022543719400,2.162719482421875,0.06423778663277625,0.02719017734308727,0.007029241049662232
1772094022553668600,2.172668701171875,-0.05930149927437305,0.03762959672899451,0.025345015267282722
1772094022563617500,2.182617431640625,-0.13250351360738277,0.010381729815341531,0.02105250570513308
1772094022573566500,2.19256640625,-0.12653028441667555,0.0053308396339416505,0.023237740789726374
1772094022583515400,2.202515380859375,-0.06278700330257415,0.010958607254689558,0.023478125416859983
1772094022593464300,2.21246435546875,0.019771452918648718,-0.024145074026146903,0.023673501858487725
1772094022603414500,2.22241455078125,0.13581249202489853,-0.04645147051620297,0.045448330488801
1772094022613363500,2.232363525390625,0.20232231524288652,-0.03673179393932223,0.02492467096336186
1772094022623312400,2.2423125,0.23472820880711076,-0.022437712985835967,-0.01533032866604626
1772094022633261600,2.252261474609375,0.19624387211203573,0.02260629275208339,-0.07489749313928186
1772094022643210500,2.26221044921875,0.06675999858677387,0.06857659215521998,-0.10121157263442873
1772094022653159400,2.272159423828125,0.009525953236222266,0.01459669889556244,-0.08479914782010019
1772094022663108600,2.282108642578125,-0.010815993046760558,-0.05783142672181129,-0.07664272937141359
1772094022673059000,2.29205908203125,-0.0023106150299310683,-0.046511388576473106,-0.06239771172404289
1772094022683008000,2.302008056640625,0.011395254239439963,0.01568658562465571,-0.08766798125468193
1772094022692957000,2.31195703125,0.021492285361886024,0.03421646838383749,-0.07139014260545372
1772094022702905900,2.32190576171875,0.050180619707703586,0.04684823758171405,-0.012113266315683721
1772094022712854800,2.331854736328125,0.06351414853334426,0.03709692832413129,-0.00960610580034554
1772094022722803700,2.3418037109375,0.06952595616877079,0.02067222398354206,-0.05475150781981647
1772094022732753000,2.3517529296875,0.08632277719080447,0.026346260165120473,-0.091003409287706
1772094022742702000,2.3617021484375,0.10307400550544261,-0.020955959128635,-0.08315393789634108
1772094022752652000,2.371652099609375,0.10490823519527911,-0.06035030964098405,-0.04257737816236913
1772094022762601000,2.38160107421875,0.0663011489033699,-0.017837320218025705,-0.019324293673038482
1772094022772550000,2.3915498046875,0.0492477227717638,0.01676746249680873,-0.02980309065468609
1772094022782498800,2.401498779296875,0.07045417692959308,0.0010146249692188575,-0.02318688738532364
1772094022792447700,2.41144775390625,0.09848200154006481,-0.02486129143752623,-0.00031074644960463047
1772094022802397000,2.42139697265625,0.03385550785064697,-0.005093939305259846,0.003741889942064881
1772094022812345900,2.431345947265625,-0.03402443467676639,0.04000473749565426,-0.014463190442696212
1772094022822295800,2.4412958984375,-0.035571079596877095,0.04326359316112939,-0.021914894688129422
1772094022832245000,2.451244873046875,-0.015433715975284576,0.04210652751391753,-0.017970979367941616
1772094022842194000,2.46119384765625,0.059169397327303884,0.03460604765673633,-0.026823198061063883
1772094022852142800,2.471142822265625,0.13670038077533245,0.001918451074301265,-0.022915742293745277
1772094022862092000,2.481092041015625,0.19226503160893915,-0.0395519887594739,-0.01465469442680478
1772094022872041000,2.491041015625,0.1896060415327549,-0.043260898880544116,-0.023525983146578073
1772094022881990000,2.500989990234375,0.13365326816439627,-0.02723885705671273,-0.04440342454575002
1772094022891938800,2.510938720703125,0.1117839661836624,-0.03403321620484348,-0.03184628692008555
1772094022901888800,2.520888671875,0.17434417499303817,-0.07446162703924346,-0.010627630867809056
1772094022911837700,2.530837646484375,0.18470190287828445,-0.11640789965726435,0.004770721533149481
1772094022921787000,2.540786865234375,0.16156535744071004,-0.0832468220778741,0.03332899975851178
1772094022931736000,2.550736083984375,0.10115209753215312,-0.039927101115603,0.06634681467600166
1772094022941685000,2.56068505859375,0.0028530513435602186,-0.003938933184393681,0.08163863796256482
1772094022951634000,2.570634033203125,-0.20442016430497167,-0.0014296857432462274,0.13748685497790575
1772094022961582800,2.580582763671875,-0.31291677938103674,0.011358525258512235,0.1576285294484347
1772094022971532800,2.59053271484375,-0.33396073645353314,0.010212054070550947,0.11659684635810554
1772094022981481700,2.600481689453125,-0.22393735020160674,0.05347135921563022,0.07380794433690607
1772094022991431000,2.610430908203125,0.0020189386069774627,0.19554838239485398,-0.01680653869844973
1772094023001379800,2.6203798828125,0.0879202755153179,0.25884136245818806,-0.0868318957567215
1772094023011329000,2.6303291015625,0.22392858237326144,0.2917870437212288,-0.08516213591359555
1772094023021278000,2.64027783203125,0.42035190270543094,0.2161881425806321,-0.11596132493354379
1772094023031227000,2.650226806640625,0.511856466448307,0.08364906446952372,-0.05713358065076172
1772094023041175800,2.66017578125,0.36090661104619504,-0.06485911513520404,0.12081234516128897
1772094023051126000,2.6701259765625,0.05327741667926311,-0.11002298439312726,0.21705146314539014
1772094023061075000,2.680074951171875,-0.21244798793792724,-0.06580564787085168,0.057163172071427105
1772094023071023900,2.69002392578125,-0.29581776054203507,0.03226679562078789,-0.1807104220893234
1772094023080972800,2.699972900390625,-0.20295476792752742,0.053372501951036974,-0.2644275468263775
1772094023090922000,2.709921875,-0.03397475031614303,0.05873479616916738,-0.17385339580141007
1772094023100871000,2.719870849609375,0.13265548929870127,0.027988214119290932,-0.04923011404983699
1772094023110819800,2.72981982421875,0.27789982653558254,-0.006993539548618718,-0.03377162895947695
1772094023120770000,2.73977001953125,0.342663098347187,-0.03954804780329577,-0.0445133146610111
1772094023130719000,2.749718994140625,0.3534481117337942,-0.022142976956116035,-0.10266878570541739
1772094023140668000,2.75966796875,0.34377310541570183,0.02256048998213373,-0.1276996935222298
1772094023150616800,2.769616943359375,0.2821615756332874,0.03224461575502064,-0.1476326206129044
1772094023160565800,2.779565673828125,0.21148761847317218,0.026277286582137457,-0.1703890806917101
1772094023170515000,2.789514892578125,0.11170973190367221,-0.001558486054954119,-0.14317162261605262
1772094023180463900,2.7994638671875,-0.047796939441561694,-0.038614141653780826,-0.06901866423375905
1772094023190413800,2.809413818359375,-0.21274492505788803,-0.036127448537736195,0.007652560579776763
1772094023200363000,2.819363037109375,-0.3120323977619409,-0.023381042267533483,0.06895341697782277
1772094023210312000,2.82931201171875,-0.24693653299510476,0.004335839530511293,0.08206161261498927
1772094023220260900,2.8392607421875,-0.13763152414560317,0.0018129266069037838,0.05936397005133331
1772094023230209800,2.849209716796875,-0.03525660682022572,-0.012999291902594268,0.04100647558383643
1772094023240158700,2.85915869140625,0.045270051312446595,-0.008380514094722456,0.038209173015505075
1772094023250108000,2.86910791015625,0.10992284848690033,0.020462156862858683,0.023470234371349215
1772094023260057900,2.879057861328125,0.14063012143969536,0.040295477770268914,-0.016017580277845264
1772094023270006800,2.8890068359375,0.13542027783691882,0.027853874549362806,-0.018424495289102196
1772094023279956000,2.8989560546875,0.159450557243824,0.0032542845216346904,0.02295746254362166
1772094023289905000,2.90890478515625,0.2092079831033945,-0.017962101941742,0.07655190928280353
1772094023299853800,2.918853759765625,0.20349018997848034,-0.028564465937553903,0.10895977560840546
1772094023309803000,2.928802978515625,0.12388590738773345,-0.0036011114981956776,0.09878405322656035
1772094023319752000,2.938751953125,0.0787315914094448,0.025625713638495654,0.0621554274007678
1772094023329700900,2.948700927734375,0.04349719642102718,0.03770842498571146,0.052262978939712046
1772094023339650800,2.95865087890625,0.08391337796151638,0.05376837396740448,0.0441886127512902
1772094023349599700,2.968599853515625,0.1598468630850315,0.05282222482424695,0.01877009385637939
1772094023359549000,2.978548828125,0.14958850392103196,0.00390635522219818,-0.0012712620448321102
1772094023369498000,2.988498046875,0.08258475970625877,-0.04614516734627541,0.004424246183037757
1772094023379447000,2.998447021484375,0.05302314965724945,-0.039151372069329955,-0.002257788864150643
1772094023389396000,3.00839599609375,0.05099135156869888,-0.004260354008350987,-0.04993877377584576
1772094023399345000,3.018344970703125,0.017509937727451325,0.020226026002445722,-0.11413549774587153
1772094023409294800,3.028294921875,-0.03596680091619491,0.029819352236320262,-0.15553046119064093
1772094023419243800,3.038243896484375,-0.08105097426772118,0.014327830242749768,-0.12772775057293473
1772094023429192700,3.048192626953125,-0.1280658234208822,-0.014110945222212467,-0.0729318921547383
1772094023439142000,3.058141845703125,-0.10372750097811222,-0.05343808713369071,-0.024462971735745666
1772094023449091000,3.068091064453125,0.00953881271779537,-0.06616537542818114,-0.02854863361418247
1772094023459040000,3.0780400390625,0.1316273152947426,-0.05379417969551868,-0.06776566849797963
1772094023468989000,3.087989013671875,0.22480419616401195,-0.00897838865632657,-0.1184254500247538
1772094023478937900,3.097937744140625,0.2357902850806713,0.01798954250451643,-0.1528900296844542
1772094023488887800,3.1078876953125,0.17413140902519225,0.009472302803245838,-0.12584091391302643
1772094023498837000,3.1178369140625,0.07232055532336235,-0.006049787858524359,-0.06414075599908828
1772094023508786000,3.127785888671875,0.055393385919928546,-0.04591099783079698,0.006170505328476429
1772094023518734800,3.13773486328125,0.07993161484897136,-0.02686449818583205,-0.004617503732815385
1772094023528683800,3.147683837890625,0.08786299237012862,0.013096388751652557,-0.04396905171647668
1772094023538633000,3.157633056640625,0.03434709075987339,-0.00694713399047032,-0.043439986341074106
1772094023548582000,3.167581787109375,-0.025183541095256803,-0.021492545656790023,-0.026787761421501636
1772094023558532000,3.177531982421875,0.0009147767573595046,-0.03239099738919176,-0.006945142962783575
1772094023568481000,3.18748095703125,0.06208206990361213,-0.04953757256381213,-0.023642668328806758
1772094023578430000,3.197429931640625,0.10123334607481956,0.006215704168583034,-0.055103463062644
1772094023588379000,3.20737890625,0.06540273875892162,0.05060386378818657,-0.046105625353753565
1772094023598327800,3.217327880859375,-0.0037748423635959624,0.03044786853136029,-0.04481996945738792
1772094023608276700,3.22727685546875,-0.0408124873816967,-0.005255531066650292,-0.059688233569636935
1772094023618226000,3.237225830078125,-0.026048633491992948,-0.003283131019384018,-0.045117564164474606
1772094023628174800,3.2471748046875,-0.003201426389813423,-0.0074491172794136215,-0.034757936583086846
1772094023638125000,3.257125,0.028433482801914215,0.0010924468664714367,-0.03170475955754518
1772094023648074000,3.267073974609375,-0.0392307711482048,0.03488474586710799,-0.0010078618682920933
1772094023658023000,3.27702294921875,-0.10145020369589328,0.02295306721300585,0.008724573725461959
1772094023667972000,3.28697216796875,-0.12557692921459673,-0.024014759894076268,0.03995755105279386
1772094023677921000,3.296921142578125,-0.08332184180915356,-0.02876179230767302,0.058327028219029305
1772094023687870000,3.306869873046875,0.01393207924067974,0.029290976414084433,0.01568177245222032
1772094023697819000,3.31681884765625,0.16265023006796836,0.0772156521548517,-0.021846067235618827
1772094023707769000,3.32676904296875,0.2579407420903444,0.081060098289093,-0.0629452626042068
1772094023717718000,3.336718017578125,0.2679974412024021,0.08017057470399885,-0.10190708061791956
1772094023727667200,3.346667236328125,0.19959844323694706,0.07737920868610963,-0.08293298862203956
1772094023737616100,3.3566162109375,0.08276596149206161,0.06903313115052878,-0.09073248339183627
1772094023747565000,3.36656494140625,0.02147416518330574,0.04047927337195724,-0.07749087063334882
1772094023757514000,3.376513916015625,0.04269055621325969,0.001133977032569237,-0.049971799262613054
1772094023767463200,3.386463134765625,0.11054945595264434,-0.006717231941444334,-0.026614158420264718
1772094023777413000,3.3964130859375,0.1563040759116411,0.020311167552229017,-0.03747545191347599
1772094023787362000,3.406362060546875,0.11238251659870147,0.03534031903132563,-0.05199957876317203
1772094023797311000,3.41631103515625,0.010292845955491065,0.04128876312393695,-0.03274813113063574
1772094023807260200,3.42626025390625,-0.04317454033792019,0.040360346000292334,-0.015795827285945415
1772094023817209000,3.436208984375,-0.07553425667285919,0.05090162745863199,-0.026125278924778103
1772094023827158300,3.446158203125,-0.06407762763500213,0.09457162316329777,-0.07155410099551081
1772094023837107200,3.456107177734375,-0.0016559505134820937,0.12691795029370115,-0.08821779715716839
1772094023847056100,3.46605615234375,0.03124094143807888,0.09584178009643218,-0.04005509314313531
1772094023857006000,3.476006103515625,0.07371347098648548,0.06309862653501332,0.01977167211435735
1772094023866955000,3.485955078125,0.09390987131893634,0.052716412662481886,0.028629005374014378
1772094023876904000,3.495904052734375,0.10861585754156113,0.07632779080388136,0.00990275065936148
1772094023886853000,3.50585302734375,0.14204115728139877,0.10901073861066252,-0.05404862024746835
1772094023896802300,3.51580224609375,0.13816753071844576,0.09634724540053866,-0.09545542026050388
1772094023906751200,3.525751220703125,0.07513561274409293,0.04408536243936978,-0.07145290564335882
1772094023916700200,3.5357001953125,0.027527473872900006,-0.027605320315505378,-0.029064693377539513
1772094023926650000,3.545650146484375,0.006155600020289421,-0.015958954558940603,-0.019864172703400254
1772094023936599000,3.55559912109375,0.05329845946729183,0.044158418542426074,-0.063955243364349
1772094023946548200,3.56554833984375,0.08795651587247848,0.08810456430735066,-0.12197196352519095
1772094023956497200,3.5754970703125,0.09654080434441566,0.0863897780124098,-0.1414332545161247
1772094023966446000,3.585446044921875,0.08810323086678981,0.05976298843943514,-0.1125292315930128
1772094023976395000,3.59539501953125,0.06040449208021163,0.0013529535454930737,-0.054696416631713506
1772094023986344200,3.60534423828125,0.0682967066347599,-0.04082510483467486,-0.005768719594553113
1772094023996294100,3.615294189453125,0.09454875374436378,-0.07801776231797411,0.01758789833448827
1772094024006243000,3.6252431640625,0.07785422405302524,-0.05998496519362088,-0.0024742080938071013
1772094024016192300,3.635192138671875,0.08901216240525245,-0.008471279384405351,-0.046330154824629426
1772094024026141200,3.64514111328125,0.08798281935751438,0.02468532294926699,-0.06311586993075907
1772094024036090000,3.655090087890625,0.08507365391254425,0.06638684985886793,-0.03532207327187061
1772094024046039000,3.6650390625,0.11325170064866542,0.09213297957321628,0.01352642104923725
1772094024055988000,3.674988037109375,0.08066869695186614,0.067035303830239,0.048860184758901595
1772094024065937200,3.684937255859375,0.03614858722388744,0.08283290751473978,0.054489642013236875
1772094024075887000,3.69488720703125,0.03550327505767345,0.0769356570365373,0.02166574223265052
1772094024085836300,3.704836181640625,0.04998246678709983,0.02251813497801777,-0.0046137774057686326
1772094024095785200,3.71478515625,0.06257306829094886,-0.01045166694612708,0.008530293262377382
1772094024105734100,3.724734130859375,0.0903302592664957,-0.04111944357217289,-0.0004643295761197805
1772094024115683000,3.73468310546875,0.11601999631822109,-0.04574386566954199,-0.0281356688991189
1772094024125632000,3.744632080078125,0.14445114103257656,-0.046526303017814644,-0.05322510197013616
1772094024135581000,3.754580810546875,0.12277239318788051,-0.03052469662723597,-0.09630136956535279
1772094024145531100,3.76453125,0.050014615491032595,-0.014773037276579998,-0.12876345029622316
1772094024155480000,3.77447998046875,-0.027213001096248624,-0.00917387926238589,-0.13314809512123466
1772094024165429000,3.784428955078125,-0.05553191760778427,-0.03150676646714564,-0.10354593386612831
1772094024175378200,3.794378173828125,-0.061485857576131814,-0.05105398674244061,-0.08102087139040232
1772094024185327000,3.8043271484375,-0.09163841925561428,-0.027349272328359073,-0.08675678469389676
1772094024195276000,3.814276123046875,-0.07869944270551205,0.0023879545824602244,-0.09098024760782718
1772094024205225000,3.824224853515625,-0.025361820271611213,-0.011528169037261978,-0.0721818775050342
1772094024215175200,3.834175048828125,-0.00011748889982700347,-0.02798788075915072,-0.05917312365435064
1772094024225124000,3.8441240234375,0.05497662181258201,-0.026930316263926213,-0.0690399262174964
1772094024235073000,3.854072998046875,0.061783963739871973,-0.012370894338563084,-0.05574190709665417
1772094024245022000,3.86402197265625,0.0848269856750965,0.019286692475853486,-0.04247983607202768
1772094024254971100,3.87397119140625,0.10430500860512255,0.02809740098165348,-0.031396497325971724
1772094024264920000,3.883920166015625,0.14315174887180326,0.01710469052796252,-0.026110958138480782
1772094024274869200,3.893869140625,0.20626608443260191,0.02635579974502325,-0.006702566378563642
1772094024284819200,3.903819091796875,0.2591442726612091,0.03662723758630455,0.0244348416198045
1772094024294768000,3.91376806640625,0.2378559854388237,0.06729762172796763,0.048720118701085446
1772094024304717000,3.923717041015625,0.10758242284059524,0.1051782112430781,0.04225691403634846
1772094024314666000,3.933666015625,0.07344517543911934,0.12754364444399252,0.019535525270923972
1772094024324615000,3.943614990234375,0.07616846292316913,0.10703552954755723,0.0006039572425186634
1772094024334564000,3.953564208984375,0.05067746331393718,0.07226440925591159,-0.00884447377808392
1772094024344513300,3.96351318359375,0.013992284995317458,0.08623831377774477,-0.021828896905109287
1772094024354462200,3.973462158203125,0.03474865729808807,0.09776150524578987,-0.027175080238655207
1772094024364412200,3.983412109375,0.07693944729566574,0.06699832825413905,-0.021933453258126973
1772094024374361000,3.993361083984375,0.08200608303546905,0.05774935162866022,-0.03291274710781872
1772094024384310000,4.00331005859375,0.04517068259119987,0.07645276432384271,-0.007900763187184929
1772094024394259200,4.01325927734375,-0.0027834932386875152,0.11674651136132888,-0.008354571369290352
1772094024404208000,4.0232080078125,-0.025428455767035483,0.1081409791719634,-0.024955650623515246
1772094024414157000,4.033156982421875,-0.07546352952420711,0.039118026922154235,-0.017595935510471464
1772094024424106200,4.043106201171875,-0.0881909091502428,0.0016267198524205014,0.024113792971894144
1772094024434056000,4.053055908203125,-0.008859013760089874,0.024746300455462188,0.031718349691480394
1772094024444005000,4.063005126953125,0.11453706428408622,0.058664343015151096,-0.003836874749138951
1772094024453954300,4.072954345703125,0.20001111569106578,0.0907201171006076,-0.047824046644195914
1772094024463903200,4.0829033203125,0.19633330396115778,0.11063916179640218,-0.05568959238752722
1772094024473852200,4.09285205078125,0.12606032881736753,0.08684678279859945,-0.05281769021302461
1772094024483801000,4.102801025390625,0.030773323926329612,0.08240532975243405,-0.05709522140175104
1772094024493750000,4.11275,0.010975567522644995,0.05167845705002546,-0.03716865098662674
1772094024503700000,4.122699951171875,0.01902501846551895,0.05054506453934591,-0.019920140674337745
1772094024513649200,4.132649169921875,0.07799158669710159,0.06305536734859925,0.004155000787600875
1772094024523598000,4.14259814453125,0.11534896518886088,0.05362145804369356,0.0033348435111343858
1772094024533547300,4.15254736328125,0.1020984384715557,-0.006905075813876465,0.02293269342854619
1772094024543496200,4.16249609375,0.08217676342725753,-0.05914140420868061,0.05467990388832986
1772094024553445000,4.172445068359375,0.11866612691283225,-0.03739558247714303,0.05406484072990715
1772094024563394000,4.18239404296875,0.20481354753673076,0.03381019370446447,0.007202990181371569
1772094024573344000,4.192343994140625,0.2527121937870979,0.13975368566503749,-0.06994491223320365
1772094024583293200,4.202293212890625,0.21456045004725455,0.1932711033789441,-0.06207797825038433
1772094024593242000,4.2122421875,0.13780571166872976,0.09619814665289596,0.011097732597589493
1772094024603191000,4.22219091796875,0.05013911865353584,-0.03411986244183499,0.11630860400125384
1772094024613140200,4.23214013671875,0.013192659050226211,-0.08855351365124806,0.13638444669395686
1772094024623089200,4.242089111328125,-0.03358078256249428,-0.07094306555823422,0.08847337935343384
1772094024633038000,4.2520380859375,-0.016322189247608185,-0.0258857185648405,0.036739684984833
1772094024642988300,4.26198828125,0.007812719577550888,0.01870397895076312,-0.009657470661401749
1772094024652937200,4.271937255859375,0.037494741135835646,0.01593540243670577,-0.023781711473315953
1772094024662886100,4.28188623046875,0.08653437411487103,0.032463905078487,-0.04348777100555599
1772094024672834800,4.291834716796875,0.10581424412429333,0.07376925629433244,-0.05505589759387076
1772094024682783700,4.30178369140625,0.07929331694543361,0.08765249142460524,-0.039743542975932356
1772094024692733000,4.31173291015625,0.005545359167456626,0.06904813692341558,-0.01434307119436562
1772094024702681900,4.321681884765625,-0.09254910435974598,0.04821274913426023,-0.0022242519207298756
1772094024712632000,4.331632080078125,-0.07356967860162257,0.011579419733886607,0.004331964789703488
1772094024722581000,4.3415810546875,0.007578910821676253,-0.02747753606723854,0.004686185054853558
1772094024732530000,4.351530029296875,0.08966390431225299,-0.011519903532415627,0.01513049524500966
1772094024742478800,4.361478759765625,0.16111293749809263,0.016070385894028004,0.016886983523517845
1772094024752427800,4.371427734375,0.18386486753225326,0.01116585908049019,-0.005075403568148612
1772094024762376700,4.381376708984375,0.15897709451317787,0.04155740573117509,-0.005738835912942886
1772094024772325600,4.39132568359375,0.1183200899541378,0.09255974448476917,0.004279211689159274
1772094024782275800,4.40127587890625,0.07000584864020347,0.07701614752737805,-0.0019487959802150724
1772094024792224800,4.411224853515625,0.01885784520506859,0.021864406609907745,0.009282426803931593
1772094024802174000,4.421174072265625,-0.008874211329221724,-0.011951604913990013,0.014206220006942749
1772094024812123000,4.431122802734375,-0.02513444125652313,-0.017154256157577038,0.020555004511773584
1772094024822071800,4.44107177734375,0.02191021851301193,-0.0015812892585177906,0.03445537343993783
1772094024832020700,4.451020751953125,0.11839958493113517,-0.0026448588028433733,0.010387100110203027
1772094024841970000,4.460969970703125,0.16814181322157382,0.0410055622683838,-0.028963717221096155
1772094024851920000,4.470919921875,0.17305530422627924,0.08297061721868812,-0.029222733483463523
1772094024861868800,4.480868896484375,0.10971358965039253,0.060552581614279184,-0.019323709151148796
1772094024871817700,4.490817626953125,0.013507131826877593,0.015561059548845515,0.016719810263067483
1772094024881767000,4.500766845703125,-0.011173720443248748,-0.012191019143455195,0.05024762052930891
1772094024891715800,4.5107158203125,0.018505963027477264,-0.03610788532074075,0.019101810028776527
1772094024901665000,4.5206650390625,0.06920505365133285,-0.025977737379982133,-0.006445376747101545
1772094024911614000,4.530614013671875,0.13634382242262363,0.009237562465609516,-0.01784676846638322
1772094024921564000,4.54056396484375,0.15580547873973846,0.01527551147257909,0.007505041867867112
1772094024931512800,4.550512939453125,0.12993980059921742,0.01833629184926394,0.01860788903199136
1772094024941461800,4.560461669921875,0.11931669977605343,0.022115824087709186,0.014080986192077398
1772094024951410700,4.57041064453125,0.0996931308954954,0.01820936155094532,0.002319894314929843
1772094024961360000,4.58035986328125,0.06223053846359253,0.016474596480478065,-0.0031534225296229123
1772094024971309000,4.59030908203125,0.020337854629755018,0.023036644710076506,0.0033432460132986307
1772094024981258000,4.600258056640625,-0.06270049406290054,-0.0016477946064900606,0.05235927892103791
1772094024991208000,4.6102080078125,-0.024317864176630972,-0.02813782889016438,0.06595007044337689
1772094025001156900,4.620156982421875,0.08049801656007766,-0.07094400170657318,0.03307093334421515
1772094025011105800,4.630105712890625,0.1740285331726074,-0.03862200073325075,-0.02170958137437701
1772094025021054700,4.6400546875,0.21478373740911483,0.009783976268034893,-0.06195683608874678
1772094025031004000,4.65000390625,0.18153671684563158,0.037447646024520505,-0.08129698491804302
1772094025040952800,4.659952880859375,0.12338497212827206,0.0093850834608078,-0.07776048135496676
1772094025050902000,4.669902099609375,0.044076457613706585,-0.025194742909283377,-0.08463307053819298
1772094025060851700,4.679851806640625,-0.0173977095246315,-0.04278905271824915,-0.08418510757498443
1772094025070801000,4.68980078125,-0.08719605289399623,-0.06462879524435848,-0.06297843422144651
1772094025080749800,4.699749755859375,-0.13132687104344368,-0.0666605978994863,-0.02466558163575828
1772094025090699000,4.709698974609375,-0.08590250595211982,-0.03816460093812784,-0.01586187825948
1772094025100648000,4.71964794921875,0.029386838003993034,-0.029191468412231185,-0.04149140955656767
1772094025110596900,4.729596923828125,0.17683190015554426,-0.016059300527721643,-0.0856735195018351
1772094025120545800,4.7395458984375,0.22576631919443607,0.03157426047909539,-0.11354125817976891
1772094025130495700,4.749495849609375,0.16540040555894372,0.08452891604397446,-0.09204071644619106
1772094025140444700,4.759444580078125,0.07668693383932113,0.10040316059468314,-0.05161847049109637
1772094025150393900,4.769393798828125,0.05489946492314338,0.0316411517028464,0.019100933245941996
1772094025160343000,4.779343017578125,0.04670505255162716,-0.08086623795111664,0.0922217721015215
1772094025170292000,4.7892919921875,0.026986791124939916,-0.10075706119942478,0.12336159125268459
1772094025180241000,4.799240966796875,0.0354272872120142,0.012467597320332424,0.08472630177959799
1772094025190189800,4.80918994140625,0.07945990568399429,0.14034812616053968,0.019539178532734514
1772094025200139800,4.819139892578125,0.1363444069445133,0.19732925619594752,-0.005718231516331434
1772094025210089000,4.8290888671875,0.13273030810058117,0.13909431757400742,0.004651479067653418
1772094025220038000,4.839037841796875,0.05935118363499641,0.04432182437663432,0.05916062949895858
1772094025229986800,4.84898681640625,-0.041241526448726654,0.008550148169495514,0.08783376627564429
1772094025239936000,4.85893603515625,-0.07239829673469066,-0.0025510912740210187,0.026780966354534027
1772094025249885000,4.868885009765625,-0.04725158051848411,-0.007853476279624738,-0.0434075453761965
1772094025259835000,4.8788349609375,0.02109773308634758,-0.006582227934524417,-0.09311061070002614
1772094025269784000,4.8887841796875,0.015253683233261107,0.02133376804863801,-0.10730506720393895
1772094025279733000,4.89873291015625,0.03682312548458576,0.04101618869367521,-0.11257277847379446
1772094025289682000,4.908681884765625,0.0821954681277275,0.024787815209361724,-0.0924817382119596
1772094025299630800,4.918630859375,0.12071546065807341,-0.02882267619903432,-0.07493921338915824
1772094025309579800,4.928579833984375,0.12119710669517517,-0.047113409590232184,-0.05612038502022624
1772094025319528700,4.93852880859375,0.11112579453587532,-0.029047525330318603,-0.03464256657510996
1772094025329478700,4.948478759765625,0.09365326620936393,0.02278527974791359,-0.02704370894394815
1772094025339427800,4.958427734375,0.09136427848935126,0.08228669920829124,-0.02446845162846148
1772094025349377000,4.968376953125,0.1087514666199684,0.0884572867351584,-0.03167166100554168
1772094025359326000,4.978325927734375,0.11769582057595253,0.04931901160941925,0.027468291031569243
1772094025369275000,4.98827490234375,0.11766542543768882,0.00041160159175051376,0.10401873900964856
1772094025379223800,4.998223876953125,0.14250935931503772,0.02497127973419847,0.11463102617785334
1772094025389172700,5.0081728515625,0.12381167310774326,0.033631498969579114,0.0698156598303467
1772094025399123000,5.018123046875,0.10429390268921851,0.06256311315251514,0.03953691448792815
1772094025409071900,5.02807177734375,0.06822773305177689,0.05149600858862977,0.053832201017811894
1772094025419020800,5.038020751953125,0.013123100945353508,0.031533953584881966,0.08097498642206191
1772094025428970000,5.047969970703125,-0.011031681624054908,0.03086890923831379,0.07747983778268099
1772094025438919000,5.0579189453125,0.015141455030441283,0.05956125075567979,0.02953472204208374
1772094025448867800,5.067867919921875,0.030571663874387738,0.05151920223454944,-0.006608166093379259
1772094025458818000,5.077818115234375,0.059223757863044735,0.0346252797968802,-0.017800298976153133
1772094025468767000,5.08776708984375,0.054335985821485515,0.020169934733922125,-0.04379208771437406
1772094025478716000,5.0977158203125,0.011297639083862304,-0.01906867722744355,-0.054733314575999975
1772094025488664800,5.107664794921875,-0.004274608579277992,-0.03720523383708205,-0.015366934349387884
1772094025498613800,5.11761376953125,-0.015272387933731079,-0.06290622750176117,0.010726634262874723
1772094025508562700,5.127562744140625,-0.04622866721153259,-0.08910795092992484,0.0017719781085848807
1772094025518511900,5.137511962890625,-0.027840777605772016,-0.0817035107591655,-0.021403803360834715
1772094025528461800,5.1474619140625,0.015851064604520796,-0.058712219011178235,-0.03531264785639941
1772094025538411000,5.157410888671875,0.03435176693499088,-0.05256449177009053,-0.056475116742029784
1772094025548360000,5.16735986328125,0.08675240077972411,-0.05491372177735902,-0.046407019453123206
1772094025558308900,5.177308837890625,0.12704933985471725,-0.03734764711561147,-0.05845839951373637
1772094025568257800,5.1872578125,0.16124270135760307,-0.07602954307624604,-0.10553170085586606
1772094025578206700,5.197206787109375,0.19396131413280962,-0.08740390522470698,-0.13891718004196882
1772094025588155600,5.20715576171875,0.16554828959703444,-0.08077520779995247,-0.14641433086432515
1772094025598105900,5.21710595703125,0.1907172176450491,-0.08743799015739932,-0.1817710370581597
1772094025608054800,5.2270546875,0.2120353154838085,-0.08117846397175453,-0.20375497839450835
1772094025618004000,5.23700390625,0.20989947249889374,-0.06352537318025715,-0.19412242297865448
1772094025627953000,5.246952880859375,0.11651742444634437,-0.05470471866917796,-0.17865853106081483
1772094025637901800,5.25690185546875,0.0522802223354578,-0.08808717478113248,-0.15207973621487617
1772094025647850800,5.266850830078125,0.01495557706952095,-0.13589551239954306,-0.08243607195056975
1772094025657801000,5.276801025390625,0.0355927069067955,-0.13837003102060408,-0.05979154781363904
1772094025667749400,5.286749267578125,0.05196691860258579,-0.11997253333628177,-0.06958908453285693
1772094025677698300,5.2966982421875,0.05275368506610393,-0.08508189201792701,-0.05159596639834344
1772094025687647200,5.306647216796875,0.04888473467826843,-0.03045255383963231,-0.06309219679422676
1772094025697596400,5.316596435546875,-0.01016366661787033,0.00861572935639415,-0.07749255113378167
1772094025707545600,5.326545654296875,-0.0879161838620901,0.047319544887891966,-0.09313742564171552
1772094025717494500,5.33649462890625,-0.06989829661250115,0.038892488237703214,-0.06256437352783978
1772094025727444500,5.346444580078125,-0.06633446665108203,-0.01840628377897665,-0.027670097213983533
1772094025737393400,5.356393310546875,-0.09588847791552543,-0.01956459153520409,-0.021074206080287695
1772094025747342300,5.36634228515625,-0.11000409702956676,-0.02737629733260255,0.009435060082376002
1772094025757291300,5.376291259765625,-0.059980713710188864,-0.041079061329434625,0.0026838322564959527
1772094025767240200,5.386240234375,0.03609890286326408,-0.06594724829862825,-0.025370003578066826
1772094025777189400,5.396189453125,0.1113005665808916,-0.10497647812590002,0.008705430633574724
1772094025787139300,5.406139404296875,0.16096096180677413,-0.11078242445830255,0.041256577887386084
1772094025797088500,5.416088623046875,0.1795189472824335,-0.04102339018601924,0.003112286801636219
1772094025807037400,5.426037353515625,0.18373451915085315,0.051069175178417935,-0.08357961596250534
1772094025816986400,5.435986328125,0.1606745460808277,0.09913062904137186,-0.1618788073040545
1772094025826935300,5.445935302734375,0.13828618866205214,0.08301433762940577,-0.13496946532949805
1772094025836884500,5.455884521484375,0.1357826814085245,0.010243855714611708,-0.07633651296645402
1772094025846833400,5.46583349609375,0.14394436055421828,-0.07425483872103504,-0.037268531164526934
1772094025856783400,5.475783447265625,0.1475771640986204,-0.07512621929466258,-0.05688040960729122
1772094025866732300,5.485732177734375,0.04573240812718868,-0.03525886727597099,-0.08627002409026026
1772094025876681200,5.49568115234375,-0.06806114431321621,0.0037936612284975124,-0.06904241043552756
1772094025886630400,5.50563037109375,-0.08972060293555259,0.012751714916271157,-0.018692133249342442
1772094025896579600,5.51557958984375,0.045859833899140355,-0.025157045813975855,0.030584084964543578
1772094025906528500,5.525528564453125,0.16586159332990646,-0.039608518419414755,0.012922244611009954
1772094025916478500,5.535478515625,0.1634060168713331,0.008786473680264317,-0.005002265266701579
1772094025926427400,5.545427490234375,0.08342939383685588,0.055523519672197284,0.02322027819827199
1772094025936376300,5.555376220703125,0.03013677958846092,0.06734666220119688,0.03233860048167407
1772094025946325200,5.5653251953125,-0.011966916647553442,0.03841564167330507,0.040983313903957604
1772094025956274400,5.5752744140625,-0.08180734559297562,0.03419149377278518,0.049893473329395054
1772094025966223400,5.585223388671875,-0.11752338661849498,0.05744284296275582,0.04369454562403261
1772094025976172500,5.595172607421875,-0.0791670602172613,0.05403487941648345,0.06606558658182621
1772094025986122500,5.60512255859375,-0.013361585876345634,0.01857976804920472,0.08523008658327162
1772094025996071400,5.615071533203125,0.0245563491076231,-0.02911040481594391,0.08574022806249558
1772094026006020400,5.625020263671875,0.09772913734614848,-0.04016425717261154,0.06620360681302845
1772094026015969500,5.634969482421875,0.13982581931948662,-0.032651783200248606,0.015969649482890962
1772094026025918500,5.64491845703125,0.16915946583151817,0.010516891369177028,-0.01825973318144679
1772094026035867400,5.654867431640625,0.1290297000169754,0.035633755869814196,-0.05452266750000417
1772094026045817300,5.6648173828125,0.07430734522640704,0.02895861863758182,-0.06568316313549875
1772094026055766300,5.674766357421875,0.04504267229735851,-0.022704026638669893,-0.03285750978924334
1772094026065715200,5.684715087890625,0.015204583394527434,-0.0763719587391708,-0.03201075676679611
1772094026075664400,5.694664306640625,0.0066261401414871215,-0.09605465566213242,-0.018830884132906792
1772094026085613600,5.704613525390625,0.006551905861496925,-0.07868154172264039,-0.02830868737846613
1772094026095562500,5.7145625,0.006228665256500244,-0.03717122881949181,-0.043525984124094245
1772094026105511400,5.724511474609375,0.008303133442997932,-0.008407692079304252,-0.05931209373362362
1772094026115461400,5.73446142578125,0.07641922281384468,0.005050804558076197,-0.07719473723098635
1772094026125410300,5.744410400390625,0.12867138809859752,-0.002831928640429396,-0.10463044116720556
1772094026135359200,5.754359130859375,0.12358137148320675,0.0019708867977256887,-0.12223682500645518
1772094026145308400,5.764308349609375,0.06291442907452582,0.009043696419411572,-0.10140314968377351
1772094026155257300,5.77425732421875,-0.012951251509785652,-0.000012544102330866735,-0.07990385005921125
1772094026165206500,5.78420654296875,-0.02519289344549179,0.004231237797132053,-0.07273629651740193
1772094026175155500,5.794155517578125,0.00808627582192421,0.005436996001467923,-0.0653567076601088
1772094026185105400,5.80410546875,0.13792144700288772,0.02120244013641495,-0.07296279874965549
1772094026195054300,5.814054443359375,0.27669863405227657,0.04448205187306739,-0.09810922270491719
1772094026205003500,5.82400341796875,0.3554483456403017,0.07522234117947518,-0.10325739924833179
1772094026214952400,5.833952392578125,0.32276772678792476,0.0921686810742598,-0.09932532049641013
1772094026224901400,5.8439013671875,0.1763473315089941,0.11977852686783298,-0.08758826708197594
1772094026234850300,5.853850341796875,0.057739656785130496,0.10170004113796166,-0.024214111541211603
1772094026244800300,5.86380029296875,-0.004870236384868621,0.040018587924493476,0.026581205998733638
1772094026254749200,5.873749267578125,-0.025679215657711026,0.012101026746974093,0.05133285848274827
1772094026264698600,5.88369873046875,-0.02240998472869396,0.03916011706478893,0.06897519041821361
1772094026274647600,5.8936474609375,0.010830021572113036,0.05249486973313614,0.053011970676109195
1772094026284596500,5.903596435546875,0.02973287496268749,0.04408025700598955,0.014837868973985313
1772094026294545400,5.91354541015625,0.006664718586206436,0.04177806731110904,-0.02166596142835915
1772094026304495400,5.923495361328125,-0.015394553008675574,0.06717696362351998,-0.039324294650554655
1772094026314444300,5.9334443359375,-0.021768179693818092,0.056144049023604016,-0.06362498849667608
1772094026324393500,5.9433935546875,-0.0038648587346076964,0.03676226670939941,-0.0704448976445943
1772094026334342400,5.95334228515625,0.012276128727197647,0.029993765805021392,-0.08973309709094464
1772094026344291300,5.963291259765625,-0.007046411380171776,0.044548344875196925,-0.09495784600190818
1772094026354240500,5.973240478515625,-0.015418518406152725,0.016101513967942446,-0.08738938350901007
1772094026364189400,5.983189453125,0.011369535276293754,-0.015493291542259976,-0.07671535621620715
1772094026374139400,5.993139404296875,0.03830547299683094,0.022275409980036784,-0.10092281882092356
1772094026384088600,6.003088623046875,0.05283318004310131,0.06533124442528933,-0.12532156621403992
1772094026394037500,6.01303759765625,0.07280453944802284,0.07666590018444694,-0.13383527366779743
1772094026403986400,6.022986328125,0.13648586124181747,-0.00974387486979831,-0.07951784641630948
1772094026413935400,6.032935302734375,0.18701076434254646,-0.1066942144297529,-0.030642610218748447
1772094026423884300,6.04288427734375,0.20132512089908122,-0.12218318598992191,-0.023653993440419435
1772094026433834200,6.052834228515625,0.12227730314731597,-0.056612662049196655,-0.05606310187503695
1772094026443783200,6.062783203125,0.041917233753204344,0.030356671700126025,-0.08967968640327453
1772094026453732600,6.072732666015625,-0.011125789648294448,0.08764078272050246,-0.0916189839027822
1772094026463681500,6.082681640625,-0.006122282272577285,0.044300671990751286,-0.04607559554167091
1772094026473630500,6.09263037109375,0.02759352484643459,-0.024732148632523602,-0.021324892905727026
1772094026483579400,6.102579345703125,0.0553127218991518,-0.08774272699132561,-0.004442074100673199
1772094026493528300,6.1125283203125,0.06612462329268455,-0.08808488235934638,-0.025989742911607026
1772094026503478300,6.122478271484375,0.05955459725260734,-0.059283132500620554,-0.08006028272993862
1772094026513427500,6.132427490234375,0.05608721340298652,-0.03258864570300793,-0.12099829618744551
1772094026523376400,6.14237646484375,0.05982815349698067,-0.013718802957824664,-0.11405571050792931
1772094026533325300,6.1523251953125,0.07680208465158939,-0.03768105063830735,-0.05522314391955733
1772094026543274500,6.1622744140625,0.005461772537231445,-0.06106074119897093,-0.006863675224408507
1772094026553223400,6.172223388671875,-0.08702712606787681,-0.05639737989727873,0.022088936080783605
1772094026563173400,6.18217333984375,-0.15947627620697022,-0.004653561426885426,0.03272036634087563
1772094026573122600,6.19212255859375,-0.13985153828263283,0.000726042402361054,0.018206687819957733
1772094026583071500,6.202071533203125,-0.10199731618463992,0.016316049484477842,0.010619447561353445
1772094026593020400,6.2120205078125,-0.015762217277288437,0.04488487878660671,-0.006999868824705481
1772094026602969300,6.22196923828125,0.09939093307852745,0.024298917447566053,0.007877601507306098
1772094026612918300,6.231918212890625,0.17889760051369666,0.0016809662237297742,0.01856974897868931
1772094026622867500,6.241867431640625,0.23503917445242403,0.01684166024418082,0.011665887874364853
1772094026632817400,6.2518173828125,0.24967326448261737,0.04629030230485368,-0.002061389509215951
1772094026642766600,6.2617666015625,0.25002222405076024,0.061224763521109705,-0.01269727674871683
1772094026652715500,6.271715576171875,0.20800152992308138,0.0754672649844084,-0.04150901827849447
1772094026662664400,6.28166455078125,0.11131634867191315,0.07522954267181921,-0.042427229101955885
1772094026672614000,6.29161376953125,0.015104630151391029,0.02741089828852564,-0.008666559927910565
1772094026682562800,6.301562744140625,-0.08978899199664592,-0.0006255799858598039,0.01337634505406022
1772094026692512800,6.3115126953125,-0.15663491530120371,-0.01293947430702392,0.05758315104916691
1772094026702462000,6.3214619140625,-0.10982932498455047,-0.0024414200690574942,0.04668276765458285
1772094026712411000,6.331410888671875,0.017456746235489845,0.010677237596618943,0.004470642608031631
1772094026722359800,6.34135986328125,0.11236673450767994,0.02924136055212002,-0.03432736314609647
1772094026732309000,6.35130908203125,0.16034721382260322,0.06340862406594679,-0.08444646192491054
1772094026742258000,6.3612578125,0.16039222200810907,0.047658421453437766,-0.08852467114925384
1772094026752208000,6.371207763671875,0.13246844229400156,0.013559282139223068,-0.0721751555033028
1772094026762157000,6.381156982421875,0.09093056324720382,0.004641382365324534,-0.05207534741312265
1772094026772106000,6.39110595703125,0.06921674408912658,-0.010711486926092766,-0.036453561519831416
1772094026782055000,6.401054931640625,0.03775251528918743,-0.01138926745664794,-0.02287489882670343
1772094026792003800,6.41100390625,0.027117139506340024,0.010875331151718274,-0.04117043397389352
1772094026801952800,6.420952880859375,0.006413958695530891,0.009149375008791684,-0.0863897780124098
1772094026811901700,6.430901611328125,-0.006495791760087013,0.022536140992166474,-0.06838292361348867
1772094026821852000,6.440851806640625,-0.005704349121451378,0.0266871049254667,0.0024500965658575294
1772094026831800800,6.45080078125,0.08161269980370998,0.01679525011945516,0.01164886367432773
1772094026841750000,6.46075,0.15919512117803095,0.04517534963316284,-0.0013732611145824193
1772094026851699000,6.470698974609375,0.22861352531909943,0.05474979991992004,-0.010552373674511908
1772094026861648000,6.48064794921875,0.20760230147242545,0.021668153385445473,0.0035571810249239205
1772094026871596800,6.4905966796875,0.1708750375777483,0.041662975864345204,0.04526216026693582
1772094026881547000,6.500547119140625,0.11545242556333542,0.04142020748388022,0.053904243340715766
1772094026891496000,6.510495849609375,0.06421148314774036,0.0446218622025568,0.052869347335025664
1772094026901444900,6.52044482421875,0.06727554689347744,0.05987205657078884,0.05115048765316605
1772094026911393800,6.530393798828125,0.09423077383637428,0.06335876617538742,0.02494812490418553
1772094026921343000,6.540343017578125,0.04518821824789047,0.06351952796136029,0.03247128695063293
1772094026931292000,6.5502919921875,0.012632687079906463,0.04944714520084671,0.06402955070957542
1772094026941240800,6.56024072265625,0.03485328671634197,0.017156758641917257,0.05918459489643573
1772094026951191000,6.57019091796875,0.03316284941136837,-0.02158262139330618,0.027179902544245124
1772094026961140000,6.580139892578125,0.08768822032511234,-0.04923784983172081,-0.00805887635834515
1772094026971089000,6.5900888671875,0.14978022710084915,-0.07261932820738293,-0.029138708461821077
1772094026981037800,6.600037841796875,0.12502747863829136,-0.037238464819826185,-0.08148753905408083
1772094026990986800,6.60998681640625,0.044403789871931075,0.0046569041614420706,-0.10806092707253992
1772094027000935700,6.619935791015625,-0.001650105294585228,0.03348603521743789,-0.0929231983691454
1772094027010886000,6.629885986328125,-0.10836451312899589,0.06313003545342945,-0.11528839410804212
1772094027020834800,6.639834716796875,-0.1629401529252529,0.02153153052688576,-0.08598974584415554
1772094027030784000,6.649783935546875,-0.12252806303799152,-0.06226318035786971,0.0107406627882272
1772094027040733000,6.65973291015625,-0.03835983353257179,-0.13358743638657034,0.05925291089229286
1772094027050681900,6.669681884765625,0.10380816499888897,-0.12699379200888797,0.06209134918861091
1772094027060630800,6.679630859375,0.2303612457692623,-0.044520602918323125,0.012480857519060373
1772094027070579700,6.689579833984375,0.316935367372632,0.07342576748575083,-0.08428133449107408
1772094027080530000,6.699530029296875,0.2371545591711998,0.11200726267867721,-0.16050437714569268
1772094027090478800,6.709478759765625,0.1276788699299097,0.11210767257953994,-0.14950301759466528
1772094027100427800,6.719427734375,0.07167115150392055,0.034347657015454024,-0.04201989041008055
1772094027110377000,6.729376953125,0.10592471876144409,-0.06647451444258913,0.05247501425519585
1772094027120326000,6.739325927734375,0.14588906488120554,-0.07467489076401107,0.07858239219710231
1772094027130274800,6.74927490234375,0.13452595934569836,-0.03287939282748848,0.07168086918033659
1772094027140225000,6.75922509765625,0.1313081663429737,0.0362752092782408,0.05481799718476832
1772094027150174000,6.769174072265625,0.18322540058493614,0.046172489178040996,0.0025946926683187484
1772094027160123000,6.779122802734375,0.18510873011350631,0.06449763401220553,-0.036534810062497855
1772094027170071800,6.78907177734375,0.10689093344509601,0.11611368421735241,-0.05738667862899601
1772094027180020700,6.799020751953125,-0.035094109734892846,0.12909976957850158,-0.03661445116996765
1772094027189969700,6.8089697265625,-0.13677753766477108,0.08987025880562141,-0.00020684768371284008
1772094027199918800,6.8189189453125,-0.13340659992694853,0.021945225894311443,0.06054543492086231
1772094027209868800,6.828868896484375,-0.053152328994870185,-0.026804411162203175,0.046536564116925
1772094027219818000,6.83881787109375,0.06621873131692409,-0.04170461391583085,-0.031903789260983466
1772094027229767000,6.848766845703125,0.13193886546194553,-0.026343259923858567,-0.09591763094477355
1772094027239715800,6.8587158203125,0.15475684646964072,-0.010970544287655502,-0.09753368783928454
1772094027249664800,6.868664794921875,0.07942424984872341,-0.01777549332845956,-0.08582154967039823
1772094027259613700,6.87861376953125,-0.06593991437554358,-0.029319846315542235,-0.018544979863613843
1772094027269564000,6.88856396484375,-0.06738719057440758,-0.00834841562313959,0.01294847503080964
1772094027279512800,6.898512939453125,0.029047230786085128,-0.008781235816143453,-0.03538205983079969
1772094027289461800,6.908461669921875,0.09280629399120807,-0.009227481746301055,-0.09342062649726868
1772094027299411000,6.918410888671875,0.12436930699050426,-0.008144874141365289,-0.08186389808580279
1772094027309359900,6.92835986328125,0.09202771083414554,-0.007973654893459753,-0.03895750716477632
1772094027319308800,6.938308837890625,0.025734160715341566,0.0011956303921993822,-0.015826003228500484
1772094027329258000,6.948258056640625,-0.02061784061491489,0.012940227792272344,-0.01915383247695863
1772094027339208000,6.9582080078125,0.009329553881287575,0.022448617972340434,-0.0418163306619972
1772094027349156900,6.968156982421875,0.04854103580713272,0.014395751229673624,-0.06586531476937234
1772094027359105800,6.978105712890625,0.06830839707255364,0.028697641030279917,-0.054995107317343354
1772094027369054700,6.9880546875,0.060919455865025514,0.0419572461031843,-0.03137150901518762
1772094027379003600,6.998003662109375,0.04973170689642429,0.03833742077136412,0.019920506000518798
1772094027388953000,7.007953125,0.09698153384923934,0.024651406979933378,0.02804864820279181
1772094027398902800,7.01790283203125,0.11094283918440341,0.02641394140673801,-0.00041464521549642084
1772094027408852000,7.02785205078125,0.11800503265559673,0.00575162232927978,0.015990326944738627
1772094027418801000,7.03780078125,0.10389292067289352,0.031074142636964095,0.00281856455206871
1772094027428749800,7.047749755859375,0.13242635671794414,0.06080309034320525,-0.0055466012764722105
1772094027438698800,7.05769873046875,0.1921755997598171,0.03619839944867417,0.025696897444874047
1772094027448648000,7.06764794921875,0.1987292591869831,0.021785971078835425,0.05684628814198076
1772094027458596900,7.077596923828125,0.13460896145403384,0.030667351934360338,0.024216595759242773
1772094027468546800,7.087546875,0.027161563169956205,0.05581626924080774,0.016850450905412435
1772094027478495700,7.097495849609375,-0.006880991685390472,0.05723744288403541,0.018663199415802953
1772094027488445000,7.10744482421875,0.0087140523314476,0.013472252309741452,0.030264132295176386
1772094027498393900,7.117393798828125,0.04870177932679653,-0.0019444577318150549,0.04675283721610903
1772094027508342800,7.1273427734375,0.10579495490193366,0.014886028097802772,0.007889511140808462
1772094027518292000,7.1372919921875,0.16957096924185752,0.015436254992242902,-0.021398542663827538
1772094027528242000,7.147241943359375,0.17058803732991218,0.021962350559048355,-0.0839553904723376
1772094027538190800,7.15719091796875,0.11997370238006114,0.00919663908346556,-0.0975274042289704
1772094027548139800,7.167139892578125,0.05190203667283058,-0.02262850458389148,-0.06429375460371374
1772094027558088700,7.177088623046875,-0.010712532672286033,-0.04148934546364471,-0.017691431774199008
1772094027568037600,7.18703759765625,-0.03720131114721298,-0.05524526441982015,0.0016601152319461105
1772094027577987000,7.196987060546875,-0.013529343658685683,-0.04148779282737523,-0.004099836534261703
1772094027587936000,7.20693603515625,0.045834699457883835,-0.02736562524153851,0.0026416005499660966
1772094027597886000,7.216885986328125,0.11273732138574123,-0.02530392520506866,-0.026653175256401297
1772094027607835000,7.2268349609375,0.11573650320172309,-0.015098373940540477,-0.07275317458696663
1772094027617783800,7.23678369140625,0.06955284417569636,0.005455233198590577,-0.07252703768089414
1772094027627732700,7.246732666015625,-0.013700024050474166,-0.006702712509036064,-0.07981492966674268
1772094027637682000,7.256681884765625,-0.09470657465457916,-0.008491093763150274,-0.06622026568688452
1772094027647630800,7.266630859375,-0.14036767111122608,-0.0009200557206757366,-0.006973930665850639
1772094027657580800,7.276580810546875,-0.040944589328765865,-0.05892149611399509,0.03451506773792207
1772094027667529700,7.28652978515625,0.12048165190219878,-0.1332812656473834,0.05427373424023389
1772094027677482200,7.296482177734375,0.1717600037187338,-0.11999731158451177,0.043223128720000385
1772094027687431200,7.30643115234375,0.14868074142634868,-0.01850219103465788,-0.001712868332490325
1772094027697380000,7.316380126953125,0.07526537660360336,0.08833033588724211,-0.0910586466062814
1772094027707329000,7.3263291015625,0.009164718708395957,0.11930728349373675,-0.1251629415862262
1772094027717279000,7.336279052734375,-0.06399462552666664,0.08971668481226079,-0.08992774288021027
1772094027727228000,7.346227783203125,-0.08577683374583721,-0.006556061446806416,-0.002456014849990606
1772094027737177000,7.356177001953125,-0.017983984979987145,-0.08726969351894222,0.09487140982747078
1772094027747126000,7.3661259765625,0.11867255665361881,-0.11324781905799172,0.0750529759619385
1772094027757075000,7.376074951171875,0.21318331647515296,-0.07499260581051931,-0.003247676684334874
1772094027767024000,7.386024169921875,0.25559797835648057,-0.01696652416628785,-0.09280826675258576
1772094027776973000,7.39597314453125,0.18336451679468155,0.02459621532713063,-0.1615325511496514
1772094027786923000,7.405923095703125,0.06356617098152637,0.039984420793410386,-0.1517011852260679
1772094027796872200,7.4158720703125,-0.012716273710131645,0.036887642088159915,-0.12589753947108984
1772094027806821000,7.425821044921875,-0.0390653514534235,-0.018415553930820897,-0.07138882743120194
1772094027816770000,7.43577001953125,0.0019376900643110274,-0.042748962736455724,-0.017028803147003054
1772094027826719000,7.445718994140625,0.03788344819247722,-0.02945613124738447,-0.0026623510770499704
1772094027836668000,7.45566796875,0.05814122332334518,-0.0024116094526834783,-0.03332395825721323
1772094027846617900,7.465617919921875,0.054441784283518785,0.01974663813780062,-0.061470367746055125
1772094027856567000,7.475567138671875,-0.013057049971818923,0.04498294146675616,-0.04541384369730949
1772094027866516200,7.48551611328125,-0.09844225405156612,0.06003275442468002,-0.0005732698433101176
1772094027876465200,7.495465087890625,-0.1532148777246475,0.05865476233605295,0.03309935572110116
1772094027886414000,7.5054140625,-0.1911924339413643,0.021809461552277205,0.12028832128718495
1772094027896363000,7.515363037109375,-0.15552783084213734,0.028860247713467103,0.13226846274249254
1772094027906312000,7.52531201171875,0.003466799327731132,0.08872613940495065,0.0884372851267457
1772094027916262000,7.535261962890625,0.14170155006349086,0.13964432527273893,0.014910203557834028
1772094027926211000,7.545211181640625,0.12583821049928665,0.0896784990931861,0.090779172077775
1772094027936160000,7.555159912109375,0.09893325243890284,0.1568363013585098,0.13929967655353248
1772094027946109200,7.565109130859375,0.19985913999974728,0.0844046503434889,0.013950272484496234
1772094027956058000,7.57505810546875,0.2608347099661827,0.0876072823096998,-0.1397008777655661
1772094027966007000,7.585007080078125,0.2812900534957647,0.13186077699074522,-0.0961745283152908
1772094027975957000,7.59495703125,0.24050796125233173,0.1383892106451094,-0.004122413692250848
1772094027985906200,7.60490625,0.13249006960391999,0.07422450751485303,0.07178264905437827
1772094027995855000,7.614855224609375,0.08594576057195663,0.045744664820563045,0.08442498074546456
1772094028005804000,7.624803955078125,0.07076689614057541,-0.002474902213551104,0.10247611267752944
1772094028015753000,7.6347529296875,0.12079378659129142,-0.026882271304540333,0.10402999105602502
1772094028025702000,7.644701904296875,0.20056115078926084,0.01030124845765531,0.0734969786915928
1772094028035651000,7.654651123046875,0.22311258981525897,0.04173595890216529,0.0019281185183674097
1772094028045601000,7.66460107421875,0.13531564841866492,0.04404392531728372,-0.026465470664575694
1772094028055550200,7.67455029296875,0.04868658175766468,0.044796862576436246,-0.026130904947966337
1772094028065499100,7.6844990234375,0.027156886994838713,0.03967054167180322,-0.02104037687592208
1772094028075448000,7.694447998046875,0.09866320332586764,-0.005749695233674719,0.012263707637041807
1772094028085397000,7.70439697265625,0.1914040308654308,-0.06794061407293192,0.012613690118491649
1772094028095346000,7.714345947265625,0.2311673014551401,-0.047109212905727324,-0.01956029438599944
1772094028105294800,7.724294921875,0.19688450810313224,-0.018413626835215836,-0.061480450748652216
1772094028115245000,7.7342451171875,0.15638064827919004,0.006158294300874695,-0.14687924496233462
1772094028125194000,7.744194091796875,0.09704933838844298,-0.023290987080615014,-0.17631752089262007
1772094028135143200,7.75414306640625,0.04444704449176788,-0.08280174519149586,-0.1277078768286854
1772094028145092000,7.764092041015625,0.036872225323319435,-0.11213325454536825,-0.08062690363675355
1772094028155041000,7.774041015625,0.04101882360875606,-0.10350414055101573,-0.07517068405747414
1772094028164990000,7.783989990234375,-0.03812953190803527,-0.066221471263282,-0.11677892492674291
1772094028174940200,7.793940185546875,-0.14198504317998886,-0.047453007674985566,-0.15129165457710622
1772094028184889000,7.80388916015625,-0.2155044528990984,-0.026456826133816502,-0.16099223372787236
1772094028194838000,7.813838134765625,-0.24119477447271345,-0.06910047446542884,-0.10325586487837135
1772094028204787000,7.823786865234375,-0.2134732393324375,-0.1254375938091427,-0.03591989303454757
1772094028214736000,7.83373583984375,-0.10332944157123565,-0.17532118506534025,0.030733649503067135
1772094028224685000,7.84368505859375,0.07506663916110992,-0.14896414321130141,0.019355784789845346
1772094028234634000,7.853634033203125,0.2484732410430908,-0.07435597014110534,-0.07376651634797453
1772094028244584200,7.863584228515625,0.3031464959949255,-0.04284885661408771,-0.15190291834324599
1772094028254533000,7.873533203125,0.19590368037223815,0.06069150146120227,-0.22286621383875607
1772094028264482000,7.88348193359375,0.019925766697525975,0.09843092893995344,-0.19799663406349718
1772094028274431000,7.893430908203125,0.0564583848029375,-0.08974062281027435,-0.03910429522432387
1772094028284380000,7.9033798828125,0.07692366520464419,-0.12271542056994512,-0.005326455719769
1772094028294328800,7.913328857421875,0.08905541702508926,-0.018767253445321694,0.027419994910433888
1772094028304278000,7.923278076171875,0.1568529419660568,-0.010401717724022454,-0.00312127382569015
1772094028314228000,7.93322802734375,0.14031155700981615,-0.019647712374548428,-0.012607771834358572
1772094028324177200,7.94317724609375,0.09992460156381129,-0.02662457021642476,0.03161591223031282
1772094028334126000,7.9531259765625,0.07490297303199768,0.027469524007430298,-0.02788198639899492
1772094028344075000,7.963074951171875,0.046075522476434705,0.11203292684289626,-0.09940583838671445
1772094028354024000,7.97302392578125,-0.022294249394536017,0.1195656330358237,-0.06471022645011544
1772094028363973000,7.98297314453125,-0.10121814850568771,0.013542687197448685,0.09182933871783315
1772094028373923000,7.992923095703125,-0.10042787491083145,-0.04467863389109261,0.14819054675661025
1772094028383872000,8.0028720703125,-0.12588789485991,-0.03195250550722703,0.06561915798857808
1772094028393821000,8.012821044921875,-0.08000877173840999,-0.027784631538321263,0.005295037668198347
1772094028403769900,8.022769775390625,-0.022875264152884482,0.007703983664693078,-0.07956446203701198
1772094028413719000,8.032718994140625,0.08140110287964343,0.024874153202387967,-0.11543890849463641
1772094028423668000,8.04266796875,0.17040099032521247,-0.031672928230732214,-0.05690444807000458
1772094028433617200,8.0526171875,0.23392390668690202,-0.05359919141295831,-0.02598930452018976
1772094028443567000,8.062567138671875,0.26738193965256213,-0.03796622197194956,-0.05675977890230715
1772094028453516000,8.07251611328125,0.22772563656866548,-0.04467644650058355,-0.05179477690607309
1772094028463465000,8.08246484375,0.10991758778989315,-0.04325181139179039,0.02007153184376657
1772094028473414000,8.092413818359375,0.03618190497159958,0.031128108163771682,-0.002375643090158701
1772094028483362800,8.10236279296875,0.024881927800178526,0.06463711554813198,-0.033176366480067374
1772094028493312000,8.11231201171875,0.0007382511466741561,-0.016717086299729997,-0.0008835779014974832
1772094028503262000,8.122261962890626,-0.03761047646999359,-0.004699216924718348,0.060402884645015
1772094028513211100,8.132211181640624,-0.08055354613959789,0.04399578445977531,0.13306370477341115
1772094028523160000,8.14216015625,-0.008896423161029815,0.05634613833380863,0.09376198728084564
1772094028533109000,8.15210888671875,0.06439911467432975,0.03849999548851046,0.025427286723256108
1772094028543058000,8.162057861328124,0.18542144932448862,0.06684352128491737,0.009399185051396489
1772094028553007000,8.172007080078124,0.20646131474375723,0.008340766606223769,-0.013119009292125701
1772094028562956000,8.1819560546875,0.1171872865319252,-0.029668285293877123,0.1919257166519761
1772094028572906000,8.191906005859375,-0.046504561543464655,0.0014717256535310298,0.3129544810429215
1772094028582855000,8.20185498046875,-0.13174538871645927,-0.16207390975104644,0.2460111617784947
1772094028592803800,8.211803955078125,-0.08297755841612815,-0.1263848480639979,0.0633213293749839
1772094028602753000,8.2217529296875,-0.10250000500977038,0.03476530703878961,-0.15870638781301677
1772094028612702200,8.2317021484375,-0.0794938079535961,0.14464273634823038,-0.30884675346314905
1772094028622651100,8.241651123046875,-0.023032500541210175,0.25166951633375134,-0.31368301451317965
1772094028632600000,8.25160009765625,0.04524550139307976,0.24552856589332223,-0.2521860510211438
1772094028642550000,8.261550048828125,0.15237784237861632,0.11711681511159985,-0.16256488987207413
1772094028652499000,8.2714990234375,0.2910866403669119,0.017132117391005158,-0.02487264851517975
1772094028662447900,8.28144775390625,0.45971009962558745,-0.09859364522099494,0.02430091304183006
1772094028672393700,8.291393798828125,0.43357612593770023,-0.11299607278662734,0.09897541108019649
