time,seconds_elapsed,z,y,x
1772094020464349200,0.08334912109375,0.03923594951629639,0.1259971559047699,0.09488778561353683
1772094020474298000,0.093298095703125,0.045177727937698364,0.10470997542142868,0.08641627430915833
1772094020484247300,0.103247314453125,0.047713495790958405,0.10446551442146301,0.06535187363624573
1772094020494196200,0.1131962890625,0.039164479821920395,0.10290543735027313,0.0518786795437336
1772094020504146400,0.123146484375,0.027718190103769302,0.09065040946006775,0.05509515106678009
1772094020514095400,0.133095458984375,0.025551974773406982,0.05773907154798508,0.07461293041706085
1772094020524044300,0.143044189453125,0.025262657552957535,0.030972983688116074,0.09522194415330887
1772094020533993200,0.1529931640625,0.032494205981492996,0.02108306810259819,0.09968779981136322
1772094020543942100,0.162942138671875,0.03775949776172638,0.02626364305615425,0.0866013616323471
1772094020553891000,0.17289111328125,0.04323256015777588,0.037832148373126984,0.06218203529715538
1772094020563840300,0.18284033203125,0.03936509042978287,0.06310106813907623,0.04653773829340935
1772094020573790200,0.192790283203125,0.02536485344171524,0.07372308522462845,0.04440374672412872
1772094020583739400,0.202739501953125,0.0167575404047966,0.080370232462883,0.03975822776556015
1772094020593688300,0.212688232421875,0.010287921875715256,0.07898592203855515,0.04247651621699333
1772094020603637200,0.22263720703125,-0.0032776398584246635,0.06989268958568573,0.045157983899116516
1772094020613586200,0.232586181640625,-0.019320789724588394,0.06494000554084778,0.04406528174877167
1772094020623535000,0.24253515625,-0.03564441204071045,0.07320158928632736,0.03708520159125328
1772094020633484000,0.252484130859375,-0.05014319717884064,0.09477638453245163,0.028626739978790283
1772094020643434200,0.262434326171875,-0.06133583188056946,0.10521330684423447,0.022689606994390488
1772094020653383200,0.272383056640625,-0.06033182144165039,0.11484383046627045,0.023155659437179565
1772094020663332600,0.28233251953125,-0.05531430244445801,0.12008481472730637,0.030035624280571938
1772094020673281800,0.29228173828125,-0.046269141137599945,0.10928436368703842,0.06103002652525902
1772094020683230700,0.302230712890625,-0.03864594176411629,0.09090222418308258,0.08614084124565125
1772094020693179600,0.3121796875,-0.03608504682779312,0.08712825924158096,0.10117945075035095
1772094020703128600,0.322128662109375,-0.037724368274211884,0.0932781919836998,0.10677815973758698
1772094020713078500,0.33207861328125,-0.04293084889650345,0.09481669962406158,0.09831330180168152
1772094020723027700,0.34202783203125,-0.038820747286081314,0.07315749675035477,0.08579079806804657
1772094020732976600,0.3519765625,-0.029495421797037125,0.06569904834032059,0.06734254956245422
1772094020742925600,0.361925537109375,-0.027513809502124786,0.054853253066539764,0.060414671897888184
1772094020752874500,0.37187451171875,-0.03365319222211838,0.035710982978343964,0.05912703275680542
1772094020762823700,0.38182373046875,-0.029428353533148766,0.012615304440259933,0.041705422103405
1772094020772772600,0.391772705078125,-0.022212518379092216,0.0006483900360763073,0.021882714703679085
1772094020782722800,0.401722900390625,-0.01609567366540432,-0.015089093707501888,-0.003135157749056816
1772094020792671700,0.411671630859375,-0.020226769149303436,-0.012247501872479916,-0.02295253798365593
1772094020802620700,0.42162060546875,-0.03091834858059883,-0.006677146069705486,-0.04790068417787552
1772094020812569600,0.431569580078125,-0.03542707860469818,-0.004189221188426018,-0.05771123617887497
1772094020822518500,0.4415185546875,-0.038336701691150665,-0.0037211389280855656,-0.05833623930811882
1772094020832467500,0.451467529296875,-0.03443969786167145,0.00013671629130840302,-0.05081840232014656
1772094020842416600,0.461416748046875,-0.02568874880671501,0.002013420918956399,-0.03382473811507225
1772094020852365600,0.471365478515625,-0.01724919117987156,0.0023812034633010626,-0.009298888966441154
1772094020862315800,0.481315673828125,-0.007630310487002134,0.019745362922549248,0.01628239080309868
1772094020872264700,0.4912646484375,0.0038345977663993835,0.03876965492963791,0.029090862721204758
1772094020882213600,0.501213623046875,0.014439161866903305,0.052924614399671555,0.048955049365758896
1772094020892162600,0.51116259765625,0.014752082526683807,0.06402254104614258,0.07622635364532471
1772094020902111500,0.521111572265625,0.02613820694386959,0.06664390861988068,0.10173964500427246
1772094020912060400,0.531060302734375,0.03597006946802139,0.07262830436229706,0.11880625039339066
1772094020922009600,0.541009521484375,0.03803657367825508,0.06937786936759949,0.11999151110649109
1772094020931959600,0.55095947265625,0.030459079891443253,0.06909424066543579,0.10051874071359634
1772094020941908500,0.560908447265625,0.025131583213806152,0.06598543375730515,0.07300779223442078
1772094020951857700,0.570857666015625,-0.003520568832755089,0.056183673441410065,0.05611696094274521
1772094020961806600,0.580806640625,-0.0017946718726307154,0.015798714011907578,0.041828446090221405
1772094020971755500,0.590755615234375,-0.008262691088020802,-0.06218290701508522,0.06473270058631897
1772094020981704700,0.60070458984375,-0.026706239208579063,-0.14126114547252655,0.11784079670906067
1772094020991653600,0.610653564453125,-0.043147001415491104,-0.2231091409921646,0.1743088662624359
1772094021001603600,0.620603515625,-0.06748175621032715,-0.2756470739841461,0.23117965459823608
1772094021011552500,0.630552490234375,-0.08771991729736328,-0.33101099729537964,0.26540234684944153
1772094021021501400,0.64050146484375,-0.10010617971420288,-0.35400155186653137,0.3071182072162628
1772094021031450600,0.65045068359375,-0.12049268186092377,-0.38408994674682617,0.3723273277282715
1772094021041399800,0.66039990234375,-0.16471071541309357,-0.4355657398700714,0.434987336397171
1772094021051348700,0.6703486328125,-0.1909702867269516,-0.4508887827396393,0.44469693303108215
1772094021061297700,0.680297607421875,-0.1911429911851883,-0.3908294439315796,0.37357568740844727
1772094021071247600,0.69024755859375,-0.23527662456035614,-0.2725081145763397,0.2736262083053589
1772094021081196500,0.700196533203125,-0.259908527135849,-0.17921887338161469,0.2261611819267273
1772094021091145500,0.7101455078125,-0.25862354040145874,-0.11602739989757538,0.25770923495292664
1772094021101094700,0.7200947265625,-0.2643428444862366,-0.119107186794281,0.2858811616897583
1772094021111043600,0.730043701171875,-0.25227978825569153,-0.11123993992805481,0.32725709676742554
1772094021120992800,0.73999267578125,-0.21053364872932434,-0.10111869871616364,0.37528494000434875
1772094021130941700,0.749941650390625,-0.18886271119117737,-0.07771776616573334,0.3835836350917816
1772094021140891600,0.7598916015625,-0.17933137714862823,-0.03479575365781784,0.3459840714931488
1772094021150840600,0.769840576171875,-0.16993947327136993,0.04253019392490387,0.28328076004981995
1772094021160789500,0.77978955078125,-0.1640859842300415,0.1240779384970665,0.2409162074327469
1772094021170738700,0.78973876953125,-0.1910475641489029,0.11047530919313431,0.2504274249076843
1772094021180687600,0.7996875,-0.23229989409446716,0.04890484735369682,0.2893078029155731
1772094021190636500,0.809636474609375,-0.2582753300666809,0.003986639901995659,0.31548401713371277
1772094021200585700,0.819585693359375,-0.26475033164024353,-0.011844550259411335,0.31894156336784363
1772094021210534700,0.82953466796875,-0.2568593919277191,-0.015922382473945618,0.3115291893482208
1772094021220484600,0.839484619140625,-0.22785435616970062,-0.05097810551524162,0.32726073265075684
1772094021230433800,0.849433837890625,-0.19946372509002686,-0.10056616365909576,0.37637901306152344
1772094021240382700,0.8593828125,-0.1789790838956833,-0.15280549228191376,0.4252392649650574
1772094021250331600,0.86933154296875,-0.18014848232269287,-0.17586767673492432,0.4588978886604309
1772094021260280600,0.879280517578125,-0.16422051191329956,-0.22344531118869781,0.47818723320961
1772094021270229500,0.8892294921875,-0.12769071757793427,-0.2677616477012634,0.4774138629436493
1772094021280178400,0.899178466796875,-0.10045986622571945,-0.2800467908382416,0.4246212840080261
1772094021290128600,0.909128662109375,-0.06273858994245529,-0.25448498129844666,0.3269069790840149
1772094021300077600,0.91907763671875,-0.022808443754911423,-0.16571299731731415,0.19753482937812805
1772094021310026800,0.92902685546875,-0.008734967559576035,-0.07376497983932495,0.05329137295484543
1772094021319975700,0.9389755859375,0.02164107747375965,0.04523465782403946,-0.10282863676548004
1772094021329924600,0.948924560546875,0.017816511914134026,0.11697089672088623,-0.22471247613430023
1772094021339873500,0.95887353515625,0.020196814090013504,0.09781476855278015,-0.25091618299484253
1772094021349822500,0.968822509765625,0.02655990608036518,0.044328104704618454,-0.23493508994579315
1772094021359772700,0.978772705078125,0.03519880771636963,-0.0009429119527339935,-0.23533637821674347
1772094021369721600,0.9887216796875,0.03511065989732742,-0.005880413111299276,-0.21314400434494019
1772094021379670500,0.99867041015625,0.02095838636159897,-0.022529151290655136,-0.17467480897903442
1772094021389619700,1.00861962890625,0.015816621482372284,-0.04981297254562378,-0.12259909510612488
1772094021399568600,1.018568603515625,0.019057022407650948,-0.09653040766716003,-0.06456528604030609
1772094021409517600,1.028517578125,0.02226852811872959,-0.13333182036876678,-0.018372228369116783
1772094021419466500,1.038466552734375,0.030553201213479042,-0.12239866703748703,-0.0058179800398647785
1772094021429416700,1.048416748046875,0.025112096220254898,-0.08236522972583771,-0.02205340936779976
1772094021439365600,1.05836572265625,0.01892436109483242,-0.031218528747558594,-0.0716303288936615
1772094021449314600,1.068314453125,0.004308134783059359,0.03645532578229904,-0.12592606246471405
1772094021459263500,1.078263427734375,0.004413156770169735,0.09623017907142639,-0.17342793941497803
1772094021469212400,1.08821240234375,0.006827578879892826,0.13572858273983002,-0.20320580899715424
1772094021479161600,1.09816162109375,0.008498446084558964,0.15646368265151978,-0.20415683090686798
1772094021489110800,1.10811083984375,0.004377203993499279,0.16929399967193604,-0.20582662522792816
1772094021499059700,1.118059814453125,-0.010005921125411987,0.1767386794090271,-0.2053232640028
1772094021509009700,1.128009765625,-0.008970750495791435,0.20302967727184296,-0.19928374886512756
1772094021518958600,1.13795849609375,-0.00899636372923851,0.21527987718582153,-0.20948144793510437
1772094021528907500,1.147907470703125,0.007644930854439735,0.23174193501472473,-0.21112968027591705
1772094021538856400,1.1578564453125,0.019968660548329353,0.23858800530433655,-0.17019644379615784
1772094021548805600,1.1678056640625,0.017387790605425835,0.20664098858833313,-0.08625733852386475
1772094021558754600,1.177754638671875,0.007468166761100292,0.12749139964580536,-0.0031900377944111824
1772094021568703700,1.187703857421875,0.00023102620616555214,0.08064667135477066,0.04456070438027382
1772094021578653700,1.19765380859375,-0.00593058904632926,0.07685545086860657,0.059106677770614624
1772094021588602600,1.2076025390625,-0.008695483207702637,0.08839971572160721,0.053034935146570206
1772094021598551600,1.217551513671875,-0.011907081119716167,0.101099394261837,0.0318305641412735
1772094021608500700,1.227500732421875,-0.008419672027230263,0.09417331218719482,0.004667120054364204
1772094021618449700,1.23744970703125,0.0067229424603283405,0.113077811896801,-0.02666795812547207
1772094021628398600,1.247398681640625,0.023959986865520477,0.15181748569011688,-0.06351172924041748
1772094021638347500,1.257347412109375,0.022151349112391472,0.1580025553703308,-0.09459748864173889
1772094021648296700,1.267296630859375,0.025488290935754776,0.16810151934623718,-0.11377304792404175
1772094021658246400,1.277246337890625,0.02442718856036663,0.19067421555519104,-0.12179434299468994
1772094021668195600,1.287195556640625,0.020015396177768707,0.20184937119483948,-0.11993998289108276
1772094021678144500,1.29714453125,0.015881814062595367,0.21021737158298492,-0.10233128815889359
1772094021688093400,1.307093505859375,0.021568728610873222,0.20081613957881927,-0.07784778624773026
1772094021698042400,1.31704248046875,0.03438849374651909,0.17496545612812042,-0.05659766495227814
1772094021707991600,1.326991455078125,0.05246496573090553,0.162837952375412,-0.04174468293786049
1772094021717940500,1.3369404296875,0.06302564591169357,0.1683366596698761,-0.04646419361233711
1772094021727890400,1.346890380859375,0.06168261170387268,0.17730379104614258,-0.06454546004533768
1772094021737839400,1.35683935546875,0.0535225085914135,0.16023898124694824,-0.05571349710226059
1772094021747788500,1.36678857421875,0.05631536617875099,0.12492573261260986,-0.03820640966296196
1772094021757737500,1.376737548828125,0.05811033025383949,0.08749095350503922,-0.02457353100180626
1772094021767686400,1.386686279296875,0.06169441342353821,0.05797912925481796,-0.027509134262800217
1772094021777635600,1.396635498046875,0.05373569577932358,0.0347585566341877,-0.04239721596240997
1772094021787584500,1.40658447265625,0.05457992106676102,0.02158815972507,-0.07070847600698471
1772094021797534500,1.416534423828125,0.052693258970975876,0.033202122896909714,-0.0920148491859436
1772094021807483400,1.4264833984375,0.04262251406908035,0.01422017440199852,-0.09450064599514008
1772094021817432300,1.436432373046875,0.027326390147209167,-0.03162981942296028,-0.06945149600505829
1772094021827381200,1.44638134765625,0.02042960375547409,-0.07910945266485214,-0.055057376623153687
1772094021837330700,1.45633056640625,0.010995831340551376,-0.07984546571969986,-0.04789578914642334
1772094021847279600,1.466279541015625,0.014886708930134773,-0.08156932890415192,-0.03325479477643967
1772094021857228500,1.476228515625,0.02420899085700512,-0.07772329449653625,-0.012977181002497673
1772094021867178500,1.486178466796875,0.03353724628686905,-0.07291921973228455,0.008170980028808117
1772094021877127400,1.49612744140625,0.04177974537014961,-0.06031889095902443,0.015065744519233704
1772094021887076400,1.506076416015625,0.04637769237160683,-0.012488780543208122,0.016024747863411903
1772094021897025500,1.516025634765625,0.03583512455224991,0.028243664652109146,0.016044313088059425
1772094021906974500,1.525974365234375,0.03548039123415947,0.04371876269578934,0.019109612330794334
1772094021916923600,1.535923583984375,0.039199355989694595,0.055653929710388184,0.013918261043727398
1772094021926872600,1.54587255859375,0.04122256115078926,0.08167514204978943,-0.006752662360668182
1772094021936821500,1.555821533203125,0.040181081742048264,0.11422417312860489,-0.040133506059646606
1772094021946771500,1.565771484375,0.03154578432440758,0.1526557207107544,-0.07488669455051422
1772094021956720600,1.575720703125,0.02263195998966694,0.17104119062423706,-0.1037873849272728
1772094021966669600,1.585669677734375,0.017089921981096268,0.1575741171836853,-0.11856846511363983
1772094021976618500,1.595618408203125,0.01626327820122242,0.1481265425682068,-0.13233408331871033
1772094021986567400,1.6055673828125,0.01210794784128666,0.14771588146686554,-0.13752564787864685
1772094021996516400,1.615516357421875,0.008091346360743046,0.1205352321267128,-0.13574887812137604
1772094022006465500,1.625465576171875,0.003491001669317484,0.07015195488929749,-0.11381242424249649
1772094022016415500,1.63541552734375,0.0037905853241682053,0.033929597586393356,-0.09882371872663498
1772094022026364700,1.64536474609375,0.005821245722472668,0.017839308828115463,-0.12271013855934143
1772094022036313600,1.655313720703125,0.001739391591399908,0.01374474260956049,-0.15124522149562836
1772094022046262500,1.665262451171875,-0.001386093907058239,0.003788248635828495,-0.1701107770204544
1772094022056211500,1.67521142578125,-0.01291218027472496,0.0075527094304561615,-0.18271149694919586
1772094022066160400,1.685160400390625,-0.03383796662092209,0.025745028629899025,-0.19677644968032837
1772094022076109300,1.695109375,-0.053082194179296494,0.02859228476881981,-0.20229698717594147
1772094022086059500,1.7050595703125,-0.059594687074422836,0.009217523038387299,-0.2072502076625824
1772094022096008400,1.715008544921875,-0.0649079829454422,0.005253983195871115,-0.20210079848766327
1772094022105957600,1.72495751953125,-0.06718792021274567,-0.0007711523212492466,-0.1863202452659607
1772094022115906600,1.734906494140625,-0.06448271125555038,-0.0024238680489361286,-0.17124764621257782
1772094022125855500,1.74485546875,-0.053054556250572205,0.019090212881565094,-0.15661756694316864
1772094022135804400,1.754804443359375,-0.041644833981990814,0.017104320228099823,-0.11213695257902145
1772094022145753300,1.76475341796875,-0.03469957411289215,0.0020816950127482414,-0.0533284991979599
1772094022155702500,1.77470263671875,-0.03350459411740303,-0.016048936173319817,0.007456387858837843
1772094022165652500,1.784652587890625,-0.033644676208496094,-0.032935772091150284,0.05829160660505295
1772094022175601400,1.794601318359375,-0.03136727958917618,-0.018328873440623283,0.08736580610275269
1772094022185550300,1.80455029296875,-0.03042691759765148,0.00955122709274292,0.0882587656378746
1772094022195499500,1.81449951171875,-0.03595034405589104,0.033392634242773056,0.0685635358095169
1772094022205448400,1.824448486328125,-0.024445220828056335,0.04218266159296036,0.03813213109970093
1772094022215397600,1.834397705078125,-0.016724132001399994,0.0450734905898571,-0.010897824540734291
1772094022225346600,1.8443466796875,0.004234679508954287,0.05740898475050926,-0.08157678693532944
1772094022235296500,1.854296630859375,0.02715427428483963,0.09220336377620697,-0.17873726785182953
1772094022245245400,1.864245361328125,0.051851365715265274,0.1677929311990738,-0.2721281945705414
1772094022255194400,1.8741943359375,0.061672624200582504,0.23055236041545868,-0.36441105604171753
1772094022265143300,1.884143310546875,0.05967259034514427,0.23717723786830902,-0.4066160321235657
1772094022275092500,1.894092529296875,0.04908736050128937,0.20019127428531647,-0.3872157633304596
1772094022285041700,1.904041748046875,0.05796314403414726,0.1321600377559662,-0.32716360688209534
1772094022294990600,1.913990478515625,0.08112999051809311,0.09316367655992508,-0.24121889472007751
1772094022304940500,1.9239404296875,0.10280146449804306,0.04267627373337746,-0.1296369731426239
1772094022314889500,1.933889404296875,0.11261388659477234,-0.01906500943005085,-0.007190581876784563
1772094022324838400,1.94383837890625,0.11039680242538452,-0.05190365016460419,0.08959827572107315
1772094022334787300,1.953787353515625,0.0945391058921814,-0.06910428404808044,0.13719110190868378
1772094022344736500,1.963736572265625,0.07455021888017654,-0.05932994559407234,0.13767153024673462
1772094022354685400,1.973685546875,0.060817744582891464,-0.016575992107391357,0.10942602157592773
1772094022364634600,1.983634521484375,0.0453794002532959,0.03642517328262329,0.07185493409633636
1772094022374583600,1.99358349609375,0.035751163959503174,0.09699980169534683,0.0302093755453825
1772094022384533500,2.003533447265625,0.021611377596855164,0.13569766283035278,0.015910597518086433
1772094022394482400,2.013482421875,0.013525357469916344,0.13507021963596344,0.03879215195775032
1772094022404431600,2.023431640625,0.016785599291324615,0.11100509017705917,0.07478263974189758
1772094022414380500,2.033380615234375,0.030766654759645462,0.09888526052236557,0.1001785546541214
1772094022424329500,2.04332958984375,0.038906075060367584,0.0825427696108818,0.10297220945358276
1772094022434278400,2.0532783203125,0.03145873546600342,0.09212633967399597,0.08901908993721008
1772094022444227600,2.0632275390625,0.019512323662638664,0.10639742016792297,0.06553986668586731
1772094022454177300,2.07317724609375,0.002570823300629854,0.1086789220571518,0.051359836012125015
1772094022464126500,2.08312646484375,-0.004247401840984821,0.08401911705732346,0.05351406708359718
1772094022474075600,2.09307568359375,-0.007905688136816025,0.07498938590288162,0.0574740432202816
1772094022484024600,2.103024658203125,-0.006188215222209692,0.06990142166614532,0.0385885015130043
1772094022493973500,2.112973388671875,-0.01123407855629921,0.05808093398809433,0.01428192388266325
1772094022503922400,2.12292236328125,-0.011410113424062729,0.05109066888689995,-0.01728745363652706
1772094022513871400,2.132871337890625,-0.012797953560948372,0.051383908838033676,-0.04860386997461319
1772094022523821600,2.142821533203125,-0.007330750115215778,0.040249764919281006,-0.06036864593625069
1772094022533770500,2.1527705078125,-0.010560179129242897,0.008966541849076748,-0.045049622654914856
1772094022543719400,2.162719482421875,-0.0036484773736447096,-0.01472813542932272,-0.015631813555955887
1772094022553668600,2.172668701171875,0.0037510739639401436,-0.030353715643286705,0.013048475608229637
1772094022563617500,2.182617431640625,0.013575209304690361,-0.03735489770770073,0.02679198607802391
1772094022573566500,2.19256640625,0.017397886142134666,-0.037598539143800735,0.03426806628704071
1772094022583515400,2.202515380859375,0.023119688034057617,-0.03755858913064003,0.02956785447895527
1772094022593464300,2.21246435546875,0.034457579255104065,-0.02897244319319725,0.019652480259537697
1772094022603414500,2.22241455078125,0.0432920828461647,-0.02811810001730919,-0.004800132010132074
1772094022613363500,2.232363525390625,0.04220680519938469,-0.020693548023700714,-0.025992967188358307
1772094022623312400,2.2423125,0.038690898567438126,0.0022605047561228275,-0.034643981605768204
1772094022633261600,2.252261474609375,0.028700923547148705,0.008856438100337982,-0.026231568306684494
1772094022643210500,2.26221044921875,0.01994045451283455,0.006217245478183031,-0.014621253125369549
1772094022653159400,2.272159423828125,0.016883201897144318,0.015814663842320442,-0.0045443433336913586
1772094022663108600,2.282108642578125,0.01063702441751957,0.019247477874159813,0.000588633120059967
1772094022673059000,2.29205908203125,-0.0018860672134906054,0.023710304871201515,0.0003612414002418518
1772094022683008000,2.302008056640625,-0.007632902357727289,0.028332488611340523,-0.0035336315631866455
1772094022692957000,2.31195703125,-0.011031095869839191,0.02518329955637455,0.0024787206202745438
1772094022702905900,2.32190576171875,-0.008898703381419182,0.017628444358706474,0.009030895307660103
1772094022712854800,2.331854736328125,-0.01281442679464817,0.016869626939296722,0.004226799122989178
1772094022722803700,2.3418037109375,-0.018800146877765656,0.017654193565249443,0.0014230231754481792
1772094022732753000,2.3517529296875,-0.026605557650327682,0.01663486286997795,-0.01414322666823864
1772094022742702000,2.3617021484375,-0.024704325944185257,0.027502423152327538,-0.022952964529395103
1772094022752652000,2.371652099609375,-0.02711840346455574,0.03892320767045021,-0.02527681738138199
1772094022762601000,2.38160107421875,-0.02765529789030552,0.040641479194164276,-0.017927292734384537
1772094022772550000,2.3915498046875,-0.028352925553917885,0.03862482309341431,-0.025296304374933243
1772094022782498800,2.401498779296875,-0.020403657108545303,0.04893897846341133,-0.02966122515499592
1772094022792447700,2.41144775390625,-0.01803586259484291,0.04684503376483917,-0.015501831658184528
1772094022802397000,2.42139697265625,-0.020036693662405014,0.021482151001691818,0.00559493200853467
1772094022812345900,2.431345947265625,-0.01874886080622673,0.005811601877212524,0.02239225059747696
1772094022822295800,2.4412958984375,-0.021161150187253952,0.007384464610368013,0.026881009340286255
1772094022832245000,2.451244873046875,-0.02127831056714058,0.005249259062111378,0.025755401700735092
1772094022842194000,2.46119384765625,-0.024494076147675514,0.009289273992180824,0.011938122101128101
1772094022852142800,2.471142822265625,-0.021541353315114975,0.0249333493411541,-0.008724004030227661
1772094022862092000,2.481092041015625,-0.0194020364433527,0.03565976396203041,-0.022750340402126312
1772094022872041000,2.491041015625,-0.029009662568569183,0.029653962701559067,-0.02539271116256714
1772094022881990000,2.500989990234375,-0.03219000995159149,0.007917774841189384,-0.02172500640153885
1772094022891938800,2.510938720703125,-0.027961483225226402,0.0037091663107275963,-0.0387384369969368
1772094022901888800,2.520888671875,-0.023280976340174675,0.0010643810965120792,-0.06280168890953064
1772094022911837700,2.530837646484375,-0.01062135212123394,0.00109597179107368,-0.08322761952877045
1772094022921787000,2.540786865234375,-0.0005495434161275625,-0.006751298438757658,-0.08472751080989838
1772094022931736000,2.550736083984375,0.01504756510257721,-0.0346047505736351,-0.06651128828525543
1772094022941685000,2.56068505859375,0.04018141329288483,-0.0697089433670044,-0.020778950303792953
1772094022951634000,2.570634033203125,0.058118537068367004,-0.09626009315252304,0.027089735493063927
1772094022961582800,2.580582763671875,0.0732136070728302,-0.11613153666257858,0.06839536875486374
1772094022971532800,2.59053271484375,0.08237966895103455,-0.11565989255905151,0.09969682991504669
1772094022981481700,2.600481689453125,0.07940678298473358,-0.08615846186876297,0.10173867642879486
1772094022991431000,2.610430908203125,0.06498760730028152,-0.04122257977724075,0.08681155741214752
1772094023001379800,2.6203798828125,0.03909475356340408,-0.012157374992966652,0.07556129992008209
1772094023011329000,2.6303291015625,0.024360576644539833,0.04407336190342903,0.030611224472522736
1772094023021278000,2.64027783203125,0.01634179800748825,0.11314324289560318,-0.02864224649965763
1772094023031227000,2.650226806640625,0.03555683419108391,0.15373480319976807,-0.056117232888936996
1772094023041175800,2.66017578125,0.05941370129585266,0.16200578212738037,-0.03295145928859711
1772094023051126000,2.6701259765625,0.0651649609208107,0.148672953248024,0.014882784336805344
1772094023061075000,2.680074951171875,0.04922248050570488,0.11662846058607101,0.053697824478149414
1772094023071023900,2.69002392578125,0.020548254251480103,0.08253516256809235,0.06824862957000732
1772094023080972800,2.699972900390625,0.006275575142353773,0.05826417729258537,0.07271688431501389
1772094023090922000,2.709921875,0.004356362856924534,0.05548276752233505,0.061617832630872726
1772094023100871000,2.719870849609375,-0.005298661533743143,0.05672086775302887,0.03882170468568802
1772094023110819800,2.72981982421875,-0.011254388839006424,0.055685125291347504,0.008294844999909401
1772094023120770000,2.73977001953125,-0.026136666536331177,0.050464801490306854,-0.0231323204934597
1772094023130719000,2.749718994140625,-0.042481523007154465,0.04882850870490074,-0.051322855055332184
1772094023140668000,2.75966796875,-0.06178624555468559,0.051249321550130844,-0.0795169398188591
1772094023150616800,2.769616943359375,-0.0801449567079544,0.05788077786564827,-0.10652082413434982
1772094023160565800,2.779565673828125,-0.08925642818212509,0.07014916092157364,-0.11905232816934586
1772094023170515000,2.789514892578125,-0.08861751854419708,0.06477661430835724,-0.11289004981517792
1772094023180463900,2.7994638671875,-0.08655942976474762,0.03811357542872429,-0.06444981694221497
1772094023190413800,2.809413818359375,-0.07414181530475616,0.009909886866807938,-0.012155329808592796
1772094023200363000,2.819363037109375,-0.06409263610839844,0.009594835340976715,0.02242874540388584
1772094023210312000,2.82931201171875,-0.05141342431306839,0.020248081535100937,0.037356432527303696
1772094023220260900,2.8392607421875,-0.039471812546253204,0.028009597212076187,0.0495997853577137
1772094023230209800,2.849209716796875,-0.0302473995834589,0.029079770669341087,0.04273000359535217
1772094023240158700,2.85915869140625,-0.024314677342772484,0.02802462689578533,0.03836588189005852
1772094023250108000,2.86910791015625,-0.024549176916480064,0.031202036887407303,0.03718523681163788
1772094023260057900,2.879057861328125,-0.020522743463516235,0.020498527213931084,0.03485151007771492
1772094023270006800,2.8890068359375,-0.012025442905724049,0.006436645518988371,0.02680244669318199
1772094023279956000,2.8989560546875,0.0022821230813860893,0.005509066395461559,0.009898030199110508
1772094023289905000,2.90890478515625,0.015183685347437859,0.0049163056537508965,-0.00836720410734415
1772094023299853800,2.918853759765625,0.0256672203540802,-0.0007684780284762383,-0.00757944118231535
1772094023309803000,2.928802978515625,0.03609968721866608,-0.000709114596247673,-0.007641458418220282
1772094023319752000,2.938751953125,0.04845835268497467,-0.006331580225378275,-0.013416523113846779
1772094023329700900,2.948700927734375,0.05923895537853241,-0.005849072709679604,-0.023341644555330276
1772094023339650800,2.95865087890625,0.061727941036224365,0.007980722934007645,-0.03666490688920021
1772094023349599700,2.968599853515625,0.059480443596839905,0.010517468675971031,-0.04800882935523987
1772094023359549000,2.978548828125,0.06534925103187561,0.010550491511821747,-0.045995477586984634
1772094023369498000,2.988498046875,0.06603218615055084,0.016829146072268486,-0.04627871885895729
1772094023379447000,2.998447021484375,0.05699874460697174,0.03139876946806908,-0.04117530211806297
1772094023389396000,3.00839599609375,0.04675539582967758,0.050877172499895096,-0.03669649362564087
1772094023399345000,3.018344970703125,0.03200548142194748,0.06192689388990402,-0.02617860585451126
1772094023409294800,3.028294921875,0.02373293787240982,0.07095028460025787,-0.01383119821548462
1772094023419243800,3.038243896484375,0.01826626807451248,0.05822756141424179,0.009283177554607391
1772094023429192700,3.048192626953125,0.019945334643125534,0.03918226435780525,0.029505062848329544
1772094023439142000,3.058141845703125,0.017064061015844345,0.031064148992300034,0.03590996563434601
1772094023449091000,3.068091064453125,0.014057093299925327,0.03135209158062935,0.018709935247898102
1772094023459040000,3.0780400390625,0.00007736170664429665,0.03228313475847244,0.0009144265204668045
1772094023468989000,3.087989013671875,-0.015569241717457771,0.039818815886974335,-0.01388475950807333
1772094023478937900,3.097937744140625,-0.029599573463201523,0.03899163752794266,-0.017004385590553284
1772094023488887800,3.1078876953125,-0.030968593433499336,0.027171293273568153,-0.016448093578219414
1772094023498837000,3.1178369140625,-0.023258741945028305,0.02017410472035408,-0.018396463245153427
1772094023508786000,3.127785888671875,-0.020743688568472862,0.016319427639245987,-0.020045433193445206
1772094023518734800,3.13773486328125,-0.020941028371453285,0.017029162496328354,-0.024328861385583878
1772094023528683800,3.147683837890625,-0.021494515240192413,0.014428180642426014,-0.02629055827856064
1772094023538633000,3.157633056640625,-0.019344013184309006,0.0060501424595713615,-0.020830277353525162
1772094023548582000,3.167581787109375,-0.01152535155415535,-0.004652669653296471,-0.020409991964697838
1772094023558532000,3.177531982421875,-0.012033216655254364,-0.001765536144375801,-0.027811981737613678
1772094023568481000,3.18748095703125,-0.019270548596978188,0.013857714831829071,-0.036906659603118896
1772094023578430000,3.197429931640625,-0.020211976021528244,0.021998465061187744,-0.030513472855091095
1772094023588379000,3.20737890625,-0.024671658873558044,0.0213047843426466,-0.017184682190418243
1772094023598327800,3.217327880859375,-0.027348138391971588,0.020860567688941956,-0.008682007901370525
1772094023608276700,3.22727685546875,-0.02746030129492283,0.01896698772907257,-0.002260796260088682
1772094023618226000,3.237225830078125,-0.02403973788022995,0.023865340277552605,-0.003992915619164705
1772094023628174800,3.2471748046875,-0.021981026977300644,0.04663711041212082,-0.004888135939836502
1772094023638125000,3.257125,-0.012719085440039635,0.05700159817934036,0.006898482330143452
1772094023648074000,3.267073974609375,-0.004739840514957905,0.06136929616332054,0.029224075376987457
1772094023658023000,3.27702294921875,0.011254305019974709,0.05232120677828789,0.04548214003443718
1772094023667972000,3.28697216796875,0.02638532593846321,0.042866241186857224,0.05654197186231613
1772094023677921000,3.296921142578125,0.03505364805459976,0.03254356235265732,0.061269085854291916
1772094023687870000,3.306869873046875,0.038914792239665985,0.027372965589165688,0.050926029682159424
1772094023697819000,3.31681884765625,0.03798854723572731,0.036382440477609634,0.02309706062078476
1772094023707769000,3.32676904296875,0.0310075543820858,0.027933700010180473,-0.0006185825914144516
1772094023717718000,3.336718017578125,0.02804585173726082,0.02340712584555149,-0.012616390362381935
1772094023727667200,3.346667236328125,0.022310271859169006,0.0058670430444180965,-0.013618777506053448
1772094023737616100,3.3566162109375,0.019880935549736023,-0.010501010343432426,-0.01092126127332449
1772094023747565000,3.36656494140625,0.016245972365140915,-0.02320919744670391,-0.013227133080363274
1772094023757514000,3.376513916015625,0.012590251863002777,-0.022823572158813477,-0.024828927591443062
1772094023767463200,3.386463134765625,0.006948211695998907,-0.017688196152448654,-0.03333687037229538
1772094023777413000,3.3964130859375,0.006052057724446058,-0.00595936831086874,-0.03904535621404648
1772094023787362000,3.406362060546875,0.002683265134692192,-0.008010760881006718,-0.028156373649835587
1772094023797311000,3.41631103515625,0.00597812794148922,-0.007478128187358379,-0.00895391684025526
1772094023807260200,3.42626025390625,0.005640845745801926,-0.005930241663008928,0.009277070872485638
1772094023817209000,3.436208984375,0.002885539550334215,-0.009726045653223991,0.018374962732195854
1772094023827158300,3.446158203125,-0.0064027882181108,-0.00380121311172843,0.02051045186817646
1772094023837107200,3.456107177734375,-0.0037734494544565678,-0.00012285495176911354,0.01678602024912834
1772094023847056100,3.46605615234375,0.0062405108474195,0.0014381075743585825,0.02063649706542492
1772094023857006000,3.476006103515625,0.012845417484641075,0.0002918830141425133,0.023437876254320145
1772094023866955000,3.485955078125,0.01572277396917343,0.0015532406978309155,0.024838188663125038
1772094023876904000,3.495904052734375,0.012666530907154083,0.016592910513281822,0.024594241753220558
1772094023886853000,3.50585302734375,0.0036547589115798473,0.02797364816069603,0.02286517061293125
1772094023896802300,3.51580224609375,0.0030424981378018856,0.022033734247088432,0.02845434658229351
1772094023906751200,3.525751220703125,0.0016763722524046898,0.010199794545769691,0.028095373883843422
1772094023916700200,3.5357001953125,0.002698227297514677,-0.0008248933590948582,0.03213592246174812
1772094023926650000,3.545650146484375,-0.0027568452060222626,-0.0040852902457118034,0.03397248312830925
1772094023936599000,3.55559912109375,-0.02048684097826481,0.0016271902713924646,0.03301933780312538
1772094023946548200,3.56554833984375,-0.03299883380532265,0.005086132790893316,0.03135675564408302
1772094023956497200,3.5754970703125,-0.038511041551828384,0.0068504768423736095,0.026566792279481888
1772094023966446000,3.585446044921875,-0.03391558676958084,0.0021578404121100903,0.02093806117773056
1772094023976395000,3.59539501953125,-0.029012175276875496,0.004101149272173643,0.01643332466483116
1772094023986344200,3.60534423828125,-0.015052078291773796,0.004412450827658176,0.009865742176771164
1772094023996294100,3.615294189453125,-0.0064868200570344925,0.009552618488669395,0.005529583431780338
1772094024006243000,3.6252431640625,-0.000028925947844982147,0.005757292732596397,0.0002466784790158272
1772094024016192300,3.635192138671875,0.0017516636289656162,0.005008412059396505,-0.005479651037603617
1772094024026141200,3.64514111328125,0.007065474055707455,-0.0043903617188334465,-0.007927902042865753
1772094024036090000,3.655090087890625,0.017577502876520157,-0.007718248292803764,-0.012447819113731384
1772094024046039000,3.6650390625,0.030269108712673187,-0.0009239194914698601,-0.011065971106290817
1772094024055988000,3.674988037109375,0.03937898203730583,-0.006425211206078529,-0.003751864656805992
1772094024065937200,3.684937255859375,0.04909978806972504,-0.010601048357784748,0.0018809870816767216
1772094024075887000,3.69488720703125,0.04924333095550537,-0.010266820900142193,0.005850428715348244
1772094024085836300,3.704836181640625,0.052170705050230026,-0.016920238733291626,0.007018584292382002
1772094024095785200,3.71478515625,0.05151503533124924,-0.016733285039663315,0.006157584488391876
1772094024105734100,3.724734130859375,0.05088614672422409,-0.027155667543411255,-0.003766383044421673
1772094024115683000,3.73468310546875,0.04298321157693863,-0.01948762871325016,-0.019402865320444107
1772094024125632000,3.744632080078125,0.03402120620012283,-0.006621977314352989,-0.03116866946220398
1772094024135581000,3.754580810546875,0.019994869828224182,0.003911357838660479,-0.030174776911735535
1772094024145531100,3.76453125,0.009560149163007736,0.0013790414668619633,-0.020508280023932457
1772094024155480000,3.77447998046875,-0.0012845085002481937,0.0005390807054936886,-0.004140758886933327
1772094024165429000,3.784428955078125,-0.003726719645783305,0.009201080538332462,0.013464737683534622
1772094024175378200,3.794378173828125,-0.011054141446948051,0.007114760112017393,0.033111412078142166
1772094024185327000,3.8043271484375,-0.019941233098506927,0.003111553844064474,0.047429416328668594
1772094024195276000,3.814276123046875,-0.02103312872350216,0.006013067904859781,0.04668080061674118
1772094024205225000,3.824224853515625,-0.0195840522646904,0.004522409755736589,0.04462742432951927
1772094024215175200,3.834175048828125,-0.020092448219656944,0.00020622462034225464,0.038321323692798615
1772094024225124000,3.8441240234375,-0.021445484831929207,-0.005907492712140083,0.03459233045578003
1772094024235073000,3.854072998046875,-0.024918779730796814,-0.011213840916752815,0.03689223527908325
1772094024245022000,3.86402197265625,-0.02657763659954071,-0.014347093179821968,0.03550641983747482
1772094024254971100,3.87397119140625,-0.02548174560070038,-0.022517671808600426,0.024249237030744553
1772094024264920000,3.883920166015625,-0.026223940774798393,-0.023474588990211487,0.0023163328878581524
1772094024274869200,3.893869140625,-0.017090898007154465,-0.020924080163240433,-0.0245744027197361
1772094024284819200,3.903819091796875,-0.010976545512676239,-0.012898110784590244,-0.035981256514787674
1772094024294768000,3.91376806640625,-0.009695565328001976,-0.027619797736406326,-0.03486698865890503
1772094024304717000,3.923717041015625,-0.013552452437579632,-0.03499247878789902,-0.034227680414915085
1772094024314666000,3.933666015625,-0.010968919843435287,-0.039802949875593185,-0.03240261599421501
1772094024324615000,3.943614990234375,-0.010009745135903358,-0.04615877941250801,-0.03184055536985397
1772094024334564000,3.953564208984375,-0.011681944131851196,-0.05317967012524605,-0.03020031377673149
1772094024344513300,3.96351318359375,-0.01140778698027134,-0.05654554069042206,-0.021522440016269684
1772094024354462200,3.973462158203125,-0.012318854220211506,-0.05011613667011261,-0.026947032660245895
1772094024364412200,3.983412109375,-0.013791603967547417,-0.03392321988940239,-0.033088646829128265
1772094024374361000,3.993361083984375,-0.015967674553394318,-0.017460890114307404,-0.027241414412856102
1772094024384310000,4.00331005859375,-0.019427727907896042,-0.0032692542299628258,-0.020200831815600395
1772094024394259200,4.01325927734375,-0.024550851434469223,0.015487655997276306,-0.012547174468636513
1772094024404208000,4.0232080078125,-0.021230006590485573,0.02162747085094452,0.004834516439586878
1772094024414157000,4.033156982421875,-0.0166483037173748,0.017557628452777863,0.023348545655608177
1772094024424106200,4.043106201171875,-0.01356743834912777,0.010567519813776016,0.03271297365427017
1772094024434056000,4.053055908203125,-0.010827312245965004,0.014252003282308578,0.023964490741491318
1772094024444005000,4.063005126953125,-0.012586523778736591,0.023705720901489258,0.007073417771607637
1772094024453954300,4.072954345703125,-0.01736476644873619,0.03070664033293724,-0.00160688953474164
1772094024463903200,4.0829033203125,-0.022779028862714767,0.04252982884645462,-0.005699021276086569
1772094024473852200,4.09285205078125,-0.02568879909813404,0.032141901552677155,0.0064548468217253685
1772094024483801000,4.102801025390625,-0.0276630911976099,0.01971273124217987,0.013531805016100407
1772094024493750000,4.11275,-0.027859898284077644,0.017016548663377762,0.017090586945414543
1772094024503700000,4.122699951171875,-0.025522174313664436,0.01689888909459114,0.021339384838938713
1772094024513649200,4.132649169921875,-0.02253597229719162,0.006493652239441872,0.024355148896574974
1772094024523598000,4.14259814453125,-0.01562787964940071,0.0009932611137628555,0.026865405961871147
1772094024533547300,4.15254736328125,-0.006152619607746601,-0.017024356871843338,0.022628583014011383
1772094024543496200,4.16249609375,0.0067933714017271996,-0.03759079426527023,0.015841614454984665
1772094024553445000,4.172445068359375,0.004429548978805542,-0.04115783050656319,-0.005169660784304142
1772094024563394000,4.18239404296875,-0.009972678497433662,-0.0315762497484684,-0.02555903047323227
1772094024573344000,4.192343994140625,-0.019129158928990364,-0.02478731982409954,-0.04283655434846878
1772094024583293200,4.202293212890625,-0.01921859383583069,-0.027458664029836655,-0.04881275072693825
1772094024593242000,4.2122421875,-0.0033384307753294706,-0.030412644147872925,-0.04892833158373833
1772094024603191000,4.22219091796875,0.01224822923541069,-0.032024554908275604,-0.03794289380311966
1772094024613140200,4.23214013671875,0.0217482578009367,-0.034498631954193115,-0.026411138474941254
1772094024623089200,4.242089111328125,0.022935587912797928,-0.03591790050268173,-0.010389434173703194
1772094024633038000,4.2520380859375,0.019619420170783997,-0.034186579287052155,-0.00811376329511404
1772094024642988300,4.26198828125,0.014181803911924362,-0.03443504124879837,-0.005887279752641916
1772094024652937200,4.271937255859375,0.007986493408679962,-0.032183606177568436,-0.007901428267359734
1772094024662886100,4.28188623046875,0.0019343565218150616,-0.018380267545580864,-0.01999041624367237
1772094024672834800,4.291834716796875,-0.0035605435259640217,-0.005124649498611689,-0.022309763357043266
1772094024682783700,4.30178369140625,-0.009254909120500088,0.008620829321444035,-0.012590307742357254
1772094024692733000,4.31173291015625,-0.010353995487093925,0.012041127309203148,0.006067265756428242
1772094024702681900,4.321681884765625,-0.008642240427434444,0.004025816917419434,0.019450247287750244
1772094024712632000,4.331632080078125,-0.006046723574399948,-0.002186272293329239,0.02183697372674942
1772094024722581000,4.3415810546875,-0.00701054185628891,-0.009240303188562393,0.021449372172355652
1772094024732530000,4.351530029296875,-0.004532736726105213,-0.006856773979961872,0.013266011141240597
1772094024742478800,4.361478759765625,-0.007588303182274103,-0.004556010477244854,-0.005178188439458609
1772094024752427800,4.371427734375,-0.010193940252065659,0.0043613179586827755,-0.010822225362062454
1772094024762376700,4.381376708984375,-0.016139615327119827,0.00888068787753582,-0.008684120140969753
1772094024772325600,4.39132568359375,-0.017376653850078583,0.013991559855639935,-0.0052675511687994
1772094024782275800,4.40127587890625,-0.0183169674128294,0.01576700061559677,-0.004661499988287687
1772094024792224800,4.411224853515625,-0.011797016486525536,0.010751735419034958,0.001150316558778286
1772094024802174000,4.421174072265625,-0.007073731627315283,-0.0022482038475573063,0.006704486440867186
1772094024812123000,4.431122802734375,-0.002773791551589966,-0.009411041624844074,0.009236353449523449
1772094024822071800,4.44107177734375,-0.006445636972784996,-0.0022001112811267376,0.003498794510960579
1772094024832020700,4.451020751953125,-0.010757029056549072,0.005047947634011507,-0.009706489741802216
1772094024841970000,4.460969970703125,-0.017604436725378036,0.013614318333566189,-0.017764445394277573
1772094024851920000,4.470919921875,-0.02033311128616333,0.020464502274990082,-0.01764513924717903
1772094024861868800,4.480868896484375,-0.017171494662761688,0.016814015805721283,-0.012015893124043941
1772094024871817700,4.490817626953125,-0.014039617031812668,0.013792391866445541,-0.0017917514778673649
1772094024881767000,4.500766845703125,-0.011417226865887642,0.013824128545820713,0.008496216498315334
1772094024891715800,4.5107158203125,-0.013065457344055176,-0.0002738470211625099,0.010628608986735344
1772094024901665000,4.5206650390625,-0.012382651679217815,0.005900304764509201,0.000003545079380273819
1772094024911614000,4.530614013671875,-0.011125106364488602,0.0049913679249584675,-0.005983506795018911
1772094024921564000,4.54056396484375,-0.008703658357262611,-0.002454946283251047,-0.007833993062376976
1772094024931512800,4.550512939453125,-0.008988616988062859,-0.002024047076702118,-0.013826105743646622
1772094024941461800,4.560461669921875,-0.0071681286208331585,0.002709063468500972,-0.0172567181289196
1772094024951410700,4.57041064453125,-0.007373990956693888,0.0029279752634465694,-0.013583418913185596
1772094024961360000,4.58035986328125,-0.00567640271037817,0.003851111978292465,-0.008405342698097229
1772094024971309000,4.59030908203125,-0.0012875129468739033,-0.006587148178368807,0.011590735986828804
1772094024981258000,4.600258056640625,0.006854445673525333,-0.021518848836421967,0.022854087874293327
1772094024991208000,4.6102080078125,0.009896574541926384,-0.02142750285565853,0.016995932906866074
1772094025001156900,4.620156982421875,0.010604768060147762,-0.021549714729189873,-0.002070748247206211
1772094025011105800,4.630105712890625,0.0006229737773537636,-0.010838214308023453,-0.020068392157554626
1772094025021054700,4.6400546875,-0.015008257701992989,0.00019789393991231918,-0.028659243136644363
1772094025031004000,4.65000390625,-0.023403605446219444,0.005883743055164814,-0.030914943665266037
1772094025040952800,4.659952880859375,-0.033886849880218506,0.01276237703859806,-0.026401326060295105
1772094025050902000,4.669902099609375,-0.04437917098402977,0.013860931620001793,-0.015359860844910145
1772094025060851700,4.679851806640625,-0.047954730689525604,0.007756432984024286,0.00009153364226222038
1772094025070801000,4.68980078125,-0.04641436040401459,0.004661307204514742,0.019500650465488434
1772094025080749800,4.699749755859375,-0.04041825234889984,-0.005467227194458246,0.03554646298289299
1772094025090699000,4.709698974609375,-0.04214904084801674,-0.00956529937684536,0.036417849361896515
1772094025100648000,4.71964794921875,-0.04914400726556778,-0.0013111135922372341,0.020931685343384743
1772094025110596900,4.729596923828125,-0.058794502168893814,0.02162322960793972,-0.003397089894860983
1772094025120545800,4.7395458984375,-0.06891979277133942,0.03607446700334549,-0.010491825640201569
1772094025130495700,4.749495849609375,-0.07590606063604355,0.03151460364460945,-0.0076731350272893906
1772094025140444700,4.759444580078125,-0.06739026308059692,0.02789774350821972,-0.003121218178421259
1772094025150393900,4.769393798828125,-0.053672052919864655,0.020368987694382668,-0.008735161274671555
1772094025160343000,4.779343017578125,-0.031171785667538643,0.002451244741678238,-0.003220211248844862
1772094025170292000,4.7892919921875,-0.020120199769735336,-0.005004540551453829,-0.001881440170109272
1772094025180241000,4.799240966796875,-0.019877327606081963,-0.004766407422721386,-0.006398710887879133
1772094025190189800,4.80918994140625,-0.023757554590702057,-0.0006997608579695225,-0.016242552548646927
1772094025200139800,4.819139892578125,-0.020594893023371696,0.0003780345432460308,-0.029110072180628777
1772094025210089000,4.8290888671875,-0.007761651650071144,0.006132592912763357,-0.033021990209817886
1772094025220038000,4.839037841796875,0.0033276299946010113,0.004247615113854408,-0.02582792565226555
1772094025229986800,4.84898681640625,0.009676871821284294,0.0023666243068873882,-0.00946466438472271
1772094025239936000,4.85893603515625,0.0022103372029960155,0.0019179999362677336,-0.0020809262059628963
1772094025249885000,4.868885009765625,-0.004818810150027275,0.022653639316558838,-0.00238958653062582
1772094025259835000,4.8788349609375,-0.0188799649477005,0.03942177817225456,-0.0004028528928756714
1772094025269784000,4.8887841796875,-0.03440353274345398,0.04854550212621689,0.004045691341161728
1772094025279733000,4.89873291015625,-0.04570036754012108,0.06004706770181656,0.0015109982341527939
1772094025289682000,4.908681884765625,-0.04987700283527374,0.07457674294710159,-0.003254994750022888
1772094025299630800,4.918630859375,-0.05172904208302498,0.0834178775548935,-0.017222773283720016
1772094025309579800,4.928579833984375,-0.04950370267033577,0.07959064841270447,-0.014693568460643291
1772094025319528700,4.93852880859375,-0.05252016708254814,0.07082030922174454,-0.009100811555981636
1772094025329478700,4.948478759765625,-0.057362861931324005,0.06480236351490021,-0.004241340793669224
1772094025339427800,4.958427734375,-0.06538156419992447,0.05887313187122345,-0.003836511168628931
1772094025349377000,4.968376953125,-0.058450955897569656,0.050720661878585815,-0.006616319064050913
1772094025359326000,4.978325927734375,-0.04349875822663307,0.04301544651389122,-0.01423211582005024
1772094025369275000,4.98827490234375,-0.03108283504843712,0.048276521265506744,-0.018099557608366013
1772094025379223800,4.998223876953125,-0.0239726509898901,0.06306131184101105,-0.024341166019439697
1772094025389172700,5.0081728515625,-0.020291628316044807,0.07233203947544098,-0.02599179372191429
1772094025399123000,5.018123046875,-0.008533482439815998,0.0706392377614975,-0.031162220984697342
1772094025409071900,5.02807177734375,0.0002301819622516632,0.06411795318126678,-0.02476344257593155
1772094025419020800,5.038020751953125,0.013929188251495361,0.05067499727010727,-0.014561786316335201
1772094025428970000,5.047969970703125,0.020190013572573662,0.04440884292125702,-0.01292953360825777
1772094025438919000,5.0579189453125,0.021181898191571236,0.036901816725730896,-0.012123973108828068
1772094025448867800,5.067867919921875,0.025378506630659103,0.038937538862228394,-0.018264424055814743
1772094025458818000,5.077818115234375,0.02282242476940155,0.04678209871053696,-0.025798417627811432
1772094025468767000,5.08776708984375,0.02131028287112713,0.04373597353696823,-0.03155403956770897
1772094025478716000,5.0977158203125,0.022750375792384148,0.04754365235567093,-0.027070652693510056
1772094025488664800,5.107664794921875,0.03204134851694107,0.05694540590047836,-0.0159120075404644
1772094025498613800,5.11761376953125,0.03943149745464325,0.059156376868486404,-0.0034821676090359688
1772094025508562700,5.127562744140625,0.04743989184498787,0.06542092561721802,0.00893828272819519
1772094025518511900,5.137511962890625,0.04829268157482147,0.06581290811300278,0.02241324633359909
1772094025528461800,5.1474619140625,0.046986933797597885,0.06171989440917969,0.02987169660627842
1772094025538411000,5.157410888671875,0.045580506324768066,0.05266119912266731,0.03399345278739929
1772094025548360000,5.16735986328125,0.042748235166072845,0.047022752463817596,0.02875235304236412
1772094025558308900,5.177308837890625,0.035921406000852585,0.04665143042802811,0.02173243835568428
1772094025568257800,5.1872578125,0.025820836424827576,0.041207924485206604,0.014313138090074062
1772094025578206700,5.197206787109375,0.017562996596097946,0.01864486187696457,0.0062201619148254395
1772094025588155600,5.20715576171875,0.0029821903444826603,0.00524809630587697,-0.003997321706265211
1772094025598105900,5.21710595703125,-0.015195006504654884,-0.006551649421453476,-0.024762731045484543
1772094025608054800,5.2270546875,-0.03233617544174194,-0.0006261160597205162,-0.04230044409632683
1772094025618004000,5.23700390625,-0.047553855925798416,0.0029505714774131775,-0.048029109835624695
1772094025627953000,5.246952880859375,-0.05666639655828476,-0.003918253351002932,-0.04582720994949341
1772094025637901800,5.25690185546875,-0.060182634741067886,-0.011914257891476154,-0.03555433079600334
1772094025647850800,5.266850830078125,-0.060653481632471085,-0.0004200544208288193,-0.03893308341503143
1772094025657801000,5.276801025390625,-0.05405624955892563,0.0019737202674150467,-0.04102214425802231
1772094025667749400,5.286749267578125,-0.05240056663751602,0.013242886401712894,-0.043460533022880554
1772094025677698300,5.2966982421875,-0.05026994273066521,0.03186081349849701,-0.04402714967727661
1772094025687647200,5.306647216796875,-0.048700276762247086,0.035694967955350876,-0.02777787111699581
1772094025697596400,5.316596435546875,-0.05407235026359558,0.032630011439323425,-0.009769901633262634
1772094025707545600,5.326545654296875,-0.04926614463329315,0.03459009900689125,0.0014284239150583744
1772094025717494500,5.33649462890625,-0.04254208132624626,0.03579356521368027,0.009086336009204388
1772094025727444500,5.346444580078125,-0.034858327358961105,0.0245603509247303,0.021676963195204735
1772094025737393400,5.356393310546875,-0.027809496968984604,0.019700929522514343,0.04521781951189041
1772094025747342300,5.36634228515625,-0.018292691558599472,0.020684435963630676,0.0608106292784214
1772094025757291300,5.376291259765625,-0.011878248304128647,0.026793602854013443,0.06285733729600906
1772094025767240200,5.386240234375,0.0028330530039966106,0.02556641772389412,0.05122065916657448
1772094025777189400,5.396189453125,0.013481702655553818,0.016081303358078003,0.039056673645973206
1772094025787139300,5.406139404296875,0.012000186368823051,0.019517047330737114,0.025408504530787468
1772094025797088500,5.416088623046875,0.004561273846775293,0.03154546394944191,0.00934390164911747
1772094025807037400,5.426037353515625,-0.01256631314754486,0.03845104202628136,0.001622865442186594
1772094025816986400,5.435986328125,-0.023250527679920197,0.03625302389264107,-0.0100495470687747
1772094025826935300,5.445935302734375,-0.029546506702899933,0.022398993372917175,-0.02248118445277214
1772094025836884500,5.455884521484375,-0.0249878391623497,-0.0009482488967478275,-0.03546912595629692
1772094025846833400,5.46583349609375,-0.024789700284600258,-0.01154310256242752,-0.041328612715005875
1772094025856783400,5.475783447265625,-0.030390674248337746,-0.022432368248701096,-0.04035903513431549
1772094025866732300,5.485732177734375,-0.031212525442242622,-0.043721944093704224,-0.02572629414498806
1772094025876681200,5.49568115234375,-0.03402457386255264,-0.06862607598304749,-0.002222607843577862
1772094025886630400,5.50563037109375,-0.028315020725131035,-0.08030430972576141,0.006541588809341192
1772094025896579600,5.51557958984375,-0.022196924313902855,-0.06027844548225403,-0.006183973979204893
1772094025906528500,5.525528564453125,-0.022843539714813232,-0.03732572868466377,-0.01478332094848156
1772094025916478500,5.535478515625,-0.017780059948563576,-0.027691258117556572,-0.013020556420087814
1772094025926427400,5.545427490234375,-0.00890081562101841,-0.009219039231538773,-0.008851643651723862
1772094025936376300,5.555376220703125,-0.0015101253520697355,0.01092623732984066,-0.0005774088203907013
1772094025946325200,5.5653251953125,0.007544355932623148,0.021848659962415695,0.011309610679745674
1772094025956274400,5.5752744140625,0.014406531117856503,0.023840971291065216,0.027778401970863342
1772094025966223400,5.585223388671875,0.02627784013748169,0.022040141746401787,0.040378082543611526
1772094025976172500,5.595172607421875,0.03696359321475029,0.018313298001885414,0.04412972927093506
1772094025986122500,5.60512255859375,0.05283922702074051,0.014345187693834305,0.040743518620729446
1772094025996071400,5.615071533203125,0.0665706917643547,0.004879170563071966,0.030108243227005005
1772094026006020400,5.625020263671875,0.07249037176370621,-0.00495215505361557,0.016700558364391327
1772094026015969500,5.634969482421875,0.07057543843984604,-0.003035681787878275,0.0018143467605113983
1772094026025918500,5.64491845703125,0.06622463464736938,0.0014544078148901463,-0.014817893505096436
1772094026035867400,5.654867431640625,0.05749043822288513,-0.00041671330109238625,-0.009810736402869225
1772094026045817300,5.6648173828125,0.05885637179017067,-0.005393362138420343,-0.004106244537979364
1772094026055766300,5.674766357421875,0.05214251950383186,-0.0080146174877882,-0.0011856607161462307
1772094026065715200,5.684715087890625,0.053538545966148376,-0.009170429781079292,0.005433360114693642
1772094026075664400,5.694664306640625,0.053306400775909424,-0.011973691172897816,0.01569269970059395
1772094026085613600,5.704613525390625,0.05116468667984009,-0.003569020889699459,0.02557941898703575
1772094026095562500,5.7145625,0.044861700385808945,0.008068477734923363,0.03147774189710617
1772094026105511400,5.724511474609375,0.033850595355033875,0.02254329062998295,0.03272383660078049
1772094026115461400,5.73446142578125,0.022002486512064934,0.04848930984735489,0.023365594446659088
1772094026125410300,5.744410400390625,0.008815578185021877,0.06916369497776031,0.019622785970568657
1772094026135359200,5.754359130859375,-0.00206551281735301,0.07744940370321274,0.02846628427505493
1772094026145308400,5.764308349609375,-0.008783070370554924,0.05730098485946655,0.04373152554035187
1772094026155257300,5.77425732421875,-0.011370925232768059,0.03989400342106819,0.05655069276690483
1772094026165206500,5.78420654296875,-0.014254862442612648,0.007214621640741825,0.05914993956685066
1772094026175155500,5.794155517578125,-0.01665240153670311,-0.014223622158169746,0.04816959425806999
1772094026185105400,5.80410546875,-0.024868253618478775,-0.025397712364792824,0.027012644335627556
1772094026195054300,5.814054443359375,-0.029189445078372955,-0.0275284331291914,-0.007838340476155281
1772094026205003500,5.82400341796875,-0.035326436161994934,-0.027439748868346214,-0.03159879520535469
1772094026214952400,5.833952392578125,-0.03646734729409218,-0.03199712187051773,-0.03922372683882713
1772094026224901400,5.8439013671875,-0.033690471202135086,-0.047994464635849,-0.030562859028577805
1772094026234850300,5.853850341796875,-0.025744065642356873,-0.057869963347911835,-0.024667993187904358
1772094026244800300,5.86380029296875,-0.007869195193052292,-0.057152509689331055,-0.021235711872577667
1772094026254749200,5.873749267578125,0.004661917220801115,-0.06326670944690704,-0.015073327347636223
1772094026264698600,5.88369873046875,0.01445755548775196,-0.05485937371850014,-0.011100424453616142
1772094026274647600,5.8936474609375,0.023032356053590775,-0.045707590878009796,-0.011234092526137829
1772094026284596500,5.903596435546875,0.02457166463136673,-0.036789730191230774,-0.008852160535752773
1772094026294545400,5.91354541015625,0.025741051882505417,-0.03365487605333328,-0.00462760403752327
1772094026304495400,5.923495361328125,0.028992772102355957,-0.03184765577316284,-0.0007971795275807381
1772094026314444300,5.9334443359375,0.025700941681861877,-0.02542337402701378,-0.003053009044378996
1772094026324393500,5.9433935546875,0.02438454143702984,-0.015484457835555077,-0.002495343331247568
1772094026334342400,5.95334228515625,0.02548839896917343,-0.011188466101884842,0.0036255766171962023
1772094026344291300,5.963291259765625,0.02204146981239319,-0.01310327835381031,0.011911203153431416
1772094026354240500,5.973240478515625,0.023933688178658485,-0.013773953542113304,0.012812062166631222
1772094026364189400,5.983189453125,0.022804507985711098,-0.01387542113661766,0.015185205265879631
1772094026374139400,5.993139404296875,0.014590431936085224,-0.012924125418066978,0.026143530383706093
1772094026384088600,6.003088623046875,0.009499000385403633,-0.017296502366662025,0.0307590551674366
1772094026394037500,6.01303759765625,0.007634732872247696,-0.01877121813595295,0.021257435902953148
1772094026403986400,6.022986328125,0.011019078083336353,-0.021875400096178055,0.006592472083866596
1772094026413935400,6.032935302734375,0.015808288007974625,-0.020472055301070213,-0.007146317511796951
1772094026423884300,6.04288427734375,0.014748082496225834,-0.019836625084280968,-0.00800971407443285
1772094026433834200,6.052834228515625,0.0077068558894097805,-0.020135417580604553,-0.00222651194781065
1772094026443783200,6.062783203125,0.0033382070250809193,-0.02926819398999214,0.004898775834590197
1772094026453732600,6.072732666015625,0.005821891129016876,-0.032952457666397095,0.007131923921406269
1772094026463681500,6.082681640625,0.013051042333245277,-0.028187263756990433,0.005899147130548954
1772094026473630500,6.09263037109375,0.016031412407755852,-0.029107747599482536,0.004868874326348305
1772094026483579400,6.102579345703125,0.016415707767009735,-0.0267788115888834,0.0029758992604911327
1772094026493528300,6.1125283203125,0.014191502705216408,-0.030173199251294136,-0.0010760868899524212
1772094026503478300,6.122478271484375,0.004330615978688002,-0.026562483981251717,-0.006458335556089878
1772094026513427500,6.132427490234375,0.0009914077818393707,-0.019111070781946182,-0.012440036982297897
1772094026523376400,6.14237646484375,-0.0008405810222029686,-0.001201313454657793,-0.01553010381758213
1772094026533325300,6.1523251953125,0.006530319340527058,0.01655641198158264,-0.010654158890247345
1772094026543274500,6.1622744140625,0.014450827613472939,0.02586895227432251,0.012614145874977112
1772094026553223400,6.172223388671875,0.016753196716308594,0.028523137792944908,0.03779914230108261
1772094026563173400,6.18217333984375,0.02202572301030159,0.026798207312822342,0.0555935874581337
1772094026573122600,6.19212255859375,0.020785335451364517,0.018944483250379562,0.06823315471410751
1772094026583071500,6.202071533203125,0.019853495061397552,0.009622620418667793,0.07431607693433762
1772094026593020400,6.2120205078125,0.019492484629154205,0.006740703247487545,0.06544683873653412
1772094026602969300,6.22196923828125,0.020943906158208847,0.004664503037929535,0.054586999118328094
1772094026612918300,6.231918212890625,0.025267455726861954,0.008441362529993057,0.03569948673248291
1772094026622867500,6.241867431640625,0.022184312343597412,0.015039876103401184,0.016977999359369278
1772094026632817400,6.2518173828125,0.019613198935985565,0.01819419115781784,0.0006787888705730438
1772094026642766600,6.2617666015625,0.017223011702299118,0.023457661271095276,-0.014471134170889854
1772094026652715500,6.271715576171875,0.011452564038336277,0.02717413753271103,-0.020219996571540833
1772094026662664400,6.28166455078125,0.015122667886316776,0.027565620839595795,-0.01606067270040512
1772094026672614000,6.29161376953125,0.024585410952568054,0.020485075190663338,0.004408116918057203
1772094026682562800,6.301562744140625,0.03414509445428848,-0.0005080909468233585,0.027547791600227356
1772094026692512800,6.3115126953125,0.03913382440805435,-0.010382575914263725,0.04864414036273956
1772094026702462000,6.3214619140625,0.042877960950136185,-0.0117301344871521,0.051537930965423584
1772094026712411000,6.331410888671875,0.037193767726421356,-0.01030771341174841,0.04814208671450615
1772094026722359800,6.34135986328125,0.029850101098418236,0.0010685117449611425,0.035662781447172165
1772094026732309000,6.35130908203125,0.01902032643556595,0.00728713721036911,0.01699177548289299
1772094026742258000,6.3612578125,0.01159649807959795,0.008171839639544487,0.009579932317137718
1772094026752208000,6.371207763671875,0.008704987354576588,0.00791841559112072,0.008886822499334812
1772094026762157000,6.381156982421875,0.0020050066523253918,0.004122878424823284,0.005966932512819767
1772094026772106000,6.39110595703125,-0.0026288041844964027,-0.005910595413297415,0.012004369869828224
1772094026782055000,6.401054931640625,-0.003961183596402407,-0.01642342284321785,0.025378763675689697
1772094026792003800,6.41100390625,-0.014149993658065796,-0.00832931138575077,0.030832815915346146
1772094026801952800,6.420952880859375,-0.016970548778772354,-0.01344231329858303,0.042793869972229004
1772094026811901700,6.430901611328125,-0.012661256827414036,-0.03284295275807381,0.05352337285876274
1772094026821852000,6.440851806640625,-0.007819896563887596,-0.028820252045989037,0.04648490250110626
1772094026831800800,6.45080078125,-0.011222664266824722,-0.014374857768416405,0.027238313108682632
1772094026841750000,6.46075,-0.006490760482847691,-0.000763441901654005,0.015812287107110023
1772094026851699000,6.470698974609375,-0.006755572743713856,0.0029282483737915754,0.0012321621179580688
1772094026861648000,6.48064794921875,0.0016810549423098564,0.008909974247217178,-0.009125936776399612
1772094026871596800,6.4905966796875,0.010208534076809883,0.0023504665587097406,-0.012198038399219513
1772094026881547000,6.500547119140625,0.012990472838282585,-0.013361651450395584,-0.005138797219842672
1772094026891496000,6.510495849609375,0.0216623917222023,-0.022062839940190315,-0.00015226658433675766
1772094026901444900,6.52044482421875,0.02129594050347805,-0.016769008710980415,0.0021231381688266993
1772094026911393800,6.530393798828125,0.027460578829050064,-0.017617084085941315,0.005562684964388609
1772094026921343000,6.540343017578125,0.03409983962774277,-0.010325348004698753,0.016347423195838928
1772094026931292000,6.5502919921875,0.04129508137702942,-0.005256103817373514,0.022564750164747238
1772094026941240800,6.56024072265625,0.049341291189193726,-0.014402465894818306,0.02136739157140255
1772094026951191000,6.57019091796875,0.04918694123625755,-0.009409582242369652,0.010443564504384995
1772094026961140000,6.580139892578125,0.05006711557507515,0.0016835492569953203,-0.00992295891046524
1772094026971089000,6.5900888671875,0.043369587510824203,-0.003846959676593542,-0.017790261656045914
1772094026981037800,6.600037841796875,0.03564641997218132,-0.0074784462340176105,-0.014221359975636005
1772094026990986800,6.60998681640625,0.025316011160612106,0.004728999920189381,-0.002042473293840885
1772094027000935700,6.619935791015625,0.012507005594670773,0.013204243034124374,0.02707839384675026
1772094027010886000,6.629885986328125,0.005512449890375137,0.008523831143975258,0.05563217028975487
1772094027020834800,6.639834716796875,0.009322102181613445,-0.002413771115243435,0.07183803617954254
1772094027030784000,6.649783935546875,0.02089899592101574,-0.014466596767306328,0.0767134577035904
1772094027040733000,6.65973291015625,0.0316762737929821,-0.009431624785065651,0.0669867992401123
1772094027050681900,6.669681884765625,0.030692817643284798,-0.003931005951017141,0.04493281990289688
1772094027060630800,6.679630859375,0.019086496904492378,0.0030922824516892433,0.02368265762925148
1772094027070579700,6.689579833984375,0.0009459280408918858,0.00713925389572978,0.005605487618595362
1772094027080530000,6.699530029296875,-0.01216374896466732,-0.004560811445116997,0.0005830321460962296
1772094027090478800,6.709478759765625,-0.01033569872379303,-0.026265762746334076,-0.003250112757086754
1772094027100427800,6.719427734375,0.0017510582692921162,-0.03795118257403374,-0.01334003172814846
1772094027110377000,6.729376953125,0.013149691745638847,-0.03409208729863167,-0.022696340456604958
1772094027120326000,6.739325927734375,0.02376638352870941,-0.04452289268374443,-0.030208852142095566
1772094027130274800,6.74927490234375,0.02888060361146927,-0.05575044825673103,-0.031615737825632095
1772094027140225000,6.75922509765625,0.02896156534552574,-0.052332546561956406,-0.04172004014253616
1772094027150174000,6.769174072265625,0.02779294177889824,-0.04158766195178032,-0.05345030128955841
1772094027160123000,6.779122802734375,0.02501872554421425,-0.0389372855424881,-0.053465213626623154
1772094027170071800,6.78907177734375,0.02230028063058853,-0.039430614560842514,-0.040227822959423065
1772094027180020700,6.799020751953125,0.026276113465428352,-0.041611477732658386,-0.01447825226932764
1772094027189969700,6.8089697265625,0.03335750475525856,-0.051997631788253784,0.003785618580877781
1772094027199918800,6.8189189453125,0.035481639206409454,-0.050737690180540085,0.012998824939131737
1772094027209868800,6.828868896484375,0.029646633192896843,-0.04173136502504349,0.009410658851265907
1772094027219818000,6.83881787109375,0.02101239748299122,-0.03514004498720169,-0.000027051661163568497
1772094027229767000,6.848766845703125,0.008996045216917992,-0.024378756061196327,-0.014303874224424362
1772094027239715800,6.8587158203125,0.004284913185983896,-0.015758102759718895,-0.017999010160565376
1772094027249664800,6.868664794921875,0.006254920735955238,-0.029361717402935028,0.00030251406133174896
1772094027259613700,6.87861376953125,0.00467273686081171,-0.037947218865156174,0.02262619510293007
1772094027269564000,6.88856396484375,0.004251329693943262,-0.031654950231313705,0.021227916702628136
1772094027279512800,6.898512939453125,-0.004059064667671919,-0.019419321790337563,0.010233057662844658
1772094027289461800,6.908461669921875,-0.009304276667535305,-0.014543546363711357,-0.0015817307867109776
1772094027299411000,6.918410888671875,-0.00788880605250597,-0.01166653260588646,-0.0038155904039740562
1772094027309359900,6.92835986328125,-0.004736886825412512,-0.00997161865234375,0.003783488180488348
1772094027319308800,6.938308837890625,-0.008790483698248863,-0.015947218984365463,0.02095608413219452
1772094027329258000,6.948258056640625,-0.010467990301549435,-0.02211488038301468,0.024169007316231728
1772094027339208000,6.9582080078125,-0.009984360076487064,-0.018357694149017334,0.015653284266591072
1772094027349156900,6.968156982421875,-0.01159055344760418,-0.016008425503969193,0.009762728586792946
1772094027359105800,6.978105712890625,-0.012986315414309502,-0.01930435374379158,0.011962499469518661
1772094027369054700,6.9880546875,-0.009934140369296074,-0.025380119681358337,0.018239807337522507
1772094027379003600,6.998003662109375,-0.005900783464312553,-0.01492561399936676,0.01965421251952648
1772094027388953000,7.007953125,-0.004592820070683956,-0.011274123564362526,0.017632173374295235
1772094027398902800,7.01790283203125,0.0016613476909697056,-0.0013977903872728348,0.01107600424438715
1772094027408852000,7.02785205078125,0.0022514662705361843,-0.005936256144195795,0.010803122073411942
1772094027418801000,7.03780078125,0.0013766176998615265,-0.010333934798836708,0.0041236476972699165
1772094027428749800,7.047749755859375,0.0001519736833870411,-0.005955587141215801,-0.009063483215868473
1772094027438698800,7.05769873046875,0.00993296504020691,-0.0010271412320435047,-0.014789544977247715
1772094027448648000,7.06764794921875,0.010814689099788666,0.00990314595401287,-0.010490864515304565
1772094027458596900,7.077596923828125,0.01204427145421505,0.0026297862641513348,-0.0019993744790554047
1772094027468546800,7.087546875,0.017386114224791527,-0.003381469752639532,0.003173047211021185
1772094027478495700,7.097495849609375,0.024116721004247665,-0.012849275022745132,0.003695026971399784
1772094027488445000,7.10744482421875,0.029161643236875534,-0.02425054833292961,-0.0013446207158267498
1772094027498393900,7.117393798828125,0.03435986861586571,-0.03599748760461807,-0.01231151819229126
1772094027508342800,7.1273427734375,0.03319704532623291,-0.03244028612971306,-0.02639782428741455
1772094027518292000,7.1372919921875,0.026175886392593384,-0.023112565279006958,-0.03585550934076309
1772094027528242000,7.147241943359375,0.0172679852694273,-0.020999673753976822,-0.0440288782119751
1772094027538190800,7.15719091796875,0.011240987107157707,-0.021203139796853065,-0.042398758232593536
1772094027548139800,7.167139892578125,0.014212501235306263,-0.03207673504948616,-0.02968500554561615
1772094027558088700,7.177088623046875,0.013671080581843853,-0.037339672446250916,-0.015008057467639446
1772094027568037600,7.18703759765625,0.015137484297156334,-0.045146383345127106,-0.009521931409835815
1772094027577987000,7.196987060546875,0.0160679928958416,-0.04455889016389847,-0.012851415202021599
1772094027587936000,7.20693603515625,0.011560162529349327,-0.03564721718430519,-0.012533300556242466
1772094027597886000,7.216885986328125,0.0040415264666080475,-0.020911946892738342,-0.013302155770361423
1772094027607835000,7.2268349609375,-0.0012786290608346462,-0.005702195223420858,-0.018199797719717026
1772094027617783800,7.23678369140625,-0.009944821707904339,0.0005141552537679672,-0.010327760130167007
1772094027627732700,7.246732666015625,-0.01719210110604763,0.00936947949230671,0.008767816238105297
1772094027637682000,7.256681884765625,-0.014058627188205719,-0.0008788974955677986,0.03095434606075287
1772094027647630800,7.266630859375,-0.007761315908282995,-0.00026823487132787704,0.03401777893304825
1772094027657580800,7.276580810546875,0.0006603985093533993,0.010884551331400871,0.016239315271377563
1772094027667529700,7.28652978515625,0.006970969028770924,0.018902985379099846,-0.0005768928676843643
1772094027677482200,7.296482177734375,0.0011032256297767162,0.020953353494405746,-0.007877683266997337
1772094027687431200,7.30643115234375,-0.013321539387106895,0.020776566118001938,-0.009215742349624634
1772094027697380000,7.316380126953125,-0.026173952966928482,0.029604412615299225,-0.0076585919596254826
1772094027707329000,7.3263291015625,-0.029681678861379623,0.0233539417386055,-0.0014297547750175
1772094027717279000,7.336279052734375,-0.020492441952228546,0.0031706425361335278,0.008646048605442047
1772094027727228000,7.346227783203125,-0.0039512645453214645,-0.014055261388421059,0.009080231189727783
1772094027737177000,7.356177001953125,0.009667076170444489,-0.01804094947874546,0.0017797078471630812
1772094027747126000,7.3661259765625,0.009313247166574001,-0.018638093024492264,-0.015922721475362778
1772094027757075000,7.376074951171875,0.006182701326906681,-0.023285841569304466,-0.031431905925273895
1772094027767024000,7.386024169921875,-0.011558206751942635,-0.012675010599195957,-0.03610009327530861
1772094027776973000,7.39597314453125,-0.02362791821360588,-0.01704685389995575,-0.03130640462040901
1772094027786923000,7.405923095703125,-0.03025219589471817,-0.016443083062767982,-0.019065486267209053
1772094027796872200,7.4158720703125,-0.03397316485643387,-0.016362389549613,-0.01038597896695137
1772094027806821000,7.425821044921875,-0.030597571283578873,-0.0093796756118536,0.000917983241379261
1772094027816770000,7.43577001953125,-0.03179439529776573,0.00594282103702426,0.007313830778002739
1772094027826719000,7.445718994140625,-0.0355210155248642,0.013287109322845936,0.012537636794149876
1772094027836668000,7.45566796875,-0.03945077210664749,0.03024984709918499,0.010406575165688992
1772094027846617900,7.465617919921875,-0.04200003668665886,0.048683516681194305,0.02315054088830948
1772094027856567000,7.475567138671875,-0.03770861774682999,0.06930650025606155,0.04740794375538826
1772094027866516200,7.48551611328125,-0.02904796227812767,0.0856485441327095,0.067202627658844
1772094027876465200,7.495465087890625,-0.009833522140979767,0.07005972415208817,0.09642309695482254
1772094027886414000,7.5054140625,0.011247895658016205,0.051350418478250504,0.12474435567855835
1772094027896363000,7.515363037109375,0.014270050451159477,0.050998616963624954,0.12498217821121216
1772094027906312000,7.52531201171875,0.026107072830200195,0.08009585738182068,0.10680131614208221
1772094027916262000,7.535261962890625,0.044343333691358566,0.08692687004804611,0.08598311990499496
1772094027926211000,7.545211181640625,0.05993625894188881,0.08561120927333832,0.07632777839899063
1772094027936160000,7.555159912109375,0.06487056612968445,0.08899102360010147,0.05521822348237038
1772094027946109200,7.565109130859375,0.056479256600141525,0.0818842351436615,0.017242008820176125
1772094027956058000,7.57505810546875,0.04999499395489693,0.0680357962846756,-0.00962609052658081
1772094027966007000,7.585007080078125,0.05255826562643051,0.049062419682741165,-0.021955816075205803
1772094027975957000,7.59495703125,0.06084442511200905,0.02484416961669922,-0.019982412457466125
1772094027985906200,7.60490625,0.07361483573913574,0.003144903341308236,-0.017981208860874176
1772094027995855000,7.614855224609375,0.08546910434961319,-0.023496028035879135,-0.014637610875070095
1772094028005804000,7.624803955078125,0.10199639201164246,-0.0415300615131855,-0.019317688420414925
1772094028015753000,7.6347529296875,0.10851527750492096,-0.03947729989886284,-0.03474431484937668
1772094028025702000,7.644701904296875,0.1053774505853653,-0.028955666348338127,-0.05194865167140961
1772094028035651000,7.654651123046875,0.10637693107128143,-0.026524731889367104,-0.055967360734939575
1772094028045601000,7.66460107421875,0.10093249380588531,-0.020962029695510864,-0.04754355922341347
1772094028055550200,7.67455029296875,0.09809675812721252,-0.024084320291876793,-0.04215092211961746
1772094028065499100,7.6844990234375,0.10560301691293716,-0.02469146065413952,-0.04638829082250595
1772094028075448000,7.694447998046875,0.10938470810651779,-0.009010502137243748,-0.06658730655908585
1772094028085397000,7.70439697265625,0.1094222292304039,0.008353086188435555,-0.08533737808465958
1772094028095346000,7.714345947265625,0.10625972598791122,0.019540758803486824,-0.10047851502895355
1772094028105294800,7.724294921875,0.09213332831859589,0.03518957644701004,-0.1138523668050766
1772094028115245000,7.7342451171875,0.07468163222074509,0.033219899982213974,-0.12452764064073563
1772094028125194000,7.744194091796875,0.06386815011501312,0.003937648609280586,-0.11937781423330307
1772094028135143200,7.75414306640625,0.05766085535287857,-0.018220916390419006,-0.11227276176214218
1772094028145092000,7.764092041015625,0.058722782880067825,-0.02452664077281952,-0.11451570689678192
1772094028155041000,7.774041015625,0.046395812183618546,-0.035812318325042725,-0.10373922437429428
1772094028164990000,7.783989990234375,0.03180437535047531,-0.039791710674762726,-0.07670910656452179
1772094028174940200,7.793940185546875,0.014749493449926376,-0.03784281015396118,-0.0456119105219841
1772094028184889000,7.80388916015625,0.011971423402428627,-0.03378159552812576,-0.014409748837351799
1772094028194838000,7.813838134765625,0.013499544933438301,-0.028179636225104332,0.006904594600200653
1772094028204787000,7.823786865234375,0.01982002519071102,-0.030361829325556755,0.019921593368053436
1772094028214736000,7.83373583984375,0.022087441757321358,-0.025434181094169617,0.011857541278004646
1772094028224685000,7.84368505859375,0.015133347362279892,-0.0062299869023263454,-0.012481014244258404
1772094028234634000,7.853634033203125,0.0009576072916388512,0.018206113949418068,-0.040063370019197464
1772094028244584200,7.863584228515625,-0.027453500777482986,0.024915853515267372,-0.04047179967164993
1772094028254533000,7.873533203125,-0.04864906519651413,-0.02805202454328537,-0.02582547813653946
1772094028264482000,7.88348193359375,-0.03897428512573242,-0.03945422172546387,-0.021117083728313446
1772094028274431000,7.893430908203125,-0.037070658057928085,-0.04458320513367653,-0.025370415300130844
1772094028284380000,7.9033798828125,-0.03342779725790024,-0.05790996178984642,-0.0217546746134758
1772094028294328800,7.913328857421875,-0.03205067664384842,-0.056558672338724136,-0.02855558693408966
1772094028304278000,7.923278076171875,-0.03687765449285507,-0.059972357004880905,-0.036129072308540344
1772094028314228000,7.93322802734375,-0.033286113291978836,-0.0632360652089119,-0.03899063915014267
1772094028324177200,7.94317724609375,-0.03693890944123268,-0.04862245172262192,-0.03979572281241417
1772094028334126000,7.9531259765625,-0.043704669922590256,-0.023863576352596283,-0.04522644355893135
1772094028344075000,7.963074951171875,-0.04757648706436157,-0.012611877173185349,-0.051950812339782715
1772094028354024000,7.97302392578125,-0.031352512538433075,-0.01568862795829773,-0.03952743113040924
1772094028363973000,7.98297314453125,-0.006920774467289448,-0.0010936888866126537,-0.0169456098228693
1772094028373923000,7.992923095703125,0.000053511932492256165,-0.010211287066340446,0.0062710284255445
1772094028383872000,8.0028720703125,0.008012805134057999,-0.010824864730238914,0.018119581043720245
1772094028393821000,8.012821044921875,-0.0028638101648539305,-0.01085282675921917,0.02355162985622883
1772094028403769900,8.022769775390625,-0.014574794098734856,-0.013762596994638443,0.021964652463793755
1772094028413719000,8.032718994140625,-0.019069943577051163,-0.011797716841101646,0.001226350199431181
1772094028423668000,8.04266796875,-0.01783936657011509,-0.006990524940192699,-0.021740766242146492
1772094028433617200,8.0526171875,-0.022502828389406204,-0.007190261967480183,-0.03131243586540222
1772094028443567000,8.062567138671875,-0.020434007048606873,-0.010284243151545525,-0.047295574098825455
1772094028453516000,8.07251611328125,-0.015081851743161678,-0.020262841135263443,-0.04222970828413963
1772094028463465000,8.08246484375,-0.020192589610815048,-0.03358599543571472,-0.018647711724042892
1772094028473414000,8.092413818359375,-0.02512689307332039,-0.059597890824079514,-0.005892767570912838
1772094028483362800,8.10236279296875,-0.019871236756443977,-0.07177740335464478,-0.005390855483710766
1772094028493312000,8.11231201171875,-0.01089105848222971,-0.09673415124416351,0.008437075652182102
1772094028503262000,8.122261962890626,-0.004989375360310078,-0.13481976091861725,0.04081438481807709
1772094028513211100,8.132211181640624,0.001191821414977312,-0.17456930875778198,0.07266632467508316
1772094028523160000,8.14216015625,-0.003590438747778535,-0.19194293022155762,0.08470452576875687
1772094028533109000,8.15210888671875,0.016653845086693764,-0.2168610692024231,0.13034763932228088
1772094028543058000,8.162057861328124,0.027840718626976013,-0.1836003065109253,0.09025748074054718
1772094028553007000,8.172007080078124,0.041704870760440826,-0.09348852187395096,0.06099706515669823
1772094028562956000,8.1819560546875,0.06676478683948517,-0.10062559694051743,0.09336978197097778
1772094028572906000,8.191906005859375,0.08819364011287689,-0.07689070701599121,0.09688462316989899
1772094028582855000,8.20185498046875,0.09147462248802185,-0.02176840417087078,0.07940083742141724
1772094028592803800,8.211803955078125,0.07043298333883286,0.006296254228800535,0.06189534813165665
1772094028602753000,8.2217529296875,0.03686363250017166,0.0269221980124712,0.04960774630308151
1772094028612702200,8.2317021484375,-0.0008672347757965326,0.03879563510417938,0.02937144786119461
1772094028622651100,8.241651123046875,-0.032470494508743286,0.045607976615428925,0.011384503915905952
1772094028632600000,8.25160009765625,-0.054439976811409,0.04009469971060753,-0.013973850756883621
1772094028642550000,8.261550048828125,-0.052965886890888214,0.0311325341463089,-0.031081892549991608
1772094028652499000,8.2714990234375,-0.04534818232059479,0.03785648196935654,-0.05397628992795944
1772094028662447900,8.28144775390625,-0.039493024349212646,0.02997983805835247,-0.06221878528594971
1772094028672393700,8.291393798828125,-0.01725935749709606,0.0413035973906517,-0.06165419518947601
