time,seconds_elapsed,z,y,x
1772045489219741700,0.07274169921875,-0.17761106783449648,0.11120996568799019,0.050840581453777844
1772045489229728000,0.08272802734375,-0.08728139308989047,0.12349544676542282,0.12160820824671537
1772045489239713800,0.0927138671875,-0.014874913048744201,0.15254852277040482,0.2204785149846226
1772045489249698800,0.10269873046875,0.0324076471298933,0.3076034754037857,0.1378045426249504
1772045489259684900,0.112684814453125,0.1603396150380373,0.22126140899062155,0.12612513768188655
1772045489269671000,0.1226708984375,0.4363239633411169,0.10686404543817042,0.27529494126681237
1772045489279657000,0.132656982421875,0.7496808877050877,0.06687339583337307,0.31207159726116807
1772045489289642800,0.142642822265625,0.8939052342444658,-0.021092472389340398,0.29193153022583573
1772045489299629000,0.152629150390625,0.9078285456568003,-0.013487842604517936,0.1828741759944707
1772045489309614800,0.16261474609375,0.8815776675909757,0.13903963737785816,-0.0075130425112321965
1772045489319601000,0.172600830078125,0.9777157363533973,0.36371231611669064,-0.12881521701607854
1772045489329587000,0.1825869140625,1.1525409728616476,0.43875206727087496,-0.12220288620423525
1772045489339572000,0.192572021484375,1.4807354008734226,0.4406622848063707,-0.062388432439044114
1772045489349557800,0.202557861328125,1.8263310455411672,0.47898704702556133,-0.10489303762614727
1772045489359543800,0.212543701171875,2.113470994108915,0.25840894412398335,-0.20172639517635105
1772045489369529900,0.22252978515625,2.5151456688731906,-0.09124035984873771,-0.14861469045281409
1772045489379516000,0.232515869140625,2.7592753277540205,-0.3714636608958244,-0.24676614486426113
1772045489389501700,0.242501708984375,2.4210627790749073,-0.614511954280734,-0.3763708682902157
1772045489399488000,0.252488037109375,1.7519295922905205,-0.6532371139943599,-0.15092523241750896
1772045489409473800,0.262473876953125,1.1547732619583606,-0.4545791664779186,0.005406754414364695
1772045489419459800,0.2724599609375,0.7973843036442995,0.10532967547774315,0.29801022908501323
1772045489429446000,0.28244580078125,0.6421218457400798,0.5992576865255832,0.4647803155619651
1772045489439432000,0.292431884765625,0.5716530557632445,0.6611404344648122,0.46015148671753703
1772045489449417000,0.3024169921875,0.3191144649773836,0.43109249242842196,0.6620222588006407
1772045489459402800,0.31240283203125,-0.07482932327389717,0.3016086189031601,1.0078324230019002
1772045489469389000,0.32238916015625,-0.46346974442005157,0.3029258389815688,1.1894760342881083
1772045489479374800,0.332374755859375,-0.8179267409354448,0.4313306850984692,1.2923800900541245
1772045489489361000,0.34236083984375,-0.9506424359887837,0.7601552277073264,1.3966764769613742
1772045489499347000,0.352346923828125,-0.802426389464736,0.8740545786097645,0.994818919910863
1772045489509333000,0.3623330078125,-0.5246867219269276,0.7544669529378414,0.25512561160437763
1772045489519318800,0.37231884765625,-0.37565351380109785,0.4420528623819351,-0.5044014742672444
1772045489529305000,0.38230517578125,-0.6007622458696364,0.16961831551492212,-1.2227611218396575
1772045489539291000,0.392290771484375,-0.8985621201395988,0.24272329921424388,-1.3792422348186373
1772045489549276000,0.40227587890625,-1.2422557305783033,0.4793211012855172,-0.7439280232667923
1772045489559261700,0.41226171875,-1.0044073439240455,0.2677577872276306,1.3608302336849272
1772045489569248000,0.422248046875,-0.6326040758103132,-0.5991714695468544,3.6618157038748262
1772045489579233800,0.43223388671875,0.07826046676635742,0.21450141333639622,3.3240389162644743
1772045489589219800,0.4422197265625,0.720052642160654,2.2659692479968068,1.3488336525514721
1772045489599206000,0.452205810546875,0.3676426413029432,1.9864584791332482,1.13518965976201
1772045489609192000,0.46219189453125,-0.1651625051498413,1.4288421320289373,0.5778607512969524
1772045489619177700,0.472177734375,-0.177654906976223,1.32698919275105,-0.23267463727816937
1772045489629164000,0.4821640625,0.351309346139431,1.1539029088646173,-0.6973975235644727
1772045489639149800,0.49214990234375,0.8867208756983279,0.8236559322372078,-0.4175451016563922
1772045489649135900,0.502135986328125,1.5120453158944844,0.44333997958302496,0.21482585951779037
1772045489659121000,0.512120849609375,2.253741050064564,0.8142220411986112,0.3638224254276603
1772045489669107000,0.52210693359375,2.851638554152846,1.1906348489344118,0.799393889901042
1772045489679093000,0.532093017578125,3.3759465058952567,1.206511632502079,1.4213710654959082
1772045489689078800,0.542078857421875,3.8258798923939463,1.3567986400812864,1.4468021516114473
1772045489699065000,0.552065185546875,4.097210861933231,1.5524024607241154,1.1805873560421167
1772045489709051000,0.56205078125,4.314733668917417,1.6493711350917815,0.6512192713659256
1772045489719037000,0.572036865234375,4.618050260782241,1.7711486720234155,0.054735433467850085
1772045489729023000,0.58202294921875,4.810808044344187,1.875084262794256,-0.17983159342817961
1772045489739009000,0.592009033203125,4.611473805001378,1.6795178515523672,0.07575049323942512
1772045489748994800,0.601994873046875,4.2073347859501835,1.9385799988880752,0.08972633855659515
1772045489758979800,0.611979736328125,3.988849855935573,2.7495287175044414,0.13495810368526726
1772045489768966000,0.6219658203125,3.925717984718084,3.277089241302013,0.7858733140707016
1772045489778952000,0.631951904296875,4.116246401792765,2.986006984849274,1.4085183059245348
1772045489788937700,0.641937744140625,4.910511112111807,2.7648428987532854,1.2208962047506122
1772045489798924000,0.651924072265625,5.607198660776019,2.829479329314828,0.45440110649727283
1772045489808909800,0.661909912109375,5.900050557249784,2.6097543361112474,0.11026055600866674
1772045489818896000,0.671895751953125,5.906047167316078,2.357981469000876,0.1995968723343685
1772045489828882000,0.6818818359375,5.6268409343570465,2.5391432150542737,0.4636416669208556
1772045489838868000,0.691867919921875,5.265383703690767,2.7457357549622654,0.9369242917597294
1772045489848853800,0.701853759765625,4.878590371716022,2.716727687142789,1.0318841105230152
1772045489858838800,0.7118388671875,4.050526852169632,2.1527900280624626,0.43645127951521423
1772045489868824800,0.721824951171875,2.561630356672406,0.9552747719645499,-0.9435798041261731
1772045489878811000,0.731810791015625,0.8426081777274608,-0.2611117733418941,-2.409161328878999
1772045489888797000,0.741796875,-1.1416332098782063,-1.2381912576183676,-3.420417515784502
1772045489898783000,0.751782958984375,-3.3790713599175213,-2.4057561966106293,-3.7547970621719955
1772045489908768800,0.761768798828125,-5.978671674022078,-3.461126542791724,-4.353086488187313
1772045489918754800,0.7717548828125,-8.77496652661562,-4.213777386218309,-5.098815423396229
1772045489928740900,0.781740966796875,-12.379572735059261,-5.095229381603002,-6.032991293230652
1772045489938727000,0.791726806640625,-16.01544034320712,-5.478164869105815,-6.985833869612216
1772045489948712700,0.801712646484375,-18.872842867714166,-5.542795454448461,-7.855787734904885
1772045489958699000,0.811698974609375,-20.289757830584048,-5.742604910087585,-7.871250676974654
1772045489968684000,0.82168408203125,-20.397782151973246,-5.8063937839090825,-7.174554360482096
1772045489978669800,0.831669921875,-19.911277568924426,-5.358896100124716,-6.249465467944741
1772045489988655900,0.84165576171875,-18.684796330583094,-4.9919391029983755,-4.950674780195951
1772045489998642000,0.851641845703125,-16.837151863378285,-4.828229134744405,-3.8592245281130073
1772045490008628000,0.8616279296875,-14.705142173016071,-4.646477021582425,-3.3534009120881554
1772045490018615000,0.871614990234375,-12.572373773241042,-4.423274415396154,-3.4122610973358154
1772045490028600800,0.881600830078125,-10.621749408555031,-4.2966374557346105,-3.7100685703903435
1772045490038587100,0.891587158203125,-8.638575357919931,-4.23063558203876,-3.6679455849319695
1772045490048573000,0.901572998046875,-6.490488392981886,-3.6008050625950094,-3.4307574157521126
1772045490058559000,0.91155908203125,-4.228568128114938,-2.5667732725188133,-2.690176072564721
1772045490068544000,0.9215439453125,-2.1099287914574143,-1.4931708118155598,-1.4358284837849438
1772045490078530000,0.931530029296875,-0.4353735307484865,-0.42631139563173054,-0.1098605969056487
1772045490088516000,0.94151611328125,0.7915630501449108,0.5251341734334826,1.149688506039977
1772045490098502000,0.951501953125,1.4716075070440768,1.5748080615386366,2.04071219349876
1772045490108488200,0.96148828125,1.7874971647560596,2.596304779690504,2.2935034438714386
1772045490118474000,0.971473876953125,2.3526743025034667,3.3357986199021337,2.081678848528862
1772045490128460000,0.9814599609375,3.272273949974775,3.9746135330513117,1.8787346019953488
1772045490138446000,0.991446044921875,4.513246070483326,4.492242153160274,1.9223779288887977
1772045490148432100,1.00143212890625,5.719556627455353,4.967531222450733,2.0340835691392423
1772045490158418000,1.01141796875,6.688567663827538,5.278472317844629,2.4424428362339734
1772045490168404200,1.021404296875,7.606290411511063,5.427400312030315,3.111027156963944
1772045490178389000,1.031388916015625,8.46584154073298,5.5348167306542395,3.913702260492742
1772045490188375000,1.041375,9.224940245124698,5.60521888513565,4.633250460262596
1772045490198360800,1.05136083984375,9.82942063473463,5.570219467946886,5.112892464065552
1772045490208347100,1.06134716796875,10.39677160938978,5.480094375863671,5.373728343075514
1772045490218333000,1.0713330078125,10.908017834985255,5.447061874833703,5.353991961470246
1772045490228319000,1.081319091796875,11.354344721424578,5.271641595041752,5.113198169013858
1772045490238305000,1.091304931640625,11.697032369691133,5.044027602154016,4.724249997092783
1772045490248291000,1.101291015625,11.807511683017015,4.790785831534862,4.239204088419676
1772045490258276900,1.11127685546875,11.658915697264671,4.4910716480761765,3.7596456712469455
1772045490268263200,1.12126318359375,11.259944436240195,4.3891035579860205,3.3597938279956576
1772045490278248200,1.131248291015625,10.709715276777743,4.4252790332168335,3.0648499276787042
1772045490288234000,1.14123388671875,10.135469281911849,4.446108470755815,2.7210315218165517
1772045490298220000,1.151219970703125,9.516921203982829,4.505570713549852,2.2978230606362224
1772045490308206000,1.1612060546875,8.617142109268903,4.588214509966969,1.8652748164415358
1772045490318192000,1.171192138671875,7.671466940298676,4.5994110267639154,1.4845628502070902
1772045490328178000,1.181177978515625,6.986440603333711,4.6204286803513765,1.1358119563788176
1772045490338164000,1.1911640625,6.6345619328737255,4.529622620266676,0.8287748826861381
1772045490348150000,1.20114990234375,6.489687013471126,4.291871848767996,0.6347822966322303
1772045490358136000,1.211135986328125,6.353836527523398,3.962302040749788,0.5455266808599233
1772045490368122000,1.2211220703125,6.003925357744097,3.623452947732806,0.43902562351524826
1772045490378107100,1.231107177734375,5.49374822268486,3.259213977393508,0.23982962359935045
1772045490388093000,1.241093017578125,4.751974162581563,2.5904817726254463,-0.40107174043506383
1772045490398079000,1.251078857421875,3.327206148123741,1.4014093507021665,-1.2562184972181916
1772045490408065000,1.26106494140625,0.9715583827674388,-0.3799824829161167,-2.032004424777627
1772045490418051000,1.271051025390625,-1.7809452588945627,-2.7207851458400487,-2.4093776019781825
1772045490428036900,1.281036865234375,-4.449201176074147,-5.205738505545258,-3.074958064717054
1772045490438023200,1.291023193359375,-7.659761889457702,-7.984872379979491,-4.073622773335874
1772045490448009000,1.301009033203125,-11.7523725641191,-10.74810199831724,-6.3590475401699535
1772045490457995000,1.3109951171875,-16.88479156643152,-10.992352653229236,-11.92922901419401
1772045490467980000,1.32097998046875,-23.14636774340868,-9.939874229097367,-18.211501942241192
1772045490477966000,1.330966064453125,-28.1420448638916,-9.292277751338482,-22.831149116826055
1772045490487952000,1.340951904296875,-29.70426144714355,-8.683632058742642,-25.23968792989254
1772045490497938000,1.35093798828125,-27.493202185463904,-8.062898453468083,-22.542972810947894
1772045490507924000,1.360924072265625,-22.84126368360519,-6.692028617936372,-16.54137326580286
1772045490517910000,1.370909912109375,-18.3105199503541,-5.681992328214645,-10.982630885159969
1772045490527895800,1.380895751953125,-15.431688853371142,-5.385152823409438,-7.431877847456931
1772045490537882000,1.390882080078125,-13.730160830062626,-4.689442010822892,-5.744732569766044
1772045490547868000,1.400867919921875,-11.996503976565599,-3.3165964913040398,-4.483754310800135
1772045490557854000,1.41085400390625,-9.001762773379683,-1.619260074466467,-2.7513401508405804
1772045490567839000,1.4208388671875,-4.992812378701568,-0.1562947235614061,-0.7169198970928787
1772045490577825000,1.430824951171875,-1.2331892115473746,1.1746505133390426,0.9358663071393966
1772045490587811000,1.44081103515625,1.5804291162908077,2.1877122883617877,2.090166106367111
1772045490597796900,1.450796875,3.373033248797059,2.995160305380821,2.952310174691677
1772045490607783200,1.460783203125,4.310682347699999,3.822025555053353,3.6815848187059164
1772045490617769000,1.47076904296875,4.820867081543803,4.671718138083815,4.4477951086685055
1772045490627755000,1.480755126953125,5.29031297776401,5.4115849032610654,5.424218174862862
1772045490637741000,1.490740966796875,5.945521684092283,6.133976217502355,6.3960787554472684
1772045490647727000,1.50072705078125,6.531413693088293,6.723524410918355,7.311486796447634
1772045490657713000,1.510712890625,6.980486078843474,7.011217901715636,8.040706495404242
1772045490667698000,1.520697998046875,7.353788061082363,7.096503737074136,8.46169786505699
1772045490677684000,1.53068408203125,7.813194209325313,6.922866833567619,8.740581441932916
1772045490687670000,1.540669921875,8.47879980650544,6.574674742665887,8.804717521756887
1772045490697655800,1.55065576171875,9.13302768510282,6.194730838194489,8.656002878060937
1772045490707642000,1.56064208984375,9.62529799207151,5.865526356357336,8.391095804089307
1772045490717628000,1.5706279296875,9.883167422491312,5.644204741612077,8.09591809501648
1772045490727614000,1.580614013671875,10.026167195671796,5.474459584847092,7.800635172003507
1772045490737600000,1.59060009765625,10.184728110599517,5.32528199981451,7.57647453444004
1772045490747586000,1.6005859375,10.210685558676719,5.336178656882048,7.272930563560128
1772045490757571800,1.61057177734375,9.96418800162077,5.368437250930071,6.925403074046969
1772045490767556900,1.620556884765625,9.42436157822907,5.4050955412417645,6.442815956702828
1772045490777543200,1.630543212890625,8.799212494599818,5.44908198248446,5.920175061389804
1772045490787529000,1.640529052734375,8.322242632615566,5.419496991559863,5.541839176636934
1772045490797515000,1.650514892578125,8.081305047774315,5.356706481125951,5.3505228240549565
1772045490807501000,1.6605009765625,7.913321639984845,5.428775107514858,5.249874584391713
1772045490817487000,1.670487060546875,7.723765282812714,5.375911532333493,5.159354355511069
1772045490827473000,1.680472900390625,7.505804084411263,5.252480967497825,5.029850023719668
1772045490837459200,1.690459228515625,7.192301029574871,5.16953555778563,4.811910452628135
1772045490847445000,1.700445068359375,6.805654997116327,5.028387549951672,4.629179557561874
1772045490857431000,1.71043115234375,6.29847938196063,4.94884990285635,4.4765556314677
1772045490867417000,1.7204169921875,5.756966612917185,4.940791684085131,4.264859923201799
1772045490877402000,1.730402099609375,5.076501300257444,4.587077614891529,3.771474348467588
1772045490887388000,1.740387939453125,4.388934046638012,3.830265560132265,2.6090064403533932
1772045490897374000,1.7503740234375,3.764950499656796,2.381646129965782,0.6403343778014182
1772045490907360000,1.760360107421875,2.9944302375406027,0.14153320775926112,-1.2238964825451373
1772045490917346000,1.770345947265625,1.7954104220986364,-2.4052058692514895,-1.9259645552039146
1772045490927331800,1.780331787109375,-0.8177022845298051,-4.9362102015137665,-1.3528314900159835
1772045490937318100,1.790318115234375,-5.3746869589746,-6.989217082309723,-2.1686948686808347
1772045490947304000,1.800303955078125,-9.938555547714232,-8.811951564663648,-7.968208829948305
1772045490957290000,1.8102900390625,-13.164653437447548,-9.65310311384201,-20.813704547798633
1772045490967276000,1.820276123046875,-16.68097112158537,-10.753402442812918,-36.802578371119495
1772045490977261000,1.830260986328125,-19.8666808868289,-13.1525047344923,-47.066230965352055
1772045490987247000,1.8402470703125,-20.534242294251918,-12.883394363611936,-47.096401647210115
1772045490997233000,1.85023291015625,-19.411086990350483,-10.25378118855953,-37.441082026362416
1772045491007219200,1.86021923828125,-17.487072400170565,-6.962958020937442,-24.450814849483965
1772045491017205000,1.870205078125,-15.933851608800888,-5.220293685120343,-13.688738101828097
1772045491027190300,1.880190185546875,-14.955693973898887,-4.8073675485014915,-7.231968438574671
1772045491037176300,1.89017626953125,-14.164139107060432,-4.569773136608302,-4.542006301021575
1772045491047162400,1.900162353515625,-13.405270704293251,-3.6371754758760333,-3.880859436815977
1772045491057148200,1.910148193359375,-11.60695871553421,-2.354480475142598,-3.306950711080432
1772045491067134500,1.920134521484375,-8.596807761770487,-1.4462366266831754,-2.0962223376661537
1772045491077119200,1.930119140625,-4.89056897880137,-0.6301110899507999,-0.703276863926649
1772045491087105300,1.940105224609375,-1.6991969500124453,0.25174481005966665,0.8265273960202932
1772045491097091000,1.950091064453125,0.24741174929141996,1.2957196097403765,2.357281504037976
1772045491107077400,1.960077392578125,1.0004682509094476,2.4373206709146498,3.7165982644200324
1772045491117063200,1.970063232421875,1.2223515911906957,3.6486645458787677,4.949858203116059
1772045491127049200,1.98004931640625,1.4527958390682936,4.84812041465044,6.0109121478915215
1772045491137035300,1.99003515625,1.868838646402955,5.8455006364166735,7.0430690840065475
1772045491147021300,2.000021240234375,2.394706687068939,6.624708062857389,8.014511731439828
1772045491157007000,2.010007080078125,3.0424440346032378,7.227045010697841,8.910955544251204
1772045491166993400,2.019993408203125,3.7607574318811294,7.562967987135052,9.80422248059213
1772045491176979200,2.029979248046875,4.734032263177633,7.791556962534785,10.646776297783852
1772045491186964200,2.039964111328125,6.047780281561613,7.905771370735764,11.391526158827542
1772045491196950300,2.0499501953125,7.34569769360721,7.904274410176277,11.93635316698551
1772045491206936300,2.059936279296875,8.42115191965699,7.869142306518555,12.211532044124603
1772045491216922400,2.06992236328125,9.153663061374425,7.978410490489005,12.340548884660004
1772045491226908200,2.079908203125,9.499380286595224,8.078601634034515,12.351489965391158
1772045491236894500,2.08989453125,9.27264190749824,8.163436218494176,12.10991408264637
1772045491246880300,2.09988037109375,8.465601302236317,8.274071599164605,11.605125654888152
1772045491256866300,2.1098662109375,7.425927999141812,8.42102332484126,10.98296289359331
1772045491266852400,2.119852294921875,6.322353009501099,8.593675308963656,10.171735358035564
1772045491276838400,2.12983837890625,5.337040826669335,8.62395529641509,9.319434053811431
1772045491286824200,2.13982421875,4.480952989643812,8.499050567373633,8.58545985380411
1772045491296810500,2.149810546875,3.831554138638079,8.289229420807958,8.089758403342962
1772045491306795300,2.159795166015625,3.687639004178345,7.999445679733157,7.8947841127753255
1772045491316781300,2.16978125,4.091216005432606,7.7145970569729805,8.05628517280817
1772045491326767000,2.17976708984375,4.835432197991013,7.464746097835898,8.303291848430037
1772045491336753400,2.18975341796875,5.549885704970359,7.254391282784939,8.566011641490459
1772045491346739200,2.1997392578125,6.014572423964738,7.115288517042994,8.729599444669484
1772045491356725200,2.209725341796875,6.329352074608207,6.781407860088348,8.705403745567798
1772045491366711300,2.219711181640625,6.733924224379658,6.143156718301773,8.139491279283165
1772045491376697300,2.229697265625,7.14541652880311,5.258628968733549,6.632352440130711
1772045491386683100,2.23968310546875,7.184024784138798,4.041306603881717,4.435696382334828
1772045491396669400,2.24966943359375,6.687410895007848,2.5349942786812782,2.901972318595648
1772045491406655200,2.2596552734375,5.617164758995175,1.2157570152312516,2.450722588801384
1772045491416641300,2.269641357421875,3.7689556436449285,-0.3993284038990736,2.969849923035502
1772045491426626300,2.279626220703125,1.3966273771226405,-3.127796505457163,3.5754601934581993
1772045491436612400,2.2896123046875,-1.7128893752783536,-6.637136167275905,1.9181126726597546
1772045491446598400,2.299598388671875,-6.032843993714452,-9.634019643187523,-4.521285584554076
1772045491456584200,2.309584228515625,-11.060206292271614,-11.464572690337896,-17.06344717488289
1772045491466570500,2.319570556640625,-15.72511650390625,-11.944889524662495,-34.275519561612604
1772045491476556300,2.329556396484375,-20.148953521621227,-13.087089720773696,-49.68507140197754
1772045491486542300,2.339542236328125,-22.68431020387411,-14.106727367055415,-55.87745421574115
1772045491496528400,2.3495283203125,-21.959301985132694,-13.1388175699234,-51.73855291454792
1772045491506514400,2.359514404296875,-19.600845007574556,-11.388948417294024,-39.91278661291599
1772045491516500200,2.369500244140625,-17.092734059643746,-7.773101852911711,-27.62034738690853
1772045491526486300,2.379486328125,-16.03903281571865,-5.753735375910997,-17.747279333627223
1772045491536471300,2.38947119140625,-15.733268246179819,-4.730164774094522,-11.422691696941852
1772045491546457300,2.399457275390625,-14.634355403131245,-3.9776168065205213,-7.499366744840144
1772045491556443100,2.409443115234375,-11.835972053825854,-3.0238521468579767,-4.555824398493766
1772045491566429400,2.419429443359375,-8.16381908033192,-1.8751205031514167,-2.3304554564327
1772045491576415200,2.429415283203125,-4.426454798997939,-0.9046037383913993,-0.6944312941700219
1772045491586401300,2.4394013671875,-1.5254603855237363,0.1789519610494375,0.5266261655569077
1772045491596387300,2.44938720703125,0.06347820043712854,1.1013087982743979,1.5463532436877487
1772045491606373400,2.459373291015625,0.5627686153009533,2.0982985594183203,2.46887666965127
1772045491616359200,2.469359130859375,0.665139440973103,3.247939719185233,3.4860002872854468
1772045491626345500,2.479345458984375,0.7597042690694331,4.4619332318753,4.665165063178539
1772045491636331300,2.489331298828125,0.8441039692431688,5.5531490906804795,5.875658458793163
1772045491646317300,2.4993173828125,1.0569091000556945,6.7341808294892305,6.938916635614633
1772045491656303400,2.509303466796875,1.3469678586795926,7.617421461856365,7.8353955197393885
1772045491666289400,2.519289306640625,1.8231465702861547,8.183435050427914,8.558647834724187
1772045491676274200,2.529274169921875,2.541174428620934,8.702831849253178,8.968917903876305
1772045491686260200,2.53926025390625,3.4059871316328643,9.215060656145214,9.131469934266805
1772045491696246300,2.549246337890625,4.4008419265747065,9.654133625933527,9.388528048303723
1772045491706232300,2.559232421875,5.783182419669628,10.082488217830658,10.065684382545948
1772045491716218000,2.569218017578125,7.44463796030879,10.444468595588207,11.09486376415491
1772045491726204400,2.579204345703125,8.934179183450341,10.796168402349949,12.248698283958435
1772045491736190200,2.589190185546875,9.976991369092463,11.065929930615425,13.346575354218482
1772045491746176300,2.59917626953125,10.337211166918276,11.189931573337315,13.965343212378023
1772045491756162300,2.609162353515625,9.61352747477889,11.246872188699244,13.882375006312131
1772045491766148400,2.6191484375,8.148927216148376,11.26351703402996,13.299420804333685
1772045491776134100,2.629134033203125,6.401198582679033,10.943114867329596,12.049025606441496
1772045491786120400,2.639120361328125,4.731971238994598,10.957439160758256,10.908751994478703
1772045491796106200,2.649106201171875,4.061089747238159,11.587661309868096,10.207248569965362
1772045491806092300,2.65909228515625,3.7453766151368617,10.622520977449417,9.04701236642599
1772045491816078000,2.669078125,4.017639897090197,9.620197454062104,8.522322721889614
1772045491826063400,2.6790634765625,4.796134206825495,9.468396534788608,8.06430481313467
1772045491836049400,2.68904931640625,5.043080092170834,9.011824148666857,7.869116587555408
1772045491846035200,2.69903515625,4.952256496429443,8.738716232582926,7.856723554450273
1772045491856021500,2.709021484375,4.732223167929053,8.559398360830546,7.686553450271487
1772045491866007300,2.71900732421875,4.28753703443408,8.107165465217829,7.30356886292994
1772045491875993300,2.728993408203125,4.028765102216601,7.531331324377655,6.598095365741848
1772045491885979400,2.7389794921875,4.159719632816315,6.828805571079254,5.986561550489068
1772045491895965400,2.74896533203125,4.323164228132367,6.032707215592265,5.214493474408984
1772045491905951200,2.758951171875,4.566051777997613,5.059190099972486,4.418771551018953
1772045491915937300,2.768937255859375,4.51320281586349,3.6558097414582966,3.1027368830025193
1772045491925923300,2.77892333984375,3.6033038936734196,1.2250175955295561,1.1104863764643669
1772045491935909400,2.788909423828125,1.888165278163552,-2.3211294096827504,-0.8750655092179774
1772045491945895200,2.798895263671875,-1.559081792357564,-5.523761668154597,-3.8938393298983573
1772045491955881500,2.808881591796875,-7.160562660008669,-8.54790198430419,-9.37426571419537
1772045491965867300,2.8188671875,-13.767371493560075,-11.306472378659247,-19.860452221572398
1772045491975852300,2.828852294921875,-20.057938787221907,-13.13458329335451,-34.79753735659122
1772045491985838300,2.83883837890625,-24.61154667870998,-15.794072551232576,-47.8607224701643
1772045491995824400,2.848824462890625,-25.722453910934924,-17.59675676372647,-52.89922634046077
1772045492005810200,2.85881005859375,-22.626599188661572,-16.72304150007367,-47.0529833612442
1772045492015796200,2.868796142578125,-18.903335036611555,-14.357708207005262,-35.38825284022093
1772045492025782300,2.8787822265625,-16.478437793940305,-12.574444149774312,-23.876732520747183
1772045492035768300,2.888768310546875,-15.18678002681136,-11.614071177887915,-15.6474732922554
1772045492045754000,2.898754150390625,-14.56653683540225,-10.440935745286941,-11.38431432775259
1772045492055740400,2.908740478515625,-13.750108224070072,-8.746256564959884,-8.938238103452324
1772045492065726200,2.918726318359375,-11.786215212488173,-6.558519142156839,-6.993332116413116
1772045492075712300,2.928712158203125,-8.63449305704236,-4.388834677916765,-5.034881003624201
1772045492085698300,2.9386982421875,-5.150310632833838,-2.655870482859015,-3.1674002015709877
1772045492095684400,2.948684326171875,-2.355343813973665,-1.009148985493183,-1.8221908769965172
1772045492105670100,2.958670166015625,-0.5303396331220865,0.5577636466205119,-1.0575187563866377
1772045492115655200,2.9686552734375,0.29129414563775063,2.1668676532536746,-0.29675533365309237
1772045492125641500,2.978641357421875,0.42712358879745005,4.054048596554995,0.836755360046029
1772045492135627300,2.988627197265625,0.16086217760741708,6.099025900152325,2.169913596820831
1772045492145613300,2.99861328125,-0.023289105650782585,7.879954207912087,3.4743016661852595
1772045492155599400,3.008599365234375,0.1133791264206171,9.411988418868184,4.748936986842751
1772045492165585200,3.018585205078125,0.7457447172999382,10.715151330351828,5.8607619184345
1772045492175571200,3.0285712890625,1.7550620450973509,11.951610357350111,6.735065211108327
1772045492185557200,3.03855712890625,2.8494097721874714,12.92124683214426,7.650203202995657
1772045492195543300,3.048543212890625,3.845692261844873,13.658027321743964,8.479484866160155
1772045492205529000,3.058529052734375,4.460762142269313,14.263748651325702,8.999168665233254
1772045492215515400,3.068515380859375,4.606980292974412,14.627613527655601,9.305787221252917
1772045492225501200,3.078501220703125,4.351004421216249,14.773367567980289,9.611913025319575
1772045492235487200,3.0884873046875,3.9995428071245547,14.729598568880558,9.914311917817592
1772045492245473000,3.09847314453125,3.9990959401398896,14.620447289288043,10.236395169472694
1772045492255459300,3.108459228515625,4.347036686629057,14.469308633315562,10.759705926871298
1772045492265445000,3.118445068359375,4.782132277218997,14.437669632470607,11.38631105452776
1772045492275431200,3.12843115234375,5.031744459164142,14.451303021025657,11.825165413129328
1772045492285416400,3.13841650390625,5.143178296735883,14.37043207949996,11.855763965010642
1772045492295402200,3.14840234375,5.225267381879687,14.201970532804726,11.554352914506197
1772045492305388300,3.15838818359375,5.156702379697561,13.98385268253684,10.80660796329975
1772045492315374300,3.168374267578125,4.858274436657131,13.635298772585392,9.930934551316499
1772045492325360400,3.1783603515625,4.574151205562055,13.29365157328248,9.133646693783998
1772045492335346200,3.18834619140625,4.363313867691159,12.96686525850296,8.216983099764585
1772045492345332200,3.198332275390625,4.029202324590087,12.586666502487658,7.317357734307646
1772045492355318300,3.208318359375,3.9124668734788894,12.061803254950046,6.598961042660474
1772045492365304300,3.21830419921875,4.156945491927862,11.527812113583087,5.972043195793033
1772045492375290000,3.2282900390625,4.387808257478476,11.04576158733368,5.323507391357421
1772045492385276400,3.2382763671875,4.473212166258692,10.189745646500587,4.981257549986243
1772045492395262200,3.24826220703125,4.601453638507426,9.293086729633808,4.784059153628349
1772045492405248300,3.258248291015625,4.6822097214818,8.206776763048767,4.346556794157624
1772045492415234300,3.268234375,4.455718595144153,6.344541460433602,3.3248493558645245
1772045492425220400,3.278220458984375,4.051639781847596,3.876724528968334,1.2535586303591728
1772045492435206100,3.2882060546875,3.0753251444637772,0.8246300379663706,-1.5454641858935356
1772045492445191200,3.298191162109375,0.7832359513044357,-2.9515070416152476,-4.140949465894699
1772045492455177200,3.30817724609375,-2.571991883949935,-6.8801102263808245,-7.8556696614831685
1772045492465163300,3.318163330078125,-6.054419281184673,-10.628203699260949,-13.880428548419475
1772045492475149000,3.328149169921875,-8.242136245721579,-13.741398847913741,-21.930379842031
1772045492485135400,3.33813525390625,-10.38026821835637,-16.493940483498573,-31.350256383800506
1772045492495121200,3.34812109375,-13.333745098739861,-19.10273181979656,-38.97061682171822
1772045492505107200,3.358107177734375,-16.744880406916142,-19.882551825177668,-43.36676854465008
1772045492515093200,3.36809326171875,-20.35800894451141,-18.81160484741926,-43.371033216357226
1772045492525079300,3.378079345703125,-23.551626121878623,-16.953304546165466,-38.74644098658562
1772045492535065000,3.388065185546875,-25.07213122308254,-14.876672459632157,-31.85631906927824
1772045492545051400,3.398051513671875,-23.514417796468734,-12.928235375857353,-24.63292615134716
1772045492555037200,3.408037109375,-18.78508158215284,-10.839307286852598,-17.460066319823262
1772045492565023200,3.418023193359375,-12.309531815105675,-8.165361633598804,-10.894882459080218
1772045492575009300,3.42800927734375,-6.04694558430314,-5.486849110820889,-5.267728805512189
1772045492584995300,3.437995361328125,-1.1709554582133888,-3.098275227418542,-1.1020885504752398
1772045492594981000,3.447981201171875,2.0513363172352315,-0.8572674021989106,1.1063467924416064
1772045492604966100,3.457966064453125,3.506809851080179,1.2310709042191506,1.8765584270000457
1772045492614952400,3.467952392578125,3.6339515453934665,3.2934862493515014,2.0886247221440075
1772045492624938200,3.477938232421875,3.2042905470728873,5.3917105744898315,2.6016040551424027
1772045492634924300,3.48792431640625,2.5863179309442637,7.509179113802313,3.5274522416144607
1772045492644910300,3.497910400390625,2.0000524124607444,9.499336447453498,4.600744905716181
1772045492654896400,3.507896484375,1.6052978923484682,11.210533631861209,5.608413297262787
1772045492664882200,3.517882080078125,1.4977046558529137,12.414362308889627,6.6695040669173
1772045492674868200,3.5278681640625,1.6674559500977395,13.111370760071276,7.7009204137980936
1772045492684854300,3.537854248046875,2.185779274472594,13.52157185564041,8.70672534956038
1772045492694840300,3.54784033203125,2.930170823597908,13.693759144860506,9.516315054783224
1772045492704826400,3.557826416015625,3.7807857821702955,13.84283911473751,10.004553914278745
1772045492714812200,3.567812255859375,4.628639459335804,13.852366821539402,10.369607708132266
1772045492724798200,3.577798095703125,5.271614122512936,13.79185010125637,10.671522616505623
1772045492734784300,3.5877841796875,5.804785179668665,13.707667258703708,10.790286943095921
1772045492744770300,3.597770263671875,6.19381547691524,13.624439524918794,10.54056750138402
1772045492754755300,3.60775537109375,6.318206995737552,13.465290580970048,10.114807602155208
1772045492764741000,3.6177412109375,6.226644564327597,13.248839787131548,9.573158639511465
1772045492774727400,3.6277275390625,6.106823422160744,13.107138821589945,8.822488156247138
1772045492784713200,3.637713134765625,5.992781447917222,12.947553824311495,7.948343853527307
1772045492794699300,3.64769921875,5.932427224719524,12.664147217053173,7.142737080460787
1772045492804685300,3.657685302734375,6.0220917135536665,12.34773499677181,6.4546396654874085
1772045492814671400,3.66767138671875,6.074689331275224,11.943428219938278,6.034086687251925
1772045492824657200,3.6776572265625,6.064296532076597,11.579034935820102,6.036320145392417
1772045492834643500,3.6876435546875,6.079514559474587,11.393453912019728,6.250230022576451
1772045492844629200,3.697629150390625,6.139874627891182,11.154232483446597,6.296616510698199
1772045492854615300,3.707615234375,6.1626663054138415,10.800203941476344,6.204806242007017
1772045492864601300,3.717601318359375,6.039120005244016,10.177987404167652,6.079417528840899
1772045492874587400,3.72758740234375,5.769149218142032,9.308395357924699,5.673480520457029
1772045492884573200,3.7375732421875,5.48707181366086,7.925927439057826,4.772039630010724
1772045492894559200,3.747559326171875,4.924527362504601,6.079809158506989,3.5503339355081316
1772045492904545300,3.757545166015625,3.8890141016989945,3.7694098171532153,1.3470008841663599
1772045492914530300,3.7675302734375,2.229752856233716,-0.015635376027226446,-1.3830793287634848
1772045492924516000,3.77751611328125,0.31103111176490783,-4.46902055978775,-3.122303168737888
1772045492934502400,3.78750244140625,-2.1904899363815784,-8.241323175773024,-5.957447684207558
1772045492944488200,3.79748828125,-5.758470003217458,-12.299544674098492,-12.763285636675358
1772045492954474200,3.80747412109375,-9.457825456413627,-15.776629249000548,-23.31106496913433
1772045492964460300,3.817460205078125,-12.740765177309513,-18.115532800304887,-34.60599420951605
1772045492974446300,3.8274462890625,-15.197977128130196,-20.194162782657145,-42.12563217349052
1772045492984432000,3.83743212890625,-16.670568970036506,-19.988848299860955,-43.62314919781684
1772045492994418200,3.847418212890625,-17.463178314363955,-18.46714025260806,-39.42058177239895
1772045493004404200,3.857404296875,-17.74674391157627,-16.672430087733268,-32.740431808304784
1772045493014390300,3.867390380859375,-17.90476355923414,-14.608501999950407,-26.026814458894727
1772045493024375800,3.877375732421875,-18.295881184148787,-12.715595664739608,-19.909528679430483
1772045493034362000,3.887362060546875,-17.66997982084751,-10.503456206607819,-14.529639475637673
1772045493044348000,3.897347900390625,-15.529957504421471,-7.722334957748651,-9.986223307818173
1772045493054333000,3.9073330078125,-11.784583227372169,-4.847960255652666,-5.844059205436706
1772045493064319000,3.917319091796875,-7.187497428685426,-2.299778578618169,-2.0929536912590265
1772045493074305000,3.927304931640625,-2.9078602075904607,-0.11312310583293438,0.6715846715897321
1772045493084291000,3.937291015625,0.23889468083679674,1.7468343149781227,2.4624282241642472
1772045493094276900,3.94727685546875,1.9960633428245782,3.346786462384462,3.444503324770927
1772045493104263200,3.95726318359375,2.5295193544015286,4.876689506530761,3.834074304765463
1772045493114249000,3.9672490234375,2.2428856017902494,6.422604943323135,3.88896617090404
1772045493124235000,3.977235107421875,1.6682202124685048,8.036045517855882,3.884078398862481
1772045493134221000,3.987220947265625,1.196369593194127,9.699500707879661,4.066459749838709
1772045493144207000,3.99720703125,0.9516776242554187,11.069846227276324,4.646831534108519
1772045493154193000,4.00719287109375,0.9407602166607976,12.18462650154233,5.3780695871502155
1772045493164179200,4.01717919921875,1.059140512369573,12.968681952536105,6.167439511165022
1772045493174165000,4.0271650390625,1.3431018309012055,13.532988737189768,7.0579363982707255
1772045493184150000,4.03714990234375,1.9068705631554126,13.943175804233551,7.956114487528801
1772045493194135800,4.0471357421875,2.5601561924666165,14.32404559137821,8.76927503697574
1772045493204122000,4.0571220703125,3.2447447225362063,14.579455938208103,9.594144144394994
1772045493214108000,4.06710791015625,3.833859200710058,14.737695366096496,10.207186610645055
1772045493224094000,4.077093994140625,4.165874063792825,14.802652114653586,10.530825859570502
1772045493234080000,4.087080078125,4.228741731116175,14.7644688067317,10.52161730172038
1772045493244066000,4.097066162109375,4.188923515468836,14.564429049468039,10.254991148871182
1772045493254051800,4.1070517578125,4.213941636869311,14.34967220006585,9.8924402777493
1772045493264038100,4.1170380859375,4.420876414343715,14.11527775325775,9.51755482571125
1772045493274024000,4.12702392578125,4.729107081735134,13.860765232050419,8.922843550443648
1772045493284010000,4.137010009765625,5.065130011415481,13.446011880004406,8.22920662152171
1772045493293996000,4.14699609375,5.389313450220227,12.99995153554678,7.640769019696116
1772045493303982000,4.156982177734375,5.610654938709736,12.703804689180851,7.031316686892509
1772045493313967900,4.1669677734375,5.575147571998834,12.326278367245196,6.6089177885293955
1772045493323953000,4.176952880859375,5.30454316316843,11.957325812387467,6.4079521485924715
1772045493333939200,4.186939208984375,5.072642286741734,11.63780744278431,6.2790639028728
1772045493343925000,4.196925048828125,5.050751941972971,11.261143875157833,5.9161541353106495
1772045493353911000,4.2069111328125,5.266278022181988,10.740229657506942,4.913793787044287
1772045493363897000,4.21689697265625,5.7137266061276195,9.841810160708427,3.439494556698203
1772045493373883100,4.226883056640625,6.114637895303964,8.406647008964418,1.779161298087239
1772045493383869000,4.236868896484375,6.094849491250515,6.476236580267548,0.6035878246843814
1772045493393855000,4.24685498046875,5.30640778799653,4.255013651970029,0.6395289066374301
1772045493403841000,4.256841064453125,3.9364766946196554,1.5134072518974542,2.2131366524755953
1772045493413826800,4.266826904296875,2.1514760228544474,-2.0660043095350265,4.59544855287373
1772045493423813000,4.276813232421875,-0.8684136501133441,-6.4434209368586535,4.738969135057926
1772045493433799000,4.286798828125,-5.045566648289561,-10.633290208745002,-1.5520137536674736
1772045493443785000,4.296784912109375,-9.712738375115395,-12.64972121681571,-17.016937937164304
1772045493453770000,4.30677001953125,-15.621360361355542,-15.361367362910508,-37.645140956139564
1772045493463756000,4.316756103515625,-21.130468650257587,-18.36068478797078,-52.312674990773196
1772045493473742000,4.3267421875,-22.529012090134618,-18.363012354135513,-53.26312161192894
1772045493483728000,4.336727783203125,-21.0390611171484,-18.15092793881297,-43.51196845822334
1772045493493714200,4.346714111328125,-18.510655569207668,-17.47448998197317,-31.26501906375885
1772045493503700000,4.356699951171875,-16.960951261526347,-16.292607763814924,-22.3064752543807
1772045493513686000,4.36668603515625,-16.996474994850157,-15.621263330721854,-16.996669056117533
1772045493523672000,4.376672119140625,-16.60957761797905,-13.399086462700366,-14.743361721295118
1772045493533658000,4.386658203125,-14.850695137810707,-10.329849698239565,-12.815581641101836
1772045493543644000,4.396643798828125,-11.226332089495658,-7.376698396548629,-9.824576117312908
1772045493553630200,4.406630126953125,-6.71243661519289,-4.99062568231225,-6.6861752157330505
1772045493563616000,4.416615966796875,-2.8268355368077756,-3.2702789767652747,-4.5363165649473665
1772045493573601000,4.42660107421875,-0.2733843949377537,-1.8485802867501973,-3.551644433584809
1772045493583586800,4.4365869140625,0.9374532840698957,-0.21714403679966926,-2.9506039552956818
1772045493593573000,4.446572998046875,1.4324766891390084,1.670351379278302,-2.210961062002182
1772045493603559000,4.456558837890625,1.6257091044753789,3.763801914143562,-1.3719927020817995
1772045493613545000,4.466544921875,1.5377841527849434,5.911551609951258,-0.6304787542194128
1772045493623531000,4.476531005859375,1.5704717858999966,8.027419728329777,0.16727905891239642
1772045493633517000,4.48651708984375,1.6711083351254463,10.259038378435372,1.0820873804539441
1772045493643502800,4.4965029296875,1.5184388163238762,12.35499242055416,2.3295225594967603
1772045493653489200,4.5064892578125,1.4747656788140535,14.00416481820345,3.600418693625927
1772045493663475000,4.516474853515625,2.2269302000284195,15.59143167155981,4.984650699555874
1772045493673461000,4.5264609375,3.4267905579477547,16.73733306027651,6.7383385336905715
1772045493683447000,4.536447021484375,4.725586506393552,17.21413691804409,8.523052205207943
1772045493693433000,4.54643310546875,6.035787061429024,17.461389677381515,9.78760744587779
1772045493703418000,4.556418212890625,6.957545348238945,17.439899145585297,10.49444287906885
1772045493713404000,4.56640380859375,7.430448106914758,17.17765223073363,10.598849009960889
1772045493723390200,4.57639013671875,7.529871188697219,16.938251938462255,10.183460867142676
1772045493733376000,4.5863759765625,7.312731828072667,16.62498093881607,9.427781031283736
1772045493743362000,4.596362060546875,6.906646935650706,16.255585316365956,8.467396953481435
1772045493753348000,4.60634814453125,6.54732671701312,15.99151118608713,7.551337170574069
1772045493763334100,4.616334228515625,6.3570864692300555,15.675565414273738,6.849926685041189
1772045493773320000,4.62631982421875,6.354185487091541,15.257555106258392,6.297549407634139
1772045493783306200,4.63630615234375,6.420168656086921,14.893278726518153,5.771854969969391
1772045493793292000,4.6462919921875,6.500830923298001,14.407089785289763,5.408217472654581
1772045493803278000,4.656278076171875,6.622156624808907,13.936804515635966,5.10660885375142
1772045493813262800,4.666262939453125,6.646949120759964,13.49068805707693,4.813557343052327
1772045493823249200,4.676249267578125,6.492056080690026,13.183828093516826,4.502094269610941
1772045493833235000,4.68623486328125,6.4563564062774175,13.163422434347867,4.123002305793762
1772045493843221000,4.696220947265625,6.32936493408978,13.061490000092983,3.757751820324361
1772045493853207000,4.70620703125,6.176166422978043,12.787789963334799,3.4876644211053844
1772045493863193000,4.716193115234375,6.268717280903458,12.429834603309631,3.320859701706469
1772045493873179000,4.726178955078125,6.4835448574543,11.564426564753054,3.54569341622591
1772045493883165200,4.736165283203125,6.866290375342965,10.428688842654228,4.087953204244375
1772045493893151000,4.74615087890625,7.467754632002115,8.758821447500585,4.801904314659535
1772045493903137000,4.756136962890625,7.794501783815026,5.787483331733942,5.754347370329499
1772045493913122800,4.766122802734375,7.713622074460983,1.7367571575999259,6.944798094868659
1772045493923109000,4.776109130859375,6.099118839132785,-2.952772531506419,6.567362373825907
1772045493933094100,4.78609423828125,1.1359680237233638,-7.247889645805954,1.6582947385206817
1772045493943080000,4.796079833984375,-7.215090369009971,-9.984286202275753,-9.724765497517586
1772045493953066000,4.80606591796875,-17.58239973707199,-12.220419114935398,-27.79082670316696
1772045493963052000,4.816052001953125,-27.430980999350545,-15.940614527064561,-43.573544332170485
1772045493973038000,4.8260380859375,-31.73473617813587,-18.031053020632267,-47.86071779398918
1772045493983024000,4.836024169921875,-30.634846014487742,-19.15366705726385,-39.899931807518
1772045493993010000,4.846010009765625,-26.919928835022446,-19.783713849806784,-28.00451855368614
1772045494002996000,4.855995849609375,-24.16656185452938,-20.28163765249252,-19.942418557119368
1772045494012982000,4.86598193359375,-23.647782310819625,-20.54166338416338,-16.405983967626092
1772045494022968300,4.87596826171875,-22.645869706320763,-19.183454292762278,-14.94414615944624
1772045494032954000,4.8859541015625,-19.364405903196335,-15.886525209480522,-13.558443496441841
1772045494042939100,4.895939208984375,-14.408032034575939,-12.271892112541199,-11.387307079827785
1772045494052925400,4.905925537109375,-8.718970498627424,-10.109683683270216,-9.726184716665744
1772045494062911200,4.9159111328125,-4.343232618170976,-9.024189124721287,-9.342309902486205
1772045494072897300,4.925897216796875,-2.5007541554272175,-8.132631914907693,-8.6047075751096
1772045494082883300,4.93588330078125,-2.9541338829874992,-6.367138492166996,-7.204606968918442
1772045494092869400,4.945869384765625,-4.451528742238879,-3.6943636362582444,-5.918025189879536
1772045494102855200,4.955855224609375,-5.547489165222644,-0.7828881607800722,-4.371258104693889
1772045494112841500,4.965841552734375,-5.724720878350734,1.9185826282590626,-2.364107550665736
1772045494122827300,4.9758271484375,-4.6380759807229035,4.317549310860038,-0.4158160128414631
1772045494132813300,4.985813232421875,-2.8233669839143753,6.447170644780993,1.1639730519801377
1772045494142799400,4.99579931640625,-0.7593067941844462,8.276817098480462,2.472247899650037
1772045494152785400,5.005785400390625,1.2693430594682693,9.788107796615362,3.5049876040890813
1772045494162770200,5.015770263671875,2.9390193159639835,10.965732357329129,4.186900192947686
1772045494172756200,5.025756103515625,4.005362599319219,11.862974627041815,4.393799606847763
1772045494182742300,5.0357421875,4.581577263909578,12.631157970643043,4.265190762591362
1772045494192728300,5.045728271484375,4.897627080619335,13.267529290032385,4.263736764390766
1772045494202714000,5.055714111328125,5.301785388892888,13.767260434401035,4.578899569132924
1772045494212700400,5.065700439453125,5.961337677383423,14.379673370575905,5.066936768576502
1772045494222686200,5.075686279296875,6.815389040145278,14.883694905614853,5.656666748300195
1772045494232672300,5.08567236328125,7.811101620960235,15.146096134245395,6.287095233637094
1772045494242658300,5.095658203125,8.898363189181685,15.292330651563406,6.965331764331459
1772045494252644400,5.105644287109375,9.865950914752483,15.387377417957781,7.667680407497286
1772045494262630100,5.115630126953125,10.433788211619854,15.403134959059953,8.04835788694024
1772045494272616400,5.125616455078125,10.565572178781032,15.340656583315132,7.974548554363846
1772045494282601500,5.1356015625,10.336243198668956,15.254519099563359,7.459062791502475
1772045494292587300,5.145587158203125,10.015067124986649,15.200195973223448,6.794022426989674
1772045494302573300,5.1555732421875,9.797563022702931,15.193919377171992,6.292815364849567
1772045494312559400,5.165559326171875,9.708988082671166,14.948205079448222,5.988326222074032
1772045494322545400,5.17554541015625,9.897949981081485,14.477152917075156,5.753184171769022
1772045494332531200,5.18553125,10.270138449120521,13.99604697819948,5.544190123677254
1772045494342517200,5.195517333984375,10.526722515904902,13.481383637636899,5.246231259453296
1772045494352503300,5.20550341796875,10.64994674451351,12.87805300258398,4.915861240968108
1772045494362489300,5.2154892578125,10.597959367644787,12.260123348814249,4.522784883201122
1772045494372475400,5.225475341796875,10.324292064112424,11.41135664845705,4.289481154239177
1772045494382461200,5.235461181640625,9.976430228078364,10.3654061647892,4.401719878453016
1772045494392447200,5.245447265625,9.604909284037351,9.466558797967433,4.681140046423673
1772045494402432300,5.255432373046875,8.874570810183883,8.059773599445819,5.201487862363457
1772045494412418300,5.265418212890625,7.743673513853549,5.306137738883495,5.743719008809328
1772045494422404400,5.275404296875,5.995691197884082,1.073544008514285,5.708936449241638
1772045494432390100,5.28539013671875,3.1414012524396178,-3.9014199942857024,4.412282773521542
1772045494442376400,5.29537646484375,-1.7471289140105246,-8.23540021546483,0.6602914164200425
1772045494452362200,5.3053623046875,-8.636989550033212,-11.227924327123164,-6.181645146650076
1772045494462348300,5.315348388671875,-16.49678009083867,-12.658034287130832,-15.648838735389708
1772045494472334300,5.325334228515625,-24.35749943692684,-13.370734812963008,-25.41287007536888
1772045494482320400,5.3353203125,-29.6421080655694,-14.279897822093963,-31.394217106080053
1772045494492305200,5.34530517578125,-30.803735431206224,-15.048582685476541,-31.701119155216215
1772045494502291200,5.355291259765625,-28.322676156330107,-15.793033271312712,-26.592012054908274
1772045494512277200,5.36527734375,-25.304972010707854,-15.658639998435973,-20.478387720561027
1772045494522263300,5.37526318359375,-23.91925765726566,-15.11550342758298,-15.322563292741775
1772045494532249000,5.3852490234375,-23.99678864071369,-14.031785815578699,-11.872344512933491
1772045494542235400,5.3952353515625,-24.10347089984417,-13.022341062009334,-10.035282230019568
1772045494552221200,5.40522119140625,-22.096952213978767,-11.915478721261024,-9.303105434823035
1772045494562207200,5.415207275390625,-18.175281458824873,-10.284756172537802,-8.889695314079523
1772045494572193300,5.425193359375,-13.965209941387176,-8.55769097239077,-8.852658838105201
1772045494582179300,5.435179443359375,-10.308571932411192,-7.1838488430500025,-9.030983022645115
1772045494592165000,5.4451650390625,-7.308339146071672,-5.6704696482032535,-8.18355370837152
1772045494602151400,5.4551513671875,-5.058218624591827,-3.4434026700526474,-6.304789880281686
1772045494612137200,5.46513720703125,-3.692819329425692,-1.0544248820245266,-4.323369687576592
1772045494622122200,5.475122314453125,-2.899063737672567,1.2150415604382752,-3.014360972674191
1772045494632108300,5.4851083984375,-2.1221090585947033,3.3338293656557796,-2.230186863736808
1772045494642094300,5.49509423828125,-0.988691888397932,5.38915972096324,-1.7260149604417383
1772045494652080400,5.505080322265625,0.4380313517808914,7.437114579066634,-1.257003948507458
1772045494662066200,5.515066162109375,2.233855615377426,9.37003377571404,-0.5938892913602292
1772045494672052500,5.525052490234375,4.465301831525564,11.066668766283989,0.337256563128531
1772045494682038300,5.535038330078125,6.736721161621809,12.464987749755382,1.4274375259280203
1772045494692024300,5.5450244140625,8.546816527155041,13.512719856142997,2.4397611959345635
1772045494702010400,5.55501025390625,9.813411749219894,14.196299501430987,3.1918779324844477
1772045494711996400,5.564996337890625,10.750774432396888,14.453380411821604,3.6459178775191305
1772045494721982200,5.574982177734375,11.629798323851823,14.558279879188536,3.7467663159295914
1772045494731968500,5.584968505859375,12.395925319445132,14.687136560726165,3.4590924066156146
1772045494741954300,5.594954345703125,13.010080130851268,14.708235462856292,3.11489610735178
1772045494751940400,5.6049404296875,13.54773739351034,14.564126267129183,2.9098969741150733
1772045494761925000,5.614925048828125,14.072131854492426,14.394202246665953,2.830042223894596
1772045494771911400,5.624911376953125,14.572897602605819,14.115906698811054,2.855674677801132
1772045494781897200,5.634897216796875,14.983257688128948,13.766198942649364,2.8478233797788617
1772045494791883300,5.64488330078125,15.168008690845966,13.45202777929306,2.656563433559239
1772045494801869300,5.654869384765625,14.959574030202626,13.091438563632964,2.505219318142533
1772045494811855400,5.66485546875,14.442057053774594,12.77560969619751,2.474941376517713
1772045494821841200,5.674841064453125,13.66862587264776,12.479939819693564,2.491056352755427
1772045494831827500,5.684827392578125,12.62487786746025,12.081515671157836,2.561762458619475
1772045494841813200,5.694813232421875,11.36364797182083,11.530910079598426,2.6639336700662968
1772045494851800300,5.70480029296875,10.237070876777171,10.828397770303487,2.702941738374531
1772045494861785300,5.714785400390625,9.382353159061074,10.01243210030794,2.3650195509441194
1772045494871771400,5.724771484375,8.421621290734409,8.934712851935625,1.5538009293451904
1772045494881757200,5.734757080078125,6.95449531301856,7.458982712003588,0.4446407599832862
1772045494891743200,5.7447431640625,5.245430464464426,5.695165113520622,-0.30122027717269956
1772045494901729300,5.754729248046875,3.8153105675846337,3.7409155440747734,-0.80781348933056
1772045494911715300,5.76471533203125,1.8247078282535074,1.5026795216560362,-1.1062295958027244
1772045494921701000,5.774701171875,-1.0162672930657863,-1.0560375779181719,-1.0355805538881568
1772045494931687400,5.7846875,-3.8829169538676735,-3.4782296532839534,-0.5606876443084329
1772045494941673200,5.794673095703125,-6.293932386180758,-5.445774173110723,-0.433629755821079
1772045494951659300,5.8046591796875,-8.741236106449366,-6.618190059265494,-1.4549609081476926
1772045494961645300,5.814645263671875,-11.121637204790115,-6.091120241594314,-3.3644156425774097
1772045494971631400,5.82463134765625,-13.449137903070449,-3.130694857247174,-6.024599896982312
1772045494981617200,5.8346171875,-16.388026286131144,-0.5773091818287969,-7.197777999681234
1772045494991603500,5.844603515625,-18.010827394205332,0.07375760238915681,-6.174947110316157
1772045495001589200,5.85458935546875,-17.34002189029455,0.8120116716727613,-5.1284337320685385
1772045495011575300,5.8645751953125,-15.517715277963875,0.8497977969706058,-3.370686977931857
1772045495021560300,5.874560302734375,-13.358053026044368,0.03564180674552917,-1.4986542116627097
1772045495031546400,5.88454638671875,-10.644356377160548,-0.651859834291786,-0.834718885782361
1772045495041532200,5.8945322265625,-8.058353795775771,-0.9897105639211833,-1.3933296507515012
1772045495051518200,5.904518310546875,-6.512649955907464,-1.3303088386930524,-2.0573400876946746
1772045495061504300,5.914504150390625,-6.48537148835957,-1.5515402909368277,-2.338857374075055
1772045495071490300,5.924490234375,-8.479807522243261,-1.5440864677995443,-2.866283165577054
1772045495081476000,5.93447607421875,-10.775173545116186,-1.620790937295556,-3.110249742850661
1772045495091462400,5.94446240234375,-11.336491084825992,-1.6035907961696385,-2.670813492707908
1772045495101448200,5.9544482421875,-10.112792170679569,-1.2005721594505012,-1.9498519190087913
1772045495111434200,5.964434326171875,-7.915573802825808,-0.6680982177134603,-1.117362034387514
1772045495121420000,5.974419921875,-5.414792759391665,-0.589849587515369,-0.4731119444470852
1772045495131406300,5.98440625,-3.339776291361451,-0.608350289845839,-0.3638466100208461
1772045495141392100,5.99439208984375,-2.123606019154191,-0.7706675616323947,-0.537516977405548
1772045495151378200,6.004378173828125,-1.6191653819203375,-1.1442231533061713,-0.44667160822376606
1772045495161364200,6.0143642578125,-1.5851520531594752,-1.5163780844017862,-0.03119841747060418
1772045495171350300,6.024350341796875,-1.539336642923951,-1.4963403817623853,0.4609412488557398
1772045495181336000,6.034336181640625,-1.0121575196594,-1.378172267499566,0.9439215302359312
1772045495191321300,6.0443212890625,0.2549889065474272,-1.3200399581350386,1.3807859571292995
1772045495201307400,6.054307373046875,2.0200445223927495,-1.2967074517339467,1.5874793270632623
1772045495211293200,6.064293212890625,3.6797190248340366,-1.2215092951476574,1.7661486717790364
1772045495221279200,6.074279296875,4.895428693792224,-1.0318703011933714,2.0835963725879787
1772045495231265300,6.084265380859375,5.347943913477659,-0.7991936911538243,2.681315305238962
1772045495241251300,6.094251220703125,4.695376077046991,-0.6253876416254788,3.3455928686857224
1772045495251237000,6.104237060546875,3.4131980859249826,-0.26080321884937585,3.36504867978394
1772045495261223400,6.114223388671875,1.8169693429559468,0.04100618332289159,2.710268428000808
1772045495271209200,6.124209228515625,0.3019125702857971,-0.07281330727636813,2.1849787717446683
1772045495281195300,6.1341953125,-0.2527051795244217,-0.17879428626969457,1.6236457422047852
1772045495291181300,6.144181396484375,0.006935352221131325,-0.10805610476695,1.198955371903628
1772045495301167400,6.15416748046875,0.5528589234441519,-0.06287526610791683,1.3775073738500474
1772045495311153200,6.164153076171875,0.6367921751499176,0.1256726446740329,1.950555683363974
1772045495321139500,6.174139404296875,0.3828840495765209,0.18093918934389946,2.7028072983399034
1772045495331125200,6.184125244140625,1.14354693454504,0.22794885086528954,2.9127921110346913
1772045495341111300,6.194111328125,0.6556529429644345,0.9130616240046918,2.8892554603636262
1772045495351097300,6.204097412109375,-0.8398720307618379,0.21138985718712208,3.5832851879954335
1772045495361083400,6.21408349609375,-1.9152672201007603,-0.21375570953562856,3.040297085702419
1772045495371068200,6.224068115234375,-2.602811677366495,-0.5578615540370345,2.334268000458181
1772045495381054200,6.23405419921875,-3.105113549005985,-0.5963838115897029,1.6260764764830469
1772045495391040300,6.244040283203125,-3.2969811057299374,-0.0767798728197813,0.6369695775434374
1772045495401026300,6.2540263671875,-3.180665341335535,0.8858360556878149,-0.4675336328580975
1772045495411012000,6.26401220703125,-2.8158371729314324,1.6593084456078708,-1.2096820792317389
1772045495420998400,6.273998291015625,-2.1498498829573394,2.205632268194854,-1.51948540276736
1772045495430984200,6.283984130859375,-1.2734142544299363,2.494913612705469,-1.3988184574261306
1772045495440970200,6.29397021484375,-0.6467869149416685,2.3317709229454398,-0.9740331023178994
1772045495450956300,6.303956298828125,-0.5443921238720417,1.7112836936473845,-0.25270167239308355
1772045495460942300,6.3139423828125,-0.9978495928436517,0.8093294468514621,0.5973546293832361
1772045495470928100,6.32392822265625,-1.5159130972385406,0.27046426970735193,1.1423870969854295
1772045495480914400,6.33391455078125,-1.551080856731534,0.39780192498415706,1.3069741403348742
1772045495490900200,6.343900146484375,-1.1014905845820904,0.7654697007283567,1.2664666272491216
1772045495500886300,6.35388623046875,-0.3210416336476803,1.1610860983669757,1.1965668693318963
1772045495510872300,6.363872314453125,0.5682745192408561,1.458569600164145,1.1257254466503859
1772045495520858400,6.3738583984375,1.3045850532412528,1.5760861186504362,1.0027188063152135
1772045495530844200,6.38384423828125,1.5748784964263438,1.3193557752631604,0.8493371937215328
1772045495540830500,6.39383056640625,1.2550170124739408,0.7201771453231572,0.7377147017098963
1772045495550816300,6.403816162109375,0.6389157431751489,0.4969187172964215,0.5589886583708227
1772045495560802300,6.41380224609375,0.10064414801001548,0.6845473212763666,0.328561800019443
1772045495570788000,6.4237880859375,-0.17838263672888277,0.8417749417737126,0.23086861076951026
1772045495580773400,6.4337734375,-0.21254735665917396,0.970135071966052,0.35492139915674925
1772045495590759200,6.44375927734375,-0.025318565651774406,1.0673471997007726,0.623772680709511
1772045495600745200,6.4537451171875,0.24503332972228525,1.1955158989742398,0.8746944839484989
1772045495610731300,6.463731201171875,0.42042087628841396,1.3093994677856564,1.0921424721308053
1772045495620717300,6.47371728515625,0.5174065017908811,1.3199419045880436,1.205640694886446
1772045495630703000,6.483703125,0.5751403133571148,1.3098799447789788,1.1521559190668165
1772045495640689400,6.493689453125,0.6070090313047171,1.241342415125668,0.9635480947911739
1772045495650675200,6.50367529296875,0.641010085105896,1.1706222807362674,0.8038295342609286
1772045495660661200,6.5136611328125,0.6957353625059127,1.0739219019159674,0.6637789662748574
1772045495670647000,6.52364697265625,0.7823463089883327,0.9495362283125519,0.4839226037316024
1772045495680633300,6.53363330078125,0.8483715635597705,0.8593418703854083,0.29630612858086824
1772045495690619100,6.543619140625,0.8777560634762048,0.761289784695208,0.09088628571406006
1772045495700605200,6.553605224609375,0.8456435999006032,0.7321241882264614,-0.1172096444942057
1772045495710591200,6.56359130859375,0.7432113994300364,0.7246808864831924,-0.17418182403817772
1772045495720577300,6.573577392578125,0.6247387492626905,0.6941083458259701,-0.08777999026179313
1772045495730563000,6.58356298828125,0.5724649566680192,0.6479474831536411,0.06242971429750323
1772045495740549400,6.59354931640625,0.5938204639077186,0.5554679368987679,0.23700667513310908
1772045495750535200,6.60353515625,0.648082215449214,0.5163917717903852,0.3657185413725674
1772045495760521200,6.613521240234375,0.7502800226420163,0.5182613650545478,0.3931440161757171
1772045495770507300,6.62350732421875,0.781152130767703,0.5323983192175626,0.3447303330752998
1772045495780492300,6.6334921875,0.6182517253309487,0.5273296376511454,0.22253252490498124
1772045495790478300,6.643478271484375,0.3023690818816423,0.6360109616443514,0.18919797218851744
1772045495800464100,6.653464111328125,-0.05596680189371109,0.8157716087281703,0.2773530063077807
1772045495810450400,6.663450439453125,-0.28398119227588176,0.9428618651151657,0.3945535176474601
1772045495820436200,6.673436279296875,-0.3273591462314129,0.940613793927431,0.5422547465171664
1772045495830422300,6.68342236328125,-0.17377017449736595,0.8848492366075515,0.6055404931221157
1772045495840408300,6.693408203125,0.08422492812871933,0.9187021141096949,0.5922181432776152
1772045495850394400,6.703394287109375,0.1609317357122898,0.8752952263206243,0.6006565204728395
1772045495860380200,6.713380126953125,0.07843757689893245,0.8442436699748038,0.6279767082706094
1772045495870366200,6.7233662109375,-0.040759880411624906,1.0022218165785073,0.6052263856716453
1772045495880352300,6.733352294921875,-0.1903326022416353,1.1862830834656952,0.6119497756425291
1772045495890338300,6.74333837890625,-0.3584282382339239,1.1495119804292917,0.981391356126219
1772045495900324400,6.753324462890625,-0.45698622761964797,0.9726391637414693,1.3090418865196407
1772045495910310100,6.76331005859375,-0.44837212853133673,0.8570505445778369,1.1881748885616659
1772045495920296200,6.773296142578125,-0.38029344856142994,0.8104688261449337,0.7080600065499544
1772045495930282200,6.7832822265625,-0.19774200171530246,0.7729492428287863,0.26143450249023736
1772045495940268300,6.793268310546875,-0.10380348882377147,0.7991428377494215,0.06947360492702573
1772045495950254000,6.803254150390625,-0.10333645583391189,0.7604930813595652,0.15612528527863323
1772045495960240400,6.813240478515625,-0.14914835893809794,0.8206868532985448,0.5236098864756524
1772045495970226200,6.82322607421875,-0.044613633230328555,0.9687640758737921,0.8485199590545147
