time,seconds_elapsed,z,y,x
1772045489219741700,0.07274169921875,-0.13888181746006012,-0.12988293170928955,0.29597344994544983
1772045489229728000,0.08272802734375,-0.14336565136909485,-0.08290600031614304,0.3226986527442932
1772045489239713800,0.0927138671875,-0.16498146951198578,0.02064063586294651,0.353908509016037
1772045489249698800,0.10269873046875,-0.17779554426670074,0.022988667711615562,0.3811320960521698
1772045489259684900,0.112684814453125,-0.18778479099273682,-0.10618822276592255,0.36925333738327026
1772045489269671000,0.1226708984375,-0.2056884616613388,-0.31530216336250305,0.3318035304546356
1772045489279657000,0.132656982421875,-0.23478269577026367,-0.4772835969924927,0.2820951044559479
1772045489289642800,0.142642822265625,-0.2720361053943634,-0.51690673828125,0.21543243527412415
1772045489299629000,0.152629150390625,-0.3096897304058075,-0.41105005145072937,0.12558510899543762
1772045489309614800,0.16261474609375,-0.3477574586868286,-0.2106204777956009,0.018758410587906837
1772045489319601000,0.172600830078125,-0.38214606046676636,0.009577675722539425,-0.09968993812799454
1772045489329587000,0.1825869140625,-0.40666162967681885,0.209860160946846,-0.2505342662334442
1772045489339572000,0.192572021484375,-0.42061206698417664,0.42678529024124146,-0.41062405705451965
1772045489349557800,0.202557861328125,-0.4616221785545349,0.546088695526123,-0.5497638583183289
1772045489359543800,0.212543701171875,-0.5042442083358765,0.4569489359855652,-0.7495424747467041
1772045489369529900,0.22252978515625,-0.5325959920883179,0.16633474826812744,-0.98097163438797
1772045489379516000,0.232515869140625,-0.5771490931510925,-0.012485054321587086,-1.1760694980621338
1772045489389501700,0.242501708984375,-0.6300824284553528,0.024584205821156502,-1.2990204095840454
1772045489399488000,0.252488037109375,-0.648829460144043,0.2546057105064392,-1.3554391860961914
1772045489409473800,0.262473876953125,-0.5895838737487793,0.5909602642059326,-1.3706040382385254
1772045489419459800,0.2724599609375,-0.4814097285270691,0.8057658076286316,-1.3229888677597046
1772045489429446000,0.28244580078125,-0.4130341708660126,0.7693983316421509,-1.2467368841171265
1772045489439432000,0.292431884765625,-0.3789164125919342,0.5617402195930481,-1.16390860080719
1772045489449417000,0.3024169921875,-0.3505464196205139,0.355273574590683,-1.0667974948883057
1772045489459402800,0.31240283203125,-0.29283758997917175,0.2119814157485962,-0.9143866300582886
1772045489469389000,0.32238916015625,-0.20624502003192902,0.13564468920230865,-0.7035267353057861
1772045489479374800,0.332374755859375,-0.0681753009557724,0.07344015687704086,-0.46650466322898865
1772045489489361000,0.34236083984375,0.08157384395599365,-0.015714900568127632,-0.2322014719247818
1772045489499347000,0.352346923828125,0.1860501915216446,-0.08836007863283157,-0.045649439096450806
1772045489509333000,0.3623330078125,0.20155440270900726,-0.1786789745092392,0.0525631345808506
1772045489519318800,0.37231884765625,0.09791723638772964,-0.27335914969444275,0.05972810462117195
1772045489529305000,0.38230517578125,-0.11808507144451141,-0.41617482900619507,0.005889261141419411
1772045489539291000,0.392290771484375,-0.3666805028915405,-0.45846474170684814,-0.023105107247829437
1772045489549276000,0.40227587890625,-0.42940935492515564,-0.11728649586439133,0.0003531249240040779
1772045489559261700,0.41226171875,-0.20972837507724762,0.25804346799850464,0.02993019111454487
1772045489569248000,0.422248046875,0.06271104514598846,0.10446511209011078,-0.05282054468989372
1772045489579233800,0.43223388671875,0.29767775535583496,-0.18902082741260529,-0.12374158948659897
1772045489589219800,0.4422197265625,0.5583216547966003,-0.3661485016345978,-0.07536028325557709
1772045489599206000,0.452205810546875,0.7186453342437744,-0.5332453846931458,0.04067098721861839
1772045489609192000,0.46219189453125,0.7544696927070618,-0.6070348024368286,0.2055642157793045
1772045489619177700,0.472177734375,0.6681185364723206,-0.6323984861373901,0.35590818524360657
1772045489629164000,0.4821640625,0.531805157661438,-0.6482751965522766,0.45610135793685913
1772045489639149800,0.49214990234375,0.38626977801322937,-0.6291398406028748,0.4839857220649719
1772045489649135900,0.502135986328125,0.23678310215473175,-0.5271144509315491,0.4662671685218811
1772045489659121000,0.512120849609375,0.13468416035175323,-0.35293328762054443,0.4324040114879608
1772045489669107000,0.52210693359375,0.165980264544487,-0.28700491786003113,0.3808749318122864
1772045489679093000,0.532093017578125,0.3170938789844513,-0.39482033252716064,0.3010490834712982
1772045489689078800,0.542078857421875,0.4476349651813507,-0.40297678112983704,0.21155641973018646
1772045489699065000,0.552065185546875,0.5001572966575623,-0.2388637512922287,0.0474148765206337
1772045489709051000,0.56205078125,0.4784362018108368,0.020602816715836525,-0.17726834118366241
1772045489719037000,0.572036865234375,0.43362054228782654,0.28178009390830994,-0.3885001838207245
1772045489729023000,0.58202294921875,0.40208345651626587,0.561296820640564,-0.5897703766822815
1772045489739009000,0.592009033203125,0.40586063265800476,0.8829563856124878,-0.7298668026924133
1772045489748994800,0.601994873046875,0.5435351729393005,1.0845580101013184,-0.7406973838806152
1772045489758979800,0.611979736328125,0.794930100440979,1.1069504022598267,-0.6700837016105652
1772045489768966000,0.6219658203125,1.0180394649505615,1.0656993389129639,-0.5985090136528015
1772045489778952000,0.631951904296875,1.1403014659881592,0.9123033881187439,-0.5331587791442871
1772045489788937700,0.641937744140625,1.1486715078353882,0.5773494243621826,-0.4489414095878601
1772045489798924000,0.651924072265625,1.0771238803863525,0.015292474068701267,-0.3107481300830841
1772045489808909800,0.661909912109375,1.0056074857711792,-0.6630091071128845,-0.19404658675193787
1772045489818896000,0.671895751953125,1.0067462921142578,-1.1437166929244995,-0.16019435226917267
1772045489828882000,0.6818818359375,1.1251697540283203,-1.37662935256958,-0.2375393956899643
1772045489838868000,0.691867919921875,1.3208513259887695,-1.4498265981674194,-0.4079188406467438
1772045489848853800,0.701853759765625,1.4550586938858032,-1.3422596454620361,-0.6454623341560364
1772045489858838800,0.7118388671875,1.4398956298828125,-1.1426091194152832,-0.8434635400772095
1772045489868824800,0.721824951171875,1.2688589096069336,-1.0848798751831055,-0.9877215027809143
1772045489878811000,0.731810791015625,1.0640599727630615,-1.1479326486587524,-1.1286485195159912
1772045489888797000,0.741796875,0.8829505443572998,-1.1509724855422974,-1.2931251525878906
1772045489898783000,0.751782958984375,0.6954301595687866,-1.0735706090927124,-1.4819997549057007
1772045489908768800,0.761768798828125,0.5830158591270447,-1.0047416687011719,-1.736782431602478
1772045489918754800,0.7717548828125,0.430901437997818,-0.8308764100074768,-1.854101300239563
1772045489928740900,0.781740966796875,0.2409714162349701,-0.6656222939491272,-1.7089749574661255
1772045489938727000,0.791726806640625,-0.06292641162872314,-0.5572366714477539,-1.2719228267669678
1772045489948712700,0.801712646484375,-0.3495728373527527,-0.6059187650680542,-0.7254149913787842
1772045489958699000,0.811698974609375,-0.5562413334846497,-0.7201590538024902,-0.20668473839759827
1772045489968684000,0.82168408203125,-0.6482182145118713,-0.7501266002655029,0.2439093291759491
1772045489978669800,0.831669921875,-0.6098167896270752,-0.7476365566253662,0.5834224224090576
1772045489988655900,0.84165576171875,-0.4723411202430725,-0.7580474615097046,0.7960972189903259
1772045489998642000,0.851641845703125,-0.327716588973999,-0.751966655254364,0.8837476968765259
1772045490008628000,0.8616279296875,-0.23978054523468018,-0.7199423313140869,0.8862059712409973
1772045490018615000,0.871614990234375,-0.2932230234146118,-0.7301265001296997,0.8670658469200134
1772045490028600800,0.881600830078125,-0.492667019367218,-0.8367830514907837,0.8545894622802734
1772045490038587100,0.891587158203125,-0.7748140692710876,-0.9781596064567566,0.8203012347221375
1772045490048573000,0.901572998046875,-1.0602344274520874,-1.2003607749938965,0.7636654376983643
1772045490058559000,0.91155908203125,-1.2665144205093384,-1.5127980709075928,0.6759718060493469
1772045490068544000,0.9215439453125,-1.3683491945266724,-1.8555407524108887,0.583853542804718
1772045490078530000,0.931530029296875,-1.3479604721069336,-2.1091690063476562,0.48914405703544617
1772045490088516000,0.94151611328125,-1.228042721748352,-2.136060953140259,0.40572354197502136
1772045490098502000,0.951501953125,-1.0714094638824463,-1.892699122428894,0.3496086299419403
1772045490108488200,0.96148828125,-0.9699112772941589,-1.4115239381790161,0.2975803315639496
1772045490118474000,0.971473876953125,-0.9308890700340271,-0.8609794974327087,0.2436356246471405
1772045490128460000,0.9814599609375,-0.9363062381744385,-0.3794555366039276,0.18400028347969055
1772045490138446000,0.991446044921875,-0.9785967469215393,-0.013945191167294979,0.1535068303346634
1772045490148432100,1.00143212890625,-1.0124244689941406,0.22578299045562744,0.17544782161712646
1772045490158418000,1.01141796875,-1.016501784324646,0.3074890375137329,0.25005146861076355
1772045490168404200,1.021404296875,-0.959904134273529,0.24025295674800873,0.36637917160987854
1772045490178389000,1.031388916015625,-0.8496415615081787,0.04037473723292351,0.5081051588058472
1772045490188375000,1.041375,-0.7064776420593262,-0.24134913086891174,0.6650309562683105
1772045490198360800,1.05136083984375,-0.5552369952201843,-0.5267215371131897,0.8005421757698059
1772045490208347100,1.06134716796875,-0.4147394299507141,-0.7939263582229614,0.8745893836021423
1772045490218333000,1.0713330078125,-0.29780882596969604,-0.9926234483718872,0.8546042442321777
1772045490228319000,1.081319091796875,-0.2298274040222168,-1.1080783605575562,0.7486761212348938
1772045490238305000,1.091304931640625,-0.2162596583366394,-1.2080798149108887,0.576809823513031
1772045490248291000,1.101291015625,-0.24920247495174408,-1.314571738243103,0.39134734869003296
1772045490258276900,1.11127685546875,-0.29838496446609497,-1.4267023801803589,0.20840254426002502
1772045490268263200,1.12126318359375,-0.34287524223327637,-1.5188825130462646,0.04623729735612869
1772045490278248200,1.131248291015625,-0.3827803134918213,-1.5431510210037231,-0.11313291639089584
1772045490288234000,1.14123388671875,-0.42330828309059143,-1.5054413080215454,-0.2632584869861603
1772045490298220000,1.151219970703125,-0.47526469826698303,-1.403429388999939,-0.3596566617488861
1772045490308206000,1.1612060546875,-0.5377774834632874,-1.2494226694107056,-0.38320058584213257
1772045490318192000,1.171192138671875,-0.6086492538452148,-1.1027112007141113,-0.34825485944747925
1772045490328178000,1.181177978515625,-0.6929300427436829,-0.9988860487937927,-0.29939571022987366
1772045490338164000,1.1911640625,-0.7774390578269958,-0.9333996772766113,-0.28211766481399536
1772045490348150000,1.20114990234375,-0.8449029326438904,-0.8768264651298523,-0.3131941258907318
1772045490358136000,1.211135986328125,-0.8857108354568481,-0.7641379833221436,-0.36969122290611267
1772045490368122000,1.2211220703125,-0.8883880376815796,-0.6007444858551025,-0.46459367871284485
1772045490378107100,1.231107177734375,-0.9124347567558289,-0.4376191794872284,-0.5884466767311096
1772045490388093000,1.241093017578125,-1.0029675960540771,-0.3299260139465332,-0.6849295496940613
1772045490398079000,1.251078857421875,-1.1411453485488892,-0.33835387229919434,-0.6659952998161316
1772045490408065000,1.26106494140625,-1.2073646783828735,-0.5565935373306274,-0.5868602991104126
1772045490418051000,1.271051025390625,-1.1107898950576782,-1.1914280652999878,-0.5880022644996643
1772045490428036900,1.281036865234375,-0.787564754486084,-2.3477001190185547,-0.759704053401947
1772045490438023200,1.291023193359375,-0.3219046890735626,-3.811640977859497,-1.0968458652496338
1772045490448009000,1.301009033203125,0.035685259848833084,-5.085454940795898,-1.4834034442901611
1772045490457995000,1.3109951171875,0.13997863233089447,-5.270017623901367,-1.6620347499847412
1772045490467980000,1.32097998046875,-0.058009080588817596,-4.061734676361084,-1.5254822969436646
1772045490477966000,1.330966064453125,-0.626929521560669,-2.014228343963623,-1.221713900566101
1772045490487952000,1.340951904296875,-1.1326851844787598,-0.06655057519674301,-0.9829761981964111
1772045490497938000,1.35093798828125,-1.217458963394165,1.0337644815444946,-0.923588216304779
1772045490507924000,1.360924072265625,-1.0502276420593262,1.073743462562561,-0.8979191780090332
1772045490517910000,1.370909912109375,-0.9063295125961304,0.18495580554008484,-0.6464787125587463
1772045490527895800,1.380895751953125,-0.9332438707351685,-1.0345755815505981,-0.09105245769023895
1772045490537882000,1.390882080078125,-1.0591235160827637,-1.9439678192138672,0.593195915222168
1772045490547868000,1.400867919921875,-1.160833477973938,-2.36266827583313,1.0952732563018799
1772045490557854000,1.41085400390625,-1.1725586652755737,-2.3519415855407715,1.1903955936431885
1772045490567839000,1.4208388671875,-1.1281746625900269,-2.031163215637207,0.9038123488426208
1772045490577825000,1.430824951171875,-1.102959394454956,-1.4950486421585083,0.3677313029766083
1772045490587811000,1.44081103515625,-1.1380695104599,-0.94459468126297,-0.22682076692581177
1772045490597796900,1.450796875,-1.237816333770752,-0.4861820638179779,-0.7270092964172363
1772045490607783200,1.460783203125,-1.3559579849243164,-0.17113253474235535,-1.0458518266677856
1772045490617769000,1.47076904296875,-1.4473581314086914,-0.04957946762442589,-1.1842284202575684
1772045490627755000,1.480755126953125,-1.4927632808685303,-0.07781901210546494,-1.1969424486160278
1772045490637741000,1.490740966796875,-1.4636539220809937,-0.1869649440050125,-1.130289077758789
1772045490647727000,1.50072705078125,-1.3712995052337646,-0.3104228377342224,-1.0046844482421875
1772045490657713000,1.510712890625,-1.2478545904159546,-0.4196590483188629,-0.8336406350135803
1772045490667698000,1.520697998046875,-1.115372657775879,-0.5333597660064697,-0.6490214467048645
1772045490677684000,1.53068408203125,-0.9993820786476135,-0.6941787004470825,-0.489639550447464
1772045490687670000,1.540669921875,-0.9077508449554443,-0.9089347124099731,-0.3680947721004486
1772045490697655800,1.55065576171875,-0.8612605333328247,-1.116068720817566,-0.3022768795490265
1772045490707642000,1.56064208984375,-0.8292917609214783,-1.3013827800750732,-0.27804985642433167
1772045490717628000,1.5706279296875,-0.819004476070404,-1.4625900983810425,-0.29194968938827515
1772045490727614000,1.580614013671875,-0.8203948736190796,-1.621634602546692,-0.35285064578056335
1772045490737600000,1.59060009765625,-0.826426088809967,-1.7642849683761597,-0.46338966488838196
1772045490747586000,1.6005859375,-0.8396250605583191,-1.8536643981933594,-0.5918335914611816
1772045490757571800,1.61057177734375,-0.8536186218261719,-1.8176240921020508,-0.726960301399231
1772045490767556900,1.620556884765625,-0.8785052299499512,-1.6352819204330444,-0.8544365763664246
1772045490777543200,1.630543212890625,-0.9138128757476807,-1.383744478225708,-0.9678893685340881
1772045490787529000,1.640529052734375,-0.9532395005226135,-1.148366093635559,-1.061780333518982
1772045490797515000,1.650514892578125,-0.9881207942962646,-0.9651522636413574,-1.1251311302185059
1772045490807501000,1.6605009765625,-1.0260775089263916,-0.8974624872207642,-1.144249677658081
1772045490817487000,1.670487060546875,-1.077312707901001,-0.9346452951431274,-1.1185216903686523
1772045490827473000,1.680472900390625,-1.129557490348816,-1.0548895597457886,-1.0592607259750366
1772045490837459200,1.690459228515625,-1.1711647510528564,-1.1898550987243652,-0.9835708141326904
1772045490847445000,1.700445068359375,-1.1753511428833008,-1.2662607431411743,-0.906955361366272
1772045490857431000,1.71043115234375,-1.1252778768539429,-1.3026669025421143,-0.8377861380577087
1772045490867417000,1.7204169921875,-1.048143744468689,-1.308000087738037,-0.7677307724952698
1772045490877402000,1.730402099609375,-1.006960391998291,-1.2584692239761353,-0.71847003698349
1772045490887388000,1.740387939453125,-1.0996932983398438,-1.1691913604736328,-0.7424970269203186
1772045490897374000,1.7503740234375,-1.3234643936157227,-1.0716538429260254,-0.8468762040138245
1772045490907360000,1.760360107421875,-1.4255492687225342,-1.2510617971420288,-1.0341925621032715
1772045490917346000,1.770345947265625,-0.9623957276344299,-2.028447151184082,-1.2235697507858276
1772045490927331800,1.780331787109375,0.21323411166667938,-3.25923228263855,-1.2902235984802246
1772045490937318100,1.790318115234375,1.593440294265747,-4.526667594909668,-1.2692307233810425
1772045490947304000,1.800303955078125,2.3496499061584473,-5.678458213806152,-1.3981704711914062
1772045490957290000,1.8102900390625,1.9043329954147339,-5.766546726226807,-1.7001820802688599
1772045490967276000,1.820276123046875,0.43949881196022034,-4.046600341796875,-2.1577088832855225
1772045490977261000,1.830260986328125,-1.2307151556015015,-1.1781494617462158,-2.819350242614746
1772045490987247000,1.8402470703125,-2.252530574798584,1.5231010913848877,-3.3745198249816895
1772045490997233000,1.85023291015625,-2.3984174728393555,2.9178404808044434,-3.534433603286743
1772045491007219200,1.86021923828125,-2.020554542541504,2.8095107078552246,-3.1662888526916504
1772045491017205000,1.870205078125,-1.5544744729995728,1.4411879777908325,-2.301036834716797
1772045491027190300,1.880190185546875,-1.2719043493270874,-0.509633481502533,-1.152793049812317
1772045491037176300,1.89017626953125,-1.202823281288147,-2.0781710147857666,0.016644397750496864
1772045491047162400,1.900162353515625,-1.209360957145691,-2.8509795665740967,0.8975290656089783
1772045491057148200,1.910148193359375,-1.1851978302001953,-2.9130136966705322,1.3055256605148315
1772045491067134500,1.920134521484375,-1.1698968410491943,-2.4685423374176025,1.2046667337417603
1772045491077119200,1.930119140625,-1.1823556423187256,-1.8544660806655884,0.7524080872535706
1772045491087105300,1.940105224609375,-1.2266770601272583,-1.2944070100784302,0.22355441749095917
1772045491097091000,1.950091064453125,-1.2956900596618652,-0.8803536891937256,-0.19011226296424866
1772045491107077400,1.960077392578125,-1.3789653778076172,-0.6256999373435974,-0.40674591064453125
1772045491117063200,1.970063232421875,-1.4762845039367676,-0.5777875185012817,-0.4203264117240906
1772045491127049200,1.98004931640625,-1.5708175897598267,-0.7310459017753601,-0.2718745470046997
1772045491137035300,1.99003515625,-1.6549327373504639,-0.9581525921821594,-0.04624674469232559
1772045491147021300,2.000021240234375,-1.7092797756195068,-1.134208083152771,0.17360247671604156
1772045491157007000,2.010007080078125,-1.7467806339263916,-1.217219591140747,0.3600562512874603
1772045491166993400,2.019993408203125,-1.73442542552948,-1.2380338907241821,0.47563228011131287
1772045491176979200,2.029979248046875,-1.6815992593765259,-1.2510634660720825,0.4659932255744934
1772045491186964200,2.039964111328125,-1.5892846584320068,-1.2645572423934937,0.3175796568393707
1772045491196950300,2.0499501953125,-1.4761115312576294,-1.257912039756775,0.03533756360411644
1772045491206936300,2.059936279296875,-1.3402687311172485,-1.2196911573410034,-0.34890925884246826
1772045491216922400,2.06992236328125,-1.1732851266860962,-1.2187963724136353,-0.7835504412651062
1772045491226908200,2.079908203125,-0.9975782036781311,-1.2569342851638794,-1.1923370361328125
1772045491236894500,2.08989453125,-0.8425566554069519,-1.2873817682266235,-1.512843370437622
1772045491246880300,2.09988037109375,-0.6904271245002747,-1.321233868598938,-1.7146615982055664
1772045491256866300,2.1098662109375,-0.5735620260238647,-1.3270968198776245,-1.7966831922531128
1772045491266852400,2.119852294921875,-0.5047755837440491,-1.2859318256378174,-1.7719852924346924
1772045491276838400,2.12983837890625,-0.486846387386322,-1.2434957027435303,-1.6430352926254272
1772045491286824200,2.13982421875,-0.49637898802757263,-1.1764551401138306,-1.428749442100525
1772045491296810500,2.149810546875,-0.5212388038635254,-1.0979677438735962,-1.193022608757019
1772045491306795300,2.159795166015625,-0.5261325836181641,-1.0244911909103394,-1.0114669799804688
1772045491316781300,2.16978125,-0.49221643805503845,-0.9746484756469727,-0.9238988161087036
1772045491326767000,2.17976708984375,-0.42784956097602844,-0.9070613980293274,-0.9221250414848328
1772045491336753400,2.18975341796875,-0.31025421619415283,-0.827441394329071,-0.9509939551353455
1772045491346739200,2.1997392578125,-0.14443853497505188,-0.7349185943603516,-1.0048364400863647
1772045491356725200,2.209725341796875,0.025234119966626167,-0.5686379671096802,-1.1480170488357544
1772045491366711300,2.219711181640625,0.07983666658401489,-0.26495596766471863,-1.4047274589538574
1772045491376697300,2.229697265625,-0.04578624293208122,0.12257818877696991,-1.7200590372085571
1772045491386683100,2.23968310546875,-0.2713690400123596,0.5440698266029358,-2.0500588417053223
1772045491396669400,2.24966943359375,-0.42733439803123474,0.9522616267204285,-2.3311450481414795
1772045491406655200,2.2596552734375,-0.3472767472267151,1.1807000637054443,-2.4856953620910645
1772045491416641300,2.269641357421875,0.07635627686977386,0.7363812327384949,-2.472249984741211
1772045491426626300,2.279626220703125,0.8857733011245728,-0.689929187297821,-2.281567335128784
1772045491436612400,2.2896123046875,1.8627526760101318,-2.7893660068511963,-1.9423671960830688
1772045491446598400,2.299598388671875,2.614600658416748,-4.767341613769531,-1.5322885513305664
1772045491456584200,2.309584228515625,2.6764168739318848,-5.870764255523682,-1.361669659614563
1772045491466570500,2.319570556640625,1.7508372068405151,-4.978228569030762,-1.4787544012069702
1772045491476556300,2.329556396484375,0.1865655928850174,-2.2436981201171875,-1.8274439573287964
1772045491486542300,2.339542236328125,-1.3345465660095215,0.7571680545806885,-2.2974777221679688
1772045491496528400,2.3495283203125,-2.251814365386963,2.641845941543579,-2.598306894302368
1772045491506514400,2.359514404296875,-2.548628091812134,2.9521806240081787,-2.5552587509155273
1772045491516500200,2.369500244140625,-2.46411395072937,1.994752049446106,-2.0076210498809814
1772045491526486300,2.379486328125,-2.3099117279052734,0.5107929706573486,-1.0225924253463745
1772045491536471300,2.38947119140625,-2.2293457984924316,-0.8398864269256592,0.08232812583446503
1772045491546457300,2.399457275390625,-2.182502031326294,-1.8311359882354736,0.8879119753837585
1772045491556443100,2.409443115234375,-2.0951101779937744,-2.3354976177215576,1.217004656791687
1772045491566429400,2.419429443359375,-1.9797443151474,-2.304429292678833,1.0200577974319458
1772045491576415200,2.429415283203125,-1.8747073411941528,-1.8845703601837158,0.4471566677093506
1772045491586401300,2.4394013671875,-1.8343634605407715,-1.3063148260116577,-0.23100532591342926
1772045491596387300,2.44938720703125,-1.8556854724884033,-0.8022585511207581,-0.7710129022598267
1772045491606373400,2.459373291015625,-1.9267767667770386,-0.4933176636695862,-1.0850657224655151
1772045491616359200,2.469359130859375,-2.0314464569091797,-0.3872583508491516,-1.157631516456604
1772045491626345500,2.479345458984375,-2.092830181121826,-0.5578286647796631,-1.0074894428253174
1772045491636331300,2.489331298828125,-2.1162328720092773,-0.8885543942451477,-0.6838126182556152
1772045491646317300,2.4993173828125,-2.083435535430908,-1.2813067436218262,-0.2865665555000305
1772045491656303400,2.509303466796875,-2.022587299346924,-1.6013071537017822,0.09235493093729019
1772045491666289400,2.519289306640625,-1.952520489692688,-1.812915325164795,0.3867262601852417
1772045491676274200,2.529274169921875,-1.90620756149292,-1.8680036067962646,0.5530944466590881
1772045491686260200,2.53926025390625,-1.8980777263641357,-1.691772222518921,0.5753582119941711
1772045491696246300,2.549246337890625,-1.884756326675415,-1.3630253076553345,0.4219404458999634
1772045491706232300,2.559232421875,-1.8355567455291748,-1.0000728368759155,0.07790644466876984
1772045491716218000,2.569218017578125,-1.7019933462142944,-0.669567883014679,-0.4076181650161743
1772045491726204400,2.579204345703125,-1.4743516445159912,-0.5216888785362244,-0.9446499347686768
1772045491736190200,2.589190185546875,-1.1942929029464722,-0.6327354907989502,-1.4356894493103027
1772045491746176300,2.59917626953125,-0.9118820428848267,-0.8656066060066223,-1.7871205806732178
1772045491756162300,2.609162353515625,-0.6416556239128113,-1.126978874206543,-1.929822564125061
1772045491766148400,2.6191484375,-0.4258919358253479,-1.4712867736816406,-1.81638503074646
1772045491776134100,2.629134033203125,-0.29181429743766785,-1.5548999309539795,-1.615919828414917
1772045491786120400,2.639120361328125,-0.11149656772613525,-1.5532151460647583,-1.426550030708313
1772045491796106200,2.649106201171875,0.003919509239494801,-1.5589790344238281,-1.1669695377349854
1772045491806092300,2.65909228515625,0.026203839108347893,-1.6104568243026733,-1.0174967050552368
1772045491816078000,2.669078125,0.05608184635639191,-1.6372684240341187,-1.0087649822235107
1772045491826063400,2.6790634765625,0.08644720166921616,-1.5753525495529175,-1.0754244327545166
1772045491836049400,2.68904931640625,0.14281299710273743,-1.4111080169677734,-1.1855560541152954
1772045491846035200,2.69903515625,0.23005099594593048,-1.1759696006774902,-1.3010462522506714
1772045491856021500,2.709021484375,0.324138879776001,-0.8731268644332886,-1.3935176134109497
1772045491866007300,2.71900732421875,0.3898973762989044,-0.5072994828224182,-1.492249608039856
1772045491875993300,2.728993408203125,0.43390342593193054,-0.09015312045812607,-1.6437981128692627
1772045491885979400,2.7389794921875,0.44326910376548767,0.2737540900707245,-1.8281292915344238
1772045491895965400,2.74896533203125,0.4424422085285187,0.5116196274757385,-2.0309576988220215
1772045491905951200,2.758951171875,0.39123696088790894,0.6468488574028015,-2.2599194049835205
1772045491915937300,2.768937255859375,0.3043452203273773,0.7205864191055298,-2.480203151702881
1772045491925923300,2.77892333984375,0.3941814601421356,0.46560874581336975,-2.768235683441162
1772045491935909400,2.788909423828125,0.967628002166748,-0.37007683515548706,-2.995065927505493
1772045491945895200,2.798895263671875,1.9117757081985474,-1.7229140996932983,-2.962472677230835
1772045491955881500,2.808881591796875,2.6380090713500977,-3.132288694381714,-2.639214277267456
1772045491965867300,2.8188671875,2.456273078918457,-3.9555907249450684,-2.1517622470855713
1772045491975852300,2.828852294921875,1.1664294004440308,-3.466346025466919,-1.5860270261764526
1772045491985838300,2.83883837890625,-0.7354975342750549,-1.6518104076385498,-1.2070759534835815
1772045491995824400,2.848824462890625,-2.21504545211792,0.1498606652021408,-1.2914973497390747
1772045492005810200,2.85881005859375,-2.9108242988586426,1.2234011888504028,-1.4671190977096558
1772045492015796200,2.868796142578125,-3.026412010192871,1.4644113779067993,-1.4293371438980103
1772045492025782300,2.8787822265625,-2.9463701248168945,0.9036858677864075,-1.0486767292022705
1772045492035768300,2.888768310546875,-2.9504261016845703,-0.13675205409526825,-0.35287609696388245
1772045492045754000,2.898754150390625,-3.0233986377716064,-1.1696538925170898,0.4703889787197113
1772045492055740400,2.908740478515625,-3.077209234237671,-1.8707607984542847,1.1235915422439575
1772045492065726200,2.918726318359375,-3.0452561378479004,-2.1510093212127686,1.4093296527862549
1772045492075712300,2.928712158203125,-2.930995464324951,-2.094451904296875,1.2802449464797974
1772045492085698300,2.9386982421875,-2.8062422275543213,-1.8507295846939087,0.8811078667640686
1772045492095684400,2.948684326171875,-2.7813522815704346,-1.6287610530853271,0.4204707741737366
1772045492105670100,2.958670166015625,-2.8628745079040527,-1.5991779565811157,0.06595522910356522
1772045492115655200,2.9686552734375,-2.985687017440796,-1.7050436735153198,-0.11758477240800858
1772045492125641500,2.978641357421875,-3.0661332607269287,-1.8247610330581665,-0.12670153379440308
1772045492135627300,2.988627197265625,-3.0976779460906982,-1.8833791017532349,-0.028990427032113075
1772045492145613300,2.99861328125,-3.057760238647461,-1.8572423458099365,0.11232936382293701
1772045492155599400,3.008599365234375,-2.972780704498291,-1.7759182453155518,0.21344426274299622
1772045492165585200,3.018585205078125,-2.8599157333374023,-1.6791352033615112,0.22136257588863373
1772045492175571200,3.0285712890625,-2.70939302444458,-1.5824267864227295,0.1307527869939804
1772045492185557200,3.03855712890625,-2.513063430786133,-1.5093200206756592,-0.03137371689081192
1772045492195543300,3.048543212890625,-2.28322434425354,-1.4570062160491943,-0.22653335332870483
1772045492205529000,3.058529052734375,-2.0512194633483887,-1.4117584228515625,-0.40049439668655396
1772045492215515400,3.068515380859375,-1.8144111633300781,-1.319144606590271,-0.5106001496315002
1772045492225501200,3.078501220703125,-1.5876041650772095,-1.152547836303711,-0.5524371862411499
1772045492235487200,3.0884873046875,-1.3922148942947388,-0.9548680782318115,-0.568861186504364
1772045492245473000,3.09847314453125,-1.1989076137542725,-0.8187915682792664,-0.5964648723602295
1772045492255459300,3.108459228515625,-0.9707844853401184,-0.7507161498069763,-0.6551777124404907
1772045492265445000,3.118445068359375,-0.6850976347923279,-0.7857239842414856,-0.7137660980224609
1772045492275431200,3.12843115234375,-0.3717133700847626,-0.8930112719535828,-0.7770976424217224
1772045492285416400,3.13841650390625,-0.058553554117679596,-1.045714020729065,-0.85084468126297
1772045492295402200,3.14840234375,0.20322105288505554,-1.1914360523223877,-0.9203457236289978
1772045492305388300,3.15838818359375,0.40395689010620117,-1.3252798318862915,-0.9586291313171387
1772045492315374300,3.168374267578125,0.5699283480644226,-1.4323972463607788,-0.9862604737281799
1772045492325360400,3.1783603515625,0.6768717765808105,-1.4649709463119507,-1.0337685346603394
1772045492335346200,3.18834619140625,0.7389500737190247,-1.4059785604476929,-1.0805221796035767
1772045492345332200,3.198332275390625,0.7647354602813721,-1.286787748336792,-1.142116904258728
1772045492355318300,3.208318359375,0.7794288992881775,-1.1653417348861694,-1.260402798652649
1772045492365304300,3.21830419921875,0.7870065569877625,-1.0124099254608154,-1.4319754838943481
1772045492375290000,3.2282900390625,0.8207098841667175,-0.8062779307365417,-1.6394394636154175
1772045492385276400,3.2382763671875,0.9077464938163757,-0.5281034111976624,-1.8943629264831543
1772045492395262200,3.24826220703125,1.0622438192367554,-0.26737678050994873,-2.1828694343566895
1772045492405248300,3.258248291015625,1.2560182809829712,-0.1284419149160385,-2.4724771976470947
1772045492415234300,3.268234375,1.4203242063522339,-0.14311327040195465,-2.7691428661346436
1772045492425220400,3.278220458984375,1.524564504623413,-0.42832279205322266,-3.01096510887146
1772045492435206100,3.2882060546875,1.7841252088546753,-1.1604912281036377,-3.0901613235473633
1772045492445191200,3.298191162109375,2.2999911308288574,-2.202270984649658,-3.005596876144409
1772045492455177200,3.30817724609375,2.7602643966674805,-3.03440260887146,-2.881848096847534
1772045492465163300,3.318163330078125,2.8936338424682617,-3.4316582679748535,-3.01692271232605
1772045492475149000,3.328149169921875,2.514662027359009,-3.2523319721221924,-3.4665496349334717
1772045492485135400,3.33813525390625,1.7400413751602173,-2.425347089767456,-4.077220916748047
1772045492495121200,3.34812109375,0.6855848431587219,-1.1529399156570435,-4.594649314880371
1772045492505107200,3.358107177734375,-0.43897104263305664,0.055742282420396805,-4.666782379150391
1772045492515093200,3.36809326171875,-1.3577065467834473,0.7071636915206909,-4.082244396209717
1772045492525079300,3.378079345703125,-2.0413429737091064,0.8152461051940918,-2.8366715908050537
1772045492535065000,3.388065185546875,-2.6212968826293945,0.43944051861763,-1.2727878093719482
1772045492545051400,3.398051513671875,-3.105585813522339,-0.26759085059165955,0.08692757040262222
1772045492555037200,3.408037109375,-3.4340779781341553,-1.0575534105300903,0.9179113507270813
1772045492565023200,3.418023193359375,-3.520360231399536,-1.7807143926620483,1.170554518699646
1772045492575009300,3.42800927734375,-3.400789499282837,-2.188650131225586,0.9212053418159485
1772045492584995300,3.437995361328125,-3.2223219871520996,-2.216273784637451,0.33116400241851807
1772045492594981000,3.447981201171875,-3.1150054931640625,-1.9742045402526855,-0.36072391271591187
1772045492604966100,3.457966064453125,-3.140779495239258,-1.644399642944336,-0.9340624809265137
1772045492614952400,3.467952392578125,-3.2363336086273193,-1.4034767150878906,-1.3072211742401123
1772045492624938200,3.477938232421875,-3.3288967609405518,-1.2874747514724731,-1.463556170463562
1772045492634924300,3.48792431640625,-3.371706962585449,-1.2512743473052979,-1.4486608505249023
1772045492644910300,3.497910400390625,-3.361567258834839,-1.2657381296157837,-1.3069719076156616
1772045492654896400,3.507896484375,-3.292937755584717,-1.2963533401489258,-1.084214687347412
1772045492664882200,3.517882080078125,-3.182511568069458,-1.3301030397415161,-0.8263733983039856
1772045492674868200,3.5278681640625,-3.0270676612854004,-1.373882532119751,-0.586053729057312
1772045492684854300,3.537854248046875,-2.8286292552948,-1.4276083707809448,-0.3999173641204834
1772045492694840300,3.54784033203125,-2.615460157394409,-1.4867619276046753,-0.28963905572891235
1772045492704826400,3.557826416015625,-2.3857643604278564,-1.544532060623169,-0.27997803688049316
1772045492714812200,3.567812255859375,-2.1124842166900635,-1.5562262535095215,-0.3440078794956207
1772045492724798200,3.577798095703125,-1.7961268424987793,-1.5161772966384888,-0.4856261610984802
1772045492734784300,3.5877841796875,-1.4753621816635132,-1.4600460529327393,-0.6605961322784424
1772045492744770300,3.597770263671875,-1.1540188789367676,-1.4101989269256592,-0.8339298963546753
1772045492754755300,3.60775537109375,-0.844192385673523,-1.3604497909545898,-0.9663707613945007
1772045492764741000,3.6177412109375,-0.5652304887771606,-1.3237162828445435,-1.056630253791809
1772045492774727400,3.6277275390625,-0.3427013158798218,-1.3184802532196045,-1.0947768688201904
1772045492784713200,3.637713134765625,-0.18321888148784637,-1.3700592517852783,-1.094342589378357
1772045492794699300,3.64769921875,-0.08874031156301498,-1.461288571357727,-1.0793601274490356
1772045492804685300,3.657685302734375,-0.03391016274690628,-1.5917617082595825,-1.0534499883651733
1772045492814671400,3.66767138671875,0.029142841696739197,-1.702348232269287,-1.0409756898880005
1772045492824657200,3.6776572265625,0.14701040089130402,-1.758799433708191,-1.0627959966659546
1772045492834643500,3.6876435546875,0.3005688190460205,-1.7638705968856812,-1.1376878023147583
1772045492844629200,3.697629150390625,0.45681822299957275,-1.7395960092544556,-1.2572777271270752
1772045492854615300,3.707615234375,0.6127929091453552,-1.6905211210250854,-1.4169847965240479
1772045492864601300,3.717601318359375,0.7358013987541199,-1.5866390466690063,-1.5841337442398071
1772045492874587400,3.72758740234375,0.8019668459892273,-1.5326550006866455,-1.7697949409484863
1772045492884573200,3.7375732421875,0.8928900957107544,-1.5660851001739502,-1.9479836225509644
1772045492894559200,3.747559326171875,1.0157033205032349,-1.6092333793640137,-2.1501379013061523
1772045492904545300,3.757545166015625,1.0728960037231445,-1.6350736618041992,-2.357210159301758
1772045492914530300,3.7675302734375,1.3121140003204346,-1.8333922624588013,-2.611717700958252
1772045492924516000,3.77751611328125,1.866049885749817,-2.370105504989624,-2.877852201461792
1772045492934502400,3.78750244140625,2.329029083251953,-3.1799581050872803,-3.0290029048919678
1772045492944488200,3.79748828125,2.264573812484741,-4.059446811676025,-3.0708487033843994
1772045492954474200,3.80747412109375,1.5649712085723877,-4.400387287139893,-3.1841392517089844
1772045492964460300,3.817460205078125,0.42996615171432495,-3.7269279956817627,-3.4914472103118896
1772045492974446300,3.8274462890625,-0.655741274356842,-2.090057134628296,-3.9831225872039795
1772045492984432000,3.83743212890625,-1.4167351722717285,-0.10190922021865845,-4.432998180389404
1772045492994418200,3.847418212890625,-1.9830976724624634,1.2296645641326904,-4.484562873840332
1772045493004404200,3.857404296875,-2.4827189445495605,1.3346666097640991,-3.9534099102020264
1772045493014390300,3.867390380859375,-2.9572982788085938,0.4823093116283417,-2.838146448135376
1772045493024375800,3.877375732421875,-3.356489896774292,-0.7065689563751221,-1.4736515283584595
1772045493034362000,3.887362060546875,-3.630852699279785,-1.6749294996261597,-0.1909618079662323
1772045493044348000,3.897347900390625,-3.7451062202453613,-2.2721471786499023,0.7174634337425232
1772045493054333000,3.9073330078125,-3.6683080196380615,-2.5932891368865967,1.1220102310180664
1772045493064319000,3.917319091796875,-3.4818742275238037,-2.6722257137298584,1.0267434120178223
1772045493074305000,3.927304931640625,-3.262845754623413,-2.56575345993042,0.6074143648147583
1772045493084291000,3.937291015625,-3.0747110843658447,-2.3832826614379883,0.06269960105419159
1772045493094276900,3.94727685546875,-2.9630627632141113,-2.2152538299560547,-0.44133612513542175
1772045493104263200,3.95726318359375,-2.941882848739624,-2.116199493408203,-0.7893088459968567
1772045493114249000,3.9672490234375,-2.994886875152588,-2.0458505153656006,-0.9926545023918152
1772045493124235000,3.977235107421875,-3.0722739696502686,-1.9572995901107788,-1.0834943056106567
1772045493134221000,3.987220947265625,-3.1129629611968994,-1.8131517171859741,-1.117179036140442
1772045493144207000,3.99720703125,-3.1158852577209473,-1.6190509796142578,-1.12679123878479
1772045493154193000,4.00719287109375,-3.0890603065490723,-1.4026256799697876,-1.120901346206665
1772045493164179200,4.01717919921875,-3.0186173915863037,-1.1904703378677368,-1.083338975906372
1772045493174165000,4.0271650390625,-2.8957507610321045,-1.0467299222946167,-1.0500712394714355
1772045493184150000,4.03714990234375,-2.722383499145508,-0.9674910306930542,-1.0247803926467896
1772045493194135800,4.0471357421875,-2.477107048034668,-0.9963333010673523,-1.0132784843444824
1772045493204122000,4.0571220703125,-2.1710033416748047,-1.1355408430099487,-1.014983892440796
1772045493214108000,4.06710791015625,-1.8315508365631104,-1.3407307863235474,-1.0125963687896729
1772045493224094000,4.077093994140625,-1.4762989282608032,-1.544475793838501,-0.9786240458488464
1772045493234080000,4.087080078125,-1.1325347423553467,-1.6955207586288452,-0.9213111996650696
1772045493244066000,4.097066162109375,-0.8090055584907532,-1.7811126708984375,-0.8662401437759399
1772045493254051800,4.1070517578125,-0.5098683834075928,-1.8097918033599854,-0.8416125178337097
1772045493264038100,4.1170380859375,-0.23966869711875916,-1.7792482376098633,-0.8587093949317932
1772045493274024000,4.12702392578125,-0.030996717512607574,-1.703351616859436,-0.9259467720985413
1772045493284010000,4.137010009765625,0.1220189779996872,-1.6365779638290405,-1.0342706441879272
1772045493293996000,4.14699609375,0.23761403560638428,-1.560485601425171,-1.1636872291564941
1772045493303982000,4.156982177734375,0.3300774097442627,-1.4816254377365112,-1.2777844667434692
1772045493313967900,4.1669677734375,0.4396806061267853,-1.3809219598770142,-1.3424758911132812
1772045493323953000,4.176952880859375,0.6035756468772888,-1.263604760169983,-1.361015796661377
1772045493333939200,4.186939208984375,0.7905375361442566,-1.1086000204086304,-1.3802204132080078
1772045493343925000,4.196925048828125,0.9405145049095154,-0.9121413230895996,-1.4517303705215454
1772045493353911000,4.2069111328125,0.9557616114616394,-0.6901481747627258,-1.6109179258346558
1772045493363897000,4.21689697265625,0.7728961706161499,-0.50150465965271,-1.8409173488616943
1772045493373883100,4.226883056640625,0.42469605803489685,-0.330584853887558,-2.100097417831421
1772045493383869000,4.236868896484375,0.0927141085267067,-0.21964304149150848,-2.3297903537750244
1772045493393855000,4.24685498046875,0.10285569727420807,-0.2990281283855438,-2.5296759605407715
1772045493403841000,4.256841064453125,0.8594629168510437,-0.9706878066062927,-2.760591983795166
1772045493413826800,4.266826904296875,2.380455255508423,-2.3141837120056152,-3.0283050537109375
1772045493423813000,4.276813232421875,3.9709415435791016,-3.8560900688171387,-3.2133114337921143
1772045493433799000,4.286798828125,4.689669132232666,-5.1318769454956055,-3.312559127807617
1772045493443785000,4.296784912109375,3.7807583808898926,-5.181472301483154,-3.2872121334075928
1772045493453770000,4.30677001953125,1.7243326902389526,-3.424982786178589,-3.148737907409668
1772045493463756000,4.316756103515625,-0.20038709044456482,-0.7024506330490112,-3.179849624633789
1772045493473742000,4.3267421875,-1.362780213356018,1.5525754690170288,-3.257262945175171
1772045493483728000,4.336727783203125,-1.8126037120819092,2.4164741039276123,-3.2177934646606445
1772045493493714200,4.346714111328125,-1.940822958946228,1.866858720779419,-2.8501930236816406
1772045493503700000,4.356699951171875,-2.071512460708618,0.6304557919502258,-2.029505491256714
1772045493513686000,4.36668603515625,-2.371014356613159,-0.6086411476135254,-0.9868441820144653
1772045493523672000,4.376672119140625,-2.770188331604004,-1.3304877281188965,0.0034599050413817167
1772045493533658000,4.386658203125,-3.050042152404785,-1.5703696012496948,0.6231508255004883
1772045493543644000,4.396643798828125,-3.1738476753234863,-1.5489749908447266,0.7601759433746338
1772045493553630200,4.406630126953125,-3.1968231201171875,-1.407808542251587,0.5042791366577148
1772045493563616000,4.416615966796875,-3.2656784057617188,-1.142103672027588,0.043274976313114166
1772045493573601000,4.42660107421875,-3.4212646484375,-0.7369555830955505,-0.416349321603775
1772045493583586800,4.4365869140625,-3.626314401626587,-0.2984490394592285,-0.7574353218078613
1772045493593573000,4.446572998046875,-3.8510324954986572,0.058113861829042435,-0.9363789558410645
1772045493603559000,4.456558837890625,-4.091698169708252,0.28853142261505127,-0.9109227061271667
1772045493613545000,4.466544921875,-4.338353157043457,0.3351290225982666,-0.718493640422821
1772045493623531000,4.476531005859375,-4.563630104064941,0.13189385831356049,-0.39302608370780945
1772045493633517000,4.48651708984375,-4.712192535400391,-0.23603862524032593,0.02825591154396534
1772045493643502800,4.4965029296875,-4.773695945739746,-0.4940571188926697,0.4599332809448242
1772045493653489200,4.5064892578125,-4.713614463806152,-0.5524123311042786,0.751644492149353
1772045493663475000,4.516474853515625,-4.491897106170654,-0.47578164935112,0.8539493083953857
1772045493673461000,4.5264609375,-4.110395431518555,-0.36801204085350037,0.8068696856498718
1772045493683447000,4.536447021484375,-3.6364758014678955,-0.3275333642959595,0.6429542303085327
1772045493693433000,4.54643310546875,-3.1284244060516357,-0.4301327168941498,0.44261661171913147
1772045493703418000,4.556418212890625,-2.636090040206909,-0.6899677515029907,0.26032498478889465
1772045493713404000,4.56640380859375,-2.1929852962493896,-1.0392132997512817,0.12300865352153778
1772045493723390200,4.57639013671875,-1.8164080381393433,-1.407517910003662,0.04001376032829285
1772045493733376000,4.5863759765625,-1.509878396987915,-1.7201964855194092,-0.0016340850852429867
1772045493743362000,4.596362060546875,-1.2312676906585693,-1.8990198373794556,-0.049578793346881866
1772045493753348000,4.60634814453125,-0.9711687564849854,-1.9265414476394653,-0.13809452950954437
1772045493763334100,4.616334228515625,-0.726413905620575,-1.8609519004821777,-0.2709595561027527
1772045493773320000,4.62631982421875,-0.503165066242218,-1.7496099472045898,-0.4337697923183441
1772045493783306200,4.63630615234375,-0.3017463684082031,-1.6285796165466309,-0.6102561354637146
1772045493793292000,4.6462919921875,-0.12465202808380127,-1.5383977890014648,-0.7901241779327393
1772045493803278000,4.656278076171875,0.022779906168580055,-1.5134953260421753,-0.9438651204109192
1772045493813262800,4.666262939453125,0.1477958709001541,-1.5360698699951172,-1.0458570718765259
1772045493823249200,4.676249267578125,0.25792062282562256,-1.5746283531188965,-1.137015461921692
1772045493833235000,4.68623486328125,0.35357391834259033,-1.576483964920044,-1.2187366485595703
1772045493843221000,4.696220947265625,0.442873477935791,-1.4588288068771362,-1.3156790733337402
1772045493853207000,4.70620703125,0.5054524540901184,-1.1974552869796753,-1.4461112022399902
1772045493863193000,4.716193115234375,0.5461506247520447,-0.8879815340042114,-1.6101118326187134
1772045493873179000,4.726178955078125,0.5781991481781006,-0.6045892238616943,-1.7904691696166992
1772045493883165200,4.736165283203125,0.6574431657791138,-0.5259268879890442,-2.0321598052978516
1772045493893151000,4.74615087890625,0.8983636498451233,-0.7629375457763672,-2.3863656520843506
1772045493903137000,4.756136962890625,1.5271345376968384,-1.484897255897522,-2.9352622032165527
1772045493913122800,4.766122802734375,2.6043803691864014,-2.7995054721832275,-3.7538657188415527
1772045493923109000,4.776109130859375,3.762110471725464,-4.293486595153809,-4.56447172164917
1772045493933094100,4.78609423828125,4.534687519073486,-5.5609211921691895,-5.043529987335205
1772045493943080000,4.796079833984375,4.219912528991699,-5.833144664764404,-5.020022392272949
1772045493953066000,4.80606591796875,2.7496190071105957,-4.265827178955078,-4.528596878051758
1772045493963052000,4.816052001953125,0.9880270957946777,-1.5489777326583862,-3.9451403617858887
1772045493973038000,4.8260380859375,-0.11257368326187134,0.8809979557991028,-3.400979518890381
1772045493983024000,4.836024169921875,-0.4037901759147644,1.7297042608261108,-2.863971710205078
1772045493993010000,4.846010009765625,-0.4192224144935608,0.7886592745780945,-2.0956003665924072
1772045494002996000,4.855995849609375,-0.5443271398544312,-0.9930029511451721,-0.9230852723121643
1772045494012982000,4.86598193359375,-0.8384625911712646,-2.427468776702881,0.291861891746521
1772045494022968300,4.87596826171875,-1.1719279289245605,-2.787038564682007,1.0995934009552002
1772045494032954000,4.8859541015625,-1.394413709640503,-2.224168062210083,1.3511238098144531
1772045494042939100,4.895939208984375,-1.6249381303787231,-1.4743800163269043,1.0266045331954956
1772045494052925400,4.905925537109375,-2.01758074760437,-1.0290297269821167,0.35244283080101013
1772045494062911200,4.9159111328125,-2.476911783218384,-0.8895055055618286,-0.366305947303772
1772045494072897300,4.925897216796875,-2.855560302734375,-0.7770862579345703,-0.8841994404792786
1772045494082883300,4.93588330078125,-3.1859657764434814,-0.4751717746257782,-1.048663854598999
1772045494092869400,4.945869384765625,-3.46380352973938,-0.10937594622373581,-0.8692903518676758
1772045494102855200,4.955855224609375,-3.6315016746520996,0.2198164016008377,-0.4367577135562897
1772045494112841500,4.965841552734375,-3.710268020629883,0.40554818511009216,0.07319609820842743
1772045494122827300,4.9758271484375,-3.7201712131500244,0.4652690887451172,0.5233359336853027
1772045494132813300,4.985813232421875,-3.6608238220214844,0.47144123911857605,0.8562821745872498
1772045494142799400,4.99579931640625,-3.5485572814941406,0.43353191018104553,1.0428866147994995
1772045494152785400,5.005785400390625,-3.4126501083374023,0.38340723514556885,1.1005840301513672
1772045494162770200,5.015770263671875,-3.295072555541992,0.3590750992298126,1.0923309326171875
1772045494172756200,5.025756103515625,-3.220781087875366,0.39193448424339294,1.0788073539733887
1772045494182742300,5.0357421875,-3.1828413009643555,0.45988211035728455,1.0962406396865845
1772045494192728300,5.045728271484375,-3.146252393722534,0.5239572525024414,1.130437970161438
1772045494202714000,5.055714111328125,-3.084284782409668,0.5810298323631287,1.149812936782837
1772045494212700400,5.065700439453125,-2.9758493900299072,0.5885913372039795,1.1226716041564941
1772045494222686200,5.075686279296875,-2.8032093048095703,0.5203244090080261,1.023211121559143
1772045494232672300,5.08567236328125,-2.565500497817993,0.3644599914550781,0.8343985676765442
1772045494242658300,5.095658203125,-2.255805253982544,0.08782971650362015,0.5929281711578369
1772045494252644400,5.105644287109375,-1.9147069454193115,-0.2763426601886749,0.33724021911621094
1772045494262630100,5.115630126953125,-1.5794048309326172,-0.6327171921730042,0.10827483981847763
1772045494272616400,5.125616455078125,-1.2726885080337524,-0.8997424840927124,-0.08694658428430557
1772045494282601500,5.1356015625,-1.0000345706939697,-1.0061770677566528,-0.24353617429733276
1772045494292587300,5.145587158203125,-0.7409421801567078,-0.9918922185897827,-0.3848533630371094
1772045494302573300,5.1555732421875,-0.49310585856437683,-0.9161186814308167,-0.5127673745155334
1772045494312559400,5.165559326171875,-0.2716696262359619,-0.8531721830368042,-0.6433014273643494
1772045494322545400,5.17554541015625,-0.08424338698387146,-0.8758977651596069,-0.7856035828590393
1772045494332531200,5.18553125,0.056236498057842255,-0.9746155142784119,-0.9344365000724792
1772045494342517200,5.195517333984375,0.16064800322055817,-1.1226277351379395,-1.0903754234313965
1772045494352503300,5.20550341796875,0.2253311276435852,-1.2617393732070923,-1.2643355131149292
1772045494362489300,5.2154892578125,0.27531179785728455,-1.2997163534164429,-1.4505397081375122
1772045494372475400,5.225475341796875,0.3607023358345032,-1.1523350477218628,-1.6956908702850342
1772045494382461200,5.235461181640625,0.5324413180351257,-0.8234910368919373,-2.018850564956665
1772045494392447200,5.245447265625,0.8344768285751343,-0.4476638734340668,-2.3989672660827637
1772045494402432300,5.255432373046875,1.2515435218811035,-0.22971495985984802,-2.820068359375
1772045494412418300,5.265418212890625,1.7171179056167603,-0.4022696614265442,-3.2836296558380127
1772045494422404400,5.275404296875,2.1662771701812744,-1.1090997457504272,-3.7445435523986816
1772045494432390100,5.28539013671875,2.521418333053589,-2.3872687816619873,-4.015723705291748
1772045494442376400,5.29537646484375,2.6239068508148193,-3.871535062789917,-3.9487979412078857
1772045494452362200,5.3053623046875,2.3862621784210205,-4.954973220825195,-3.5935089588165283
1772045494462348300,5.315348388671875,1.7343488931655884,-4.620450496673584,-3.039458990097046
1772045494472334300,5.325334228515625,0.8279127478599548,-2.718937873840332,-2.5084493160247803
1772045494482320400,5.3353203125,-0.10048938542604446,-0.09477095305919647,-2.1545650959014893
1772045494492305200,5.34530517578125,-0.7691841125488281,1.7559340000152588,-1.9994429349899292
1772045494502291200,5.355291259765625,-1.2094004154205322,2.3240694999694824,-1.8044369220733643
1772045494512277200,5.36527734375,-1.4686658382415771,1.7014514207839966,-1.3300800323486328
1772045494522263300,5.37526318359375,-1.5987682342529297,0.5010568499565125,-0.4890405535697937
1772045494532249000,5.3852490234375,-1.673143982887268,-0.5447297692298889,0.5564994215965271
1772045494542235400,5.3952353515625,-1.757706880569458,-1.0048784017562866,1.406272530555725
1772045494552221200,5.40522119140625,-1.8696818351745605,-0.9105308651924133,1.8415589332580566
1772045494562207200,5.415207275390625,-2.0607082843780518,-0.4495142102241516,1.9088693857192993
1772045494572193300,5.425193359375,-2.390413761138916,0.06038927286863327,1.7397141456604004
1772045494582179300,5.435179443359375,-2.756425619125366,0.4540388584136963,1.4683856964111328
1772045494592165000,5.4451650390625,-3.000619649887085,0.6630056500434875,1.199211835861206
1772045494602151400,5.4551513671875,-3.087813377380371,0.761496901512146,1.0232882499694824
1772045494612137200,5.46513720703125,-3.1100716590881348,0.8720157146453857,1.006260871887207
1772045494622122200,5.475122314453125,-3.1156117916107178,1.0006452798843384,1.1428231000900269
1772045494632108300,5.4851083984375,-3.1242096424102783,1.129946231842041,1.3608779907226562
1772045494642094300,5.49509423828125,-3.1232340335845947,1.2708117961883545,1.6031500101089478
1772045494652080400,5.505080322265625,-3.0829412937164307,1.4223153591156006,1.8023555278778076
1772045494662066200,5.515066162109375,-2.99005126953125,1.5135492086410522,1.8993501663208008
1772045494672052500,5.525052490234375,-2.8482038974761963,1.4931532144546509,1.8805980682373047
1772045494682038300,5.535038330078125,-2.657411575317383,1.3811098337173462,1.7917711734771729
1772045494692024300,5.5450244140625,-2.4051389694213867,1.1736924648284912,1.6874314546585083
1772045494702010400,5.55501025390625,-2.135403633117676,0.9097414016723633,1.5891512632369995
1772045494711996400,5.564996337890625,-1.8729894161224365,0.636223554611206,1.471517562866211
1772045494721982200,5.574982177734375,-1.6467903852462769,0.38517144322395325,1.3223165273666382
1772045494731968500,5.584968505859375,-1.4629204273223877,0.16796721518039703,1.1319835186004639
1772045494741954300,5.594954345703125,-1.3083686828613281,-0.012807021848857403,0.8932623863220215
1772045494751940400,5.6049404296875,-1.1618626117706299,-0.12446723878383636,0.587856650352478
1772045494761925000,5.614925048828125,-1.012494444847107,-0.1962767094373703,0.20239119231700897
1772045494771911400,5.624911376953125,-0.8690669536590576,-0.2930186986923218,-0.23898035287857056
1772045494781897200,5.634897216796875,-0.7457490563392639,-0.43346384167671204,-0.7096299529075623
1772045494791883300,5.64488330078125,-0.6308267712593079,-0.6062209606170654,-1.164207100868225
1772045494801869300,5.654869384765625,-0.49550989270210266,-0.8007082343101501,-1.571152925491333
1772045494811855400,5.66485546875,-0.3360113203525543,-1.0077778100967407,-1.9153296947479248
1772045494821841200,5.674841064453125,-0.12988567352294922,-1.1888304948806763,-2.175692558288574
1772045494831827500,5.684827392578125,0.11686018854379654,-1.3091866970062256,-2.353123188018799
1772045494841813200,5.694813232421875,0.3917362093925476,-1.3962856531143188,-2.479340076446533
1772045494851800300,5.70480029296875,0.6490955352783203,-1.4850070476531982,-2.6053900718688965
1772045494861785300,5.714785400390625,0.8456230759620667,-1.566045880317688,-2.7312262058258057
1772045494871771400,5.724771484375,0.9322828650474548,-1.5604993104934692,-2.823517084121704
1772045494881757200,5.734757080078125,0.957033634185791,-1.406013011932373,-2.898165225982666
1772045494891743200,5.7447431640625,0.9201597571372986,-1.2422387599945068,-3.042802572250366
1772045494901729300,5.754729248046875,0.8296297788619995,-1.0774775743484497,-3.210367202758789
1772045494911715300,5.76471533203125,0.724983811378479,-0.9702038168907166,-3.293346643447876
1772045494921701000,5.774701171875,0.6537978649139404,-0.9655054211616516,-3.334876775741577
1772045494931687400,5.7846875,0.6186691522598267,-1.0564496517181396,-3.4510080814361572
1772045494941673200,5.794673095703125,0.5299772620201111,-1.1249570846557617,-3.661867618560791
1772045494951659300,5.8046591796875,0.38504987955093384,-1.0783765316009521,-3.9013671875
1772045494961645300,5.814645263671875,0.1832471787929535,-0.954027533531189,-4.088442802429199
1772045494971631400,5.82463134765625,0.018398310989141464,-0.4581141769886017,-4.0230207443237305
1772045494981617200,5.8346171875,-0.015035814605653286,0.2532728612422943,-3.733654260635376
1772045494991603500,5.844603515625,-0.023846084251999855,0.8213850259780884,-3.344980239868164
1772045495001589200,5.85458935546875,0.06220609322190285,1.1765495538711548,-2.9549484252929688
1772045495011575300,5.8645751953125,0.2215600609779358,1.3705919981002808,-2.618319272994995
1772045495021560300,5.874560302734375,0.35429808497428894,1.321030855178833,-2.4374828338623047
1772045495031546400,5.88454638671875,0.3457496166229248,0.9505159854888916,-2.440479040145874
1772045495041532200,5.8945322265625,0.19345740973949432,0.3601422607898712,-2.5159528255462646
1772045495051518200,5.904518310546875,-0.052581921219825745,-0.27113422751426697,-2.516437292098999
1772045495061504300,5.914504150390625,-0.340213418006897,-0.7370278239250183,-2.279693841934204
1772045495071490300,5.924490234375,-0.5886375904083252,-0.7957209348678589,-1.7764917612075806
1772045495081476000,5.93447607421875,-0.7574568390846252,-0.5946546792984009,-1.2176278829574585
1772045495091462400,5.94446240234375,-0.7831369042396545,-0.2726854681968689,-0.7879713177680969
1772045495101448200,5.9544482421875,-0.7014799118041992,-0.0010967922862619162,-0.5440903902053833
1772045495111434200,5.964434326171875,-0.6006731390953064,0.07114651054143906,-0.4621982276439667
1772045495121420000,5.974419921875,-0.5369501709938049,0.006929093040525913,-0.49131178855895996
1772045495131406300,5.98440625,-0.5423451662063599,-0.08803389966487885,-0.5269911885261536
1772045495141392100,5.99439208984375,-0.5968944430351257,-0.15963353216648102,-0.48024341464042664
1772045495151378200,6.004378173828125,-0.6548826098442078,-0.1606742888689041,-0.32589593529701233
1772045495161364200,6.0143642578125,-0.6796466708183289,-0.07956333458423615,-0.09809833019971848
1772045495171350300,6.024350341796875,-0.642124593257904,0.0513981431722641,0.14004473388195038
1772045495181336000,6.034336181640625,-0.5759323239326477,0.13805586099624634,0.300275593996048
1772045495191321300,6.0443212890625,-0.5325382351875305,0.09624635428190231,0.3113447427749634
1772045495201307400,6.054307373046875,-0.5131931900978088,-0.08761382848024368,0.19724780321121216
1772045495211293200,6.064293212890625,-0.5075888633728027,-0.5020400285720825,0.037851229310035706
1772045495221279200,6.074279296875,-0.5112175345420837,-1.1573224067687988,-0.09958096593618393
1772045495231265300,6.084265380859375,-0.49523669481277466,-1.7538939714431763,-0.17728987336158752
1772045495241251300,6.094251220703125,-0.43975406885147095,-2.164332151412964,-0.1729300171136856
1772045495251237000,6.104237060546875,-0.39453890919685364,-2.223500967025757,-0.12351906299591064
1772045495261223400,6.114223388671875,-0.3299500346183777,-1.8669898509979248,-0.0271686390042305
1772045495271209200,6.124209228515625,-0.29815322160720825,-1.3391047716140747,0.08633288741111755
1772045495281195300,6.1341953125,-0.3368006944656372,-0.9507867097854614,0.13781966269016266
1772045495291181300,6.144181396484375,-0.4244469106197357,-0.8437939882278442,0.13330161571502686
1772045495301167400,6.15416748046875,-0.5387749075889587,-0.9750616550445557,0.12242395430803299
1772045495311153200,6.164153076171875,-0.5163068771362305,-1.3062888383865356,0.17466531693935394
1772045495321139500,6.174139404296875,-0.29404008388519287,-1.62246835231781,0.08387544006109238
1772045495331125200,6.184125244140625,-0.12404492497444153,-1.3450671434402466,0.11537451297044754
1772045495341111300,6.194111328125,0.07361965626478195,-0.8187419176101685,0.16514508426189423
1772045495351097300,6.204097412109375,0.29545271396636963,-0.5068855285644531,0.05907910689711571
1772045495361083400,6.21408349609375,0.5015777349472046,-0.2658403217792511,0.031080521643161774
1772045495371068200,6.224068115234375,0.6737667918205261,0.21793034672737122,0.16707643866539001
1772045495381054200,6.23405419921875,0.7847703099250793,0.7341621518135071,0.33798420429229736
1772045495391040300,6.244040283203125,0.8062081933021545,1.0031070709228516,0.42101171612739563
1772045495401026300,6.2540263671875,0.7253624200820923,1.202171802520752,0.4708007574081421
1772045495411012000,6.26401220703125,0.5634957551956177,1.384000301361084,0.5870107412338257
1772045495420998400,6.273998291015625,0.34861013293266296,1.466415286064148,0.7280181646347046
1772045495430984200,6.283984130859375,0.1256502866744995,1.337287425994873,0.8240466713905334
1772045495440970200,6.29397021484375,-0.03890131413936615,0.9866119027137756,0.8991584181785583
1772045495450956300,6.303956298828125,-0.10769209265708923,0.5915367603302002,1.0178747177124023
1772045495460942300,6.3139423828125,-0.11038888990879059,0.36193254590034485,1.1689701080322266
1772045495470928100,6.32392822265625,-0.05373307317495346,0.323662132024765,1.2998043298721313
1772045495480914400,6.33391455078125,0.06091326102614403,0.4464307427406311,1.3521808385849
1772045495490900200,6.343900146484375,0.20242752134799957,0.6483154296875,1.3352584838867188
1772045495500886300,6.35388623046875,0.3395840525627136,0.8037252426147461,1.2437251806259155
1772045495510872300,6.363872314453125,0.4494852125644684,0.8404288291931152,1.0926604270935059
1772045495520858400,6.3738583984375,0.5031407475471497,0.7790952324867249,0.9361556172370911
1772045495530844200,6.38384423828125,0.49431103467941284,0.681574285030365,0.834028422832489
1772045495540830500,6.39383056640625,0.4536626636981964,0.5728523135185242,0.8121502995491028
1772045495550816300,6.403816162109375,0.37803930044174194,0.4979589283466339,0.8660433888435364
1772045495560802300,6.41380224609375,0.2913685739040375,0.4880031943321228,0.9634448885917664
1772045495570788000,6.4237880859375,0.2360970675945282,0.5340470671653748,1.0580214262008667
1772045495580773400,6.4337734375,0.22091861069202423,0.55044025182724,1.0983613729476929
1772045495590759200,6.44375927734375,0.2462761551141739,0.5113168358802795,1.0784094333648682
1772045495600745200,6.4537451171875,0.30976319313049316,0.4321761429309845,1.0295023918151855
1772045495610731300,6.463731201171875,0.4005790948867798,0.35773149132728577,0.9716188311576843
1772045495620717300,6.47371728515625,0.49227434396743774,0.3131820559501648,0.9040991067886353
1772045495630703000,6.483703125,0.561728298664093,0.3137975037097931,0.8342380523681641
1772045495640689400,6.493689453125,0.6191851496696472,0.363691121339798,0.7712092995643616
1772045495650675200,6.50367529296875,0.6537162661552429,0.44205039739608765,0.6990917325019836
1772045495660661200,6.5136611328125,0.6645677089691162,0.5047945976257324,0.6161795258522034
1772045495670647000,6.52364697265625,0.6440778374671936,0.5619809031486511,0.5281479358673096
1772045495680633300,6.53363330078125,0.6019830703735352,0.6095654964447021,0.4430055320262909
1772045495690619100,6.543619140625,0.5478082299232483,0.6049926280975342,0.35998013615608215
1772045495700605200,6.553605224609375,0.4809231162071228,0.5456541776657104,0.3064798414707184
1772045495710591200,6.56359130859375,0.4199891984462738,0.4576987624168396,0.29346176981925964
1772045495720577300,6.573577392578125,0.3838854134082794,0.36766937375068665,0.2950058579444885
1772045495730563000,6.58356298828125,0.35945838689804077,0.27373144030570984,0.27814164757728577
1772045495740549400,6.59354931640625,0.350708544254303,0.21043863892555237,0.23709428310394287
1772045495750535200,6.60353515625,0.3410756289958954,0.20809079706668854,0.16776181757450104
1772045495760521200,6.613521240234375,0.3271641731262207,0.2606324851512909,0.08761189132928848
1772045495770507300,6.62350732421875,0.2943897247314453,0.3438378870487213,0.009532267227768898
1772045495780492300,6.6334921875,0.26140108704566956,0.4226020872592926,-0.03493216633796692
1772045495790478300,6.643478271484375,0.24061965942382812,0.4915878176689148,-0.019678913056850433
1772045495800464100,6.653464111328125,0.23035690188407898,0.53034508228302,0.026116125285625458
1772045495810450400,6.663450439453125,0.229792058467865,0.5617892742156982,0.07337818294763565
1772045495820436200,6.673436279296875,0.2509481906890869,0.6139739155769348,0.0803234651684761
1772045495830422300,6.68342236328125,0.26372602581977844,0.6679218411445618,0.05254989117383957
1772045495840408300,6.693408203125,0.2648441195487976,0.7228988409042358,-0.0016085966490209103
1772045495850394400,6.703394287109375,0.2650958001613617,0.7746224999427795,-0.051652587950229645
1772045495860380200,6.713380126953125,0.2848585247993469,0.8619070053100586,-0.05505557358264923
1772045495870366200,6.7233662109375,0.28707557916641235,0.9814304709434509,0.05592074617743492
1772045495880352300,6.733352294921875,0.3285295069217682,0.8461270332336426,0.15891417860984802
1772045495890338300,6.74333837890625,0.40028145909309387,0.5897301435470581,0.24699583649635315
1772045495900324400,6.753324462890625,0.45755451917648315,0.33990347385406494,0.32617804408073425
1772045495910310100,6.76331005859375,0.4655461311340332,0.19245252013206482,0.35894930362701416
1772045495920296200,6.773296142578125,0.44085583090782166,0.20334257185459137,0.3383144438266754
1772045495930282200,6.7832822265625,0.3993070423603058,0.3505392074584961,0.29826128482818604
1772045495940268300,6.793268310546875,0.35797062516212463,0.5009319186210632,0.28091195225715637
1772045495950254000,6.803254150390625,0.33330389857292175,0.5168035626411438,0.2532497048377991
1772045495960240400,6.813240478515625,0.34413161873817444,0.4891647398471832,0.2198469489812851
1772045495970226200,6.82322607421875,0.3889502286911011,0.4442438781261444,0.1714692860841751
