time,seconds_elapsed,z,y,x
1772031793256165600,0.07716552734375,2.1217373026728628,-0.4666559732407331,-0.40729770227782425
1772031793266114600,0.087114501953125,2.4123294375211,-0.6517210103429854,-0.4872586162865162
1772031793276062500,0.0970625,2.6173715331166982,-0.7363102417394518,-0.48414362607114014
1772031793286011400,0.107011474609375,2.68463889670372,-0.7708757975555955,-0.4440984332675114
1772031793295959600,0.11695947265625,2.587589558315277,-0.8284102871574461,-0.45006786306593566
1772031793305908500,0.126908447265625,2.399522562918067,-0.918188173238188,-0.4365954372262582
1772031793315857400,0.136857421875,2.1636340781599284,-0.9626987844854593,-0.40259237413108345
1772031793325805300,0.146805419921875,1.9252976157277821,-0.915940978833288,-0.3549388252155855
1772031793335754500,0.15675439453125,1.6941887664616107,-0.7620444024547934,-0.3362401891602203
1772031793345702400,0.166702392578125,1.4977847353518008,-0.579029283619672,-0.33812866978794337
1772031793355651600,0.176651611328125,1.2598708822458982,-0.4210015987858176,-0.3089323859199881
1772031793365600500,0.1866005859375,0.8870610674381255,-0.31754926148727536,-0.26044903511684386
1772031793375548700,0.196548583984375,0.555122776722908,-0.25587445721030233,-0.2422778935343027
1772031793385497600,0.20649755859375,0.39690380710065365,-0.23013328223228452,-0.34320465787798166
1772031793395446500,0.216446533203125,0.491039303869009,-0.2703986571252346,-0.5061715892123058
1772031793405394400,0.22639453125,0.7008984443575144,-0.3454028985746205,-0.6538802342034876
1772031793415343600,0.236343505859375,0.9062579353392124,-0.4618311834327876,-0.7426211053866892
1772031793425291500,0.24629150390625,1.0334288557469844,-0.5853193236745894,-0.776195823534578
1772031793435240400,0.256240478515625,1.129182893627882,-0.6580138268768787,-0.8485646019138395
1772031793445189400,0.266189453125,1.2277876447647809,-0.6718037211678922,-0.957851198323816
1772031793455137500,0.276137451171875,1.181288928440213,-0.6726970167458057,-1.0176322247434406
1772031793465086500,0.28608642578125,1.0628718078523873,-0.6172594994232058,-0.9702486884083599
1772031793475035400,0.296035400390625,0.8238058621019124,-0.5435577188745141,-0.8617544844850897
1772031793484983600,0.305983642578125,0.5586012664884329,-0.5626435276165604,-0.6299781112208962
1772031793494932500,0.315932373046875,0.16212065323591232,-0.5418474078252912,-0.34679219750855117
1772031793504880400,0.32588037109375,-0.48014790749847885,-0.5092372238606214,-0.09754853834854438
1772031793514829300,0.335829345703125,-1.2317045259475707,-0.44560383286178107,0.08894772800006903
1772031793524778500,0.345778564453125,-1.846967590856552,-0.60143649186939,0.033936217537196355
1772031793534726700,0.3557265625,-1.9934213038831947,-0.9413456153333186,-0.3611851722592488
1772031793544675600,0.365675537109375,-1.7206576711922883,-1.2216966344133018,-0.8796630661413073
1772031793554623500,0.37562353515625,-1.2816168501079082,-1.3103776651680468,-1.2150289201524107
1772031793564572700,0.38557275390625,-0.8354138823091983,-1.165738892608881,-1.1329056404780595
1772031793574521600,0.395521484375,-0.7691366988033056,-0.9096832336127757,-0.68329388714917
1772031793584469500,0.405469482421875,-1.3068652731329202,-0.818064395840466,-0.011515236490452661
1772031793594418400,0.41541845703125,-2.252949607425928,-0.7903580582693218,0.7529461731113493
1772031793604367600,0.42536767578125,-3.283426627629995,-0.637550300040841,1.635063792797923
1772031793614315500,0.4353154296875,-4.183974953150749,-0.23061580505222082,2.5088240646362303
1772031793624264400,0.445264404296875,-4.6797652509391305,0.4648968546137213,3.1158234513297676
1772031793634212600,0.455212646484375,-4.726369181203842,1.172032001403719,3.3399390807077287
1772031793644161500,0.46516162109375,-4.5324528752565385,1.5263083806551991,3.0217227336138484
1772031793654110500,0.4751103515625,-4.238425505262613,1.655002418977022,2.2894296185612677
1772031793664058400,0.485058349609375,-3.9121974088877436,1.6626375900305808,1.710724890720844
1772031793674007300,0.49500732421875,-3.368057213950157,1.7094959334477782,1.2791093973316252
1772031793683955500,0.50495556640625,-2.6939631898880005,1.8322519600227474,0.9119234137549996
1772031793693904400,0.514904296875,-1.8915718717366456,1.9523168478175996,0.6622318098980933
1772031793703853600,0.524853515625,-1.0921955174922942,1.9586827295877038,0.5628618100097402
1772031793713801700,0.5348017578125,-0.320505042552948,1.9076830485820768,0.5470758099980652
1772031793723750700,0.544750732421875,0.4181465016156435,1.8034227559015155,0.5545055946726352
1772031793733699600,0.554699462890625,1.1134376274853943,1.6310073570139705,0.4965765527952462
1772031793743647500,0.5646474609375,1.7600497703820466,1.3884206897914408,0.41555385477393864
1772031793753596700,0.5745966796875,2.388369885262847,1.1944006312087176,0.38021183469258246
1772031793763544600,0.584544677734375,2.906668951979279,0.9617819619014859,0.3799476307984441
1772031793773493500,0.594493408203125,3.281138224431872,0.7203478257149457,0.4231884047729894
1772031793783442400,0.6044423828125,3.498473984411359,0.4326461516112089,0.46500002272725105
1772031793793390600,0.614390625,3.58385100518465,0.1272226505950093,0.45822227222062645
1772031793803339500,0.624339599609375,3.4979186886161564,-0.08931611378788948,0.40867008660957216
1772031793813287400,0.634287353515625,3.365249755313992,-0.13387187935113906,0.37799751964397726
1772031793823236400,0.644236328125,3.2684833255201577,-0.05800795233249664,0.2472436079165898
1772031793833185500,0.654185546875,3.0823207024395463,-0.05586889447718858,0.0423808966090437
1772031793843133400,0.664133544921875,2.882368623459339,0.04302840986549854,-0.07325259374277666
1772031793853082400,0.674082275390625,2.6672464478760958,0.05835077442079782,-0.18749770760927348
1772031793863031300,0.68403125,2.5253672031581402,0.004841887073218822,-0.24852940994342787
1772031793872979500,0.6939794921875,2.475736034026742,-0.04006839101612568,-0.3274553731475025
1772031793882928600,0.7039287109375,2.391927870005369,-0.061520928889513014,-0.43353374810069795
1772031793892876300,0.713876220703125,2.137994025468826,-0.06898994959592819,-0.5259564496017992
1772031793902825500,0.723825439453125,1.7057675605744123,-0.008349310672283172,-0.47892106911726295
1772031793912774700,0.733774658203125,1.2610375879377127,0.05692074161767959,-0.3928157340694219
1772031793922722600,0.74372265625,0.8434796998649835,0.08796703726649284,-0.3490438488928601
1772031793932671500,0.75367138671875,0.37734453562796116,0.08502747668325901,-0.25065427487660197
1772031793942619600,0.76361962890625,-0.04228606706559658,0.034677053366601464,-0.1598703535584733
1772031793952568600,0.773568603515625,-0.4673240817606449,-0.060391048076748846,-0.06446759506696835
1772031793962517500,0.783517578125,-0.44137130985856055,-0.21498218259066343,-0.13253836572505534
1772031793972465400,0.79346533203125,0.3874380596190691,-0.8008788677617907,-0.6753412476442754
1772031793982414600,0.80341455078125,0.6043319210499525,-1.2746388277888296,-0.8723986280962824
1772031793992363500,0.813363525390625,0.4495423413544893,-1.2292112478271127,-0.39164793239906426
1772031794002311400,0.8233115234375,0.11274141303896903,-1.130611465126276,0.04607197881247848
1772031794012260400,0.83326025390625,-0.1703004525601864,-1.1987409985005855,0.18486509408336133
1772031794022208500,0.84320849609375,-0.24876257937848567,-1.1995321488782762,0.2328941617803648
1772031794032157400,0.853157470703125,-0.25825872199833394,-1.00602179338336,0.21671032155752182
1772031794042106400,0.8631064453125,-0.20386369946599006,-0.7503323373511434,0.034114049188978965
1772031794052054500,0.873054443359375,-0.0042144028246402735,-0.3670546122819185,-0.3646910614883527
1772031794062003700,0.883003662109375,0.4030278429389,-0.5610593271650374,-1.2343667308941482
1772031794071951400,0.892951416015625,0.5925462061882019,-0.8158623557515442,-1.7148142058610916
1772031794081900500,0.902900634765625,0.4775771802276373,-0.9107479402348398,-1.7866171670511364
1772031794091849500,0.912849365234375,0.036225159591436386,-0.8155795932874083,-1.5745546712994574
1772031794101797600,0.922797607421875,-0.8442185355335473,-0.6151508367061614,-1.0697038458295165
1772031794111746600,0.93274658203125,-1.9206325465261935,-0.4541168096631765,-0.5078438332734629
1772031794121695500,0.942695556640625,-2.959405101388693,-0.3066585957691073,-0.008622145397448912
1772031794131643600,0.9526435546875,-3.8092929147303103,-0.09829948458001017,0.3836363292485475
1772031794141592600,0.962592529296875,-4.23281818677485,0.14977759675234556,0.5739168725093826
1772031794151540500,0.97254052734375,-4.141257508930564,0.4488689721375704,0.5195323713710531
1772031794161492700,0.98249267578125,-3.6610949883848427,0.7823902942605316,0.2995197020662017
1772031794171442000,0.99244189453125,-3.0123470025032755,1.0322582045324147,0.023392821753583846
1772031794181389800,1.002389892578125,-2.1937334483474493,1.1491804103873668,-0.29346809214334935
1772031794191339000,1.012339111328125,-1.278472706863284,1.0959728440739214,-0.6346656114500016
1772031794201288000,1.022287841796875,-0.3876128316640854,0.8758338632419704,-0.9457942653052508
1772031794211236000,1.032236083984375,0.33245325450003144,0.574865588068962,-1.2161693954244255
1772031794221185000,1.04218505859375,0.775428492423892,0.23491291772425174,-1.4249566688977182
1772031794231133000,1.0521328125,0.901267871966958,-0.062406187291443344,-1.5563454992614685
1772031794241081900,1.062081787109375,0.773815212008357,-0.28193974957615137,-1.5913526613652704
1772031794251031000,1.072031005859375,0.4773796118289232,-0.3780412857204675,-1.5080039315491913
1772031794260979000,1.08197900390625,0.019635843840241432,-0.26046178500056266,-1.2508281824819742
1772031794270928000,1.091927978515625,-0.4954962832778692,0.040082711802422996,-0.9216340759083628
1772031794280876000,1.1018759765625,-0.9645891282767057,0.41343057900965213,-0.6377868852756917
1772031794290825000,1.111824951171875,-1.4482751467734574,0.7532162222243846,-0.4149470479872078
1772031794300774000,1.12177392578125,-1.9404910932064054,1.012784857777506,-0.21222002440094948
1772031794310721800,1.1317216796875,-2.317641567566991,1.2060682726487517,-0.07023388524241746
1772031794320670700,1.141670654296875,-2.464506784003973,1.39942606793046,0.02596007842570543
1772031794330620000,1.151619873046875,-2.388504325297475,1.5572341186642646,0.016386925046890974
1772031794340567800,1.16156787109375,-2.155361339855194,1.7078654096364974,-0.013839286390691995
1772031794350517000,1.17151708984375,-1.6745733808875083,1.8572357407622038,-0.09888882877528667
1772031794360465000,1.18146484375,-0.9658353289455175,1.9238183369554578,-0.22725758066549895
1772031794370414000,1.1914140625,-0.1347720430612564,1.8011759998880326,-0.3248700328294188
1772031794380363000,1.201363037109375,0.6611760903000832,1.5246708425812423,-0.41079394689574833
1772031794390311000,1.211310791015625,1.392428171867132,1.2186400233216583,-0.44618806249052284
1772031794400260000,1.221260009765625,1.9650036031723022,0.9370891269326209,-0.40633894024826583
1772031794410208000,1.2312080078125,2.3900644142210483,0.6729973148666322,-0.31783129329904913
1772031794420157000,1.241156982421875,2.6726819169282914,0.4123321162484586,-0.23680013797665014
1772031794430105900,1.25110595703125,2.8763217445105314,0.1740567363537848,-0.10658371239313855
1772031794440054000,1.261053955078125,3.003121493518352,-0.021598229954391715,-0.005827135250903666
1772031794450003000,1.2710029296875,3.073468118420243,-0.22209888272807002,0.05213980921776965
1772031794459951900,1.280951904296875,3.0645056442856786,-0.43465939112976193,0.10470550656425766
1772031794469899800,1.290899658203125,2.9375895754218098,-0.6077670100651681,0.18780147632881997
1772031794479849000,1.300848876953125,2.6993291008353233,-0.714953857716918,0.29608897869884965
1772031794489796900,1.310796875,2.356036472412944,-0.7417560860551893,0.4138129293907434
1772031794499745800,1.320745849609375,1.9724767155319451,-0.6970642730221152,0.5611524853412062
1772031794509694700,1.33069482421875,1.644864471322298,-0.623710282997787,0.6762168614350259
1772031794519643000,1.340642822265625,1.3628349976360796,-0.5274786907330155,0.7007179732240736
1772031794529592000,1.350592041015625,1.1246820750772952,-0.4698962703362107,0.6404827732961624
1772031794539539700,1.360539794921875,0.945453635174036,-0.4609190370239317,0.5741656596386805
1772031794549489000,1.370489013671875,0.8330109128206968,-0.4702957910478115,0.5371125613231211
1772031794559438000,1.38043798828125,0.7855787150382996,-0.5036152923256159,0.5662458629574626
1772031794569386000,1.390385986328125,0.7845020257174968,-0.5628820125475525,0.5811486503938212
1772031794579335000,1.4003349609375,0.8136123848676681,-0.6470398667894304,0.5761993208907544
1772031794589283800,1.410283935546875,0.8879980560272932,-0.709382048933953,0.552716555831395
1772031794599232000,1.42023193359375,0.9305296222865581,-0.7124854217767715,0.5526637661982328
1772031794609181000,1.430180908203125,0.8791291053950786,-0.6660868048258125,0.6253143571935593
1772031794619128800,1.44012890625,0.7644424035072326,-0.5834346789717674,0.6999477925691753
1772031794629078000,1.450078125,0.7043366021126508,-0.4671311895370483,0.7046127887055278
1772031794639027000,1.46002685546875,0.6378168420225382,-0.3437741283290088,0.6870384074397384
1772031794648974800,1.469974853515625,0.4068757505387068,-0.28605785241946574,0.5664531490325927
1772031794658923800,1.479923828125,0.0034381577551364896,-0.6114620651908218,0.17258723005680365
1772031794668873000,1.489873046875,-0.10938918000161647,-1.278590488024056,-0.4456051480360329
1772031794678820900,1.49982080078125,0.15505787524282932,-1.833103023894131,-0.9699264707166702
1772031794688769800,1.509769775390625,0.4986123694717884,-2.0861603778570887,-0.9088802466668188
1772031794698718000,1.519718017578125,0.5938520280897617,-2.0105556862965224,-0.2823526412259787
1772031794708667100,1.529667236328125,0.1437964765161276,-1.9018670557796955,0.41338020052928476
1772031794718616000,1.539615966796875,-0.6888140388101339,-1.9661931052178143,0.7973164991050958
1772031794728564000,1.54956396484375,-1.908613607430458,-1.8938485844969748,1.1382168255634606
1772031794738513000,1.559512939453125,-3.376003789040446,-1.2626834554485975,1.6996736276134847
1772031794748461000,1.5694609375,-4.794869301456213,-0.2152640682719648,2.2986164029709992
1772031794758410000,1.579409912109375,-6.082160690069198,0.91316289242208,2.692299932850897
1772031794768359000,1.58935888671875,-6.906017405575513,1.9069446513049304,2.830828990358114
1772031794778307000,1.59930712890625,-6.983623792347312,2.6421710433304306,2.767653572259843
1772031794788256000,1.609256103515625,-6.48692047136724,2.9974273735299706,2.623819101820886
1772031794798205000,1.619204833984375,-5.583856948155164,2.9917890753820537,2.6028292130231856
1772031794808152800,1.62915283203125,-4.541670785456896,2.7569758186399933,2.6053058322697877
1772031794818101800,1.639101806640625,-3.563621871626377,2.340506456456333,2.76808845654577
1772031794828050000,1.6490498046875,-2.3593781840562817,1.978482093426585,3.0970670206725597
1772031794837998800,1.658998779296875,-1.0280424865335225,1.6434570887424051,3.2974861326426264
1772031794847947800,1.66894775390625,0.3005535568922758,1.3505420639045536,3.2238650161147118
1772031794857896000,1.67889599609375,1.54058810428977,1.107961314966157,2.9183529600322244
1772031794867844900,1.688844970703125,2.61393629797101,0.8128869201373309,2.4298048884570598
1772031794877792800,1.698792724609375,3.4819600719839334,0.466965769842267,1.8553725772388279
1772031794887741700,1.70874169921875,4.1734833697527645,0.13839293697215616,1.2871350290074943
1772031794897691100,1.718691162109375,4.653082411196827,-0.1703190111301839,0.781571817484498
1772031794907639000,1.72863916015625,4.903101712638139,-0.4707334518127143,0.3318723128069192
1772031794917588000,1.738587890625,4.815026538822055,-0.7339697430279105,0.02278166758529842
1772031794927537000,1.748536865234375,4.451704683327675,-0.9360796576291323,-0.053818610883876676
1772031794937485000,1.758485107421875,3.9035979228466746,-0.9417687361162155,0.10401311298646032
1772031794947434000,1.76843408203125,3.2272745322972534,-0.7103118771299719,0.3944025648694485
1772031794957382000,1.7783818359375,2.5705519142746924,-0.4283640903778374,0.6450922398529947
1772031794967330800,1.788330810546875,1.9130249941319226,-0.1626323290850967,0.810406209237501
1772031794977280000,1.798280029296875,1.2295225057333707,0.11626271903291344,0.9000898411635309
1772031794987228000,1.808227783203125,0.5400169775277376,0.4535100028764456,0.8965703618004918
1772031794997176800,1.8181767578125,0.05897475153803825,0.7622431398972869,0.720000985038653
1772031795007125800,1.828125732421875,-0.08171674470007419,0.9167995684240012,0.344805590268597
1772031795017074000,1.838073974609375,0.06863923646211624,0.9557004500307142,-0.08345704902876168
1772031795027022800,1.84802294921875,0.4180974017769098,0.8586402249220758,-0.4306843500189483
1772031795036970800,1.857970703125,0.8389385493040085,0.737676123265177,-0.6349862947717309
1772031795046920000,1.867919921875,1.2433657376468181,0.6352621160384267,-0.7039097550027072
1772031795056869000,1.877869140625,1.5808739374488592,0.5178303532261401,-0.6740472623109817
1772031795066816800,1.887816650390625,1.7698153775930403,0.3656369275037199,-0.6491267560660838
1772031795076766000,1.897765869140625,1.8619594082832336,0.166543145853281,-0.6273004895094781
1772031795086714000,1.907714111328125,1.9430612359553574,-0.049354946005903184,-0.6303918065883218
1772031795096663000,1.9176630859375,1.9621119733840227,-0.26390476506128907,-0.6663244129739702
1772031795106612000,1.927612060546875,1.821036446264386,-0.4417253839932382,-0.6884071385096758
1772031795116560000,1.937559814453125,1.5965443847894667,-0.5842128237374127,-0.6943074485946447
1772031795126509000,1.947509033203125,1.4563392107635735,-0.7247758712902664,-0.8220123297486454
1772031795136458000,1.9574580078125,1.3516384808391333,-0.9343899509765207,-1.0083860382966696
1772031795146406000,1.967406005859375,1.2009352936744688,-1.1851687655482441,-1.1817911788739264
1772031795156350700,1.977350830078125,0.9607739539027214,-1.4027116654723881,-1.2836550779372453
1772031795166298600,1.987298583984375,0.6019125849485397,-1.5879514746196568,-1.2712807495325802
1772031795176247600,1.99724755859375,0.23783611169457433,-1.7932859772905707,-1.1535199008964
1772031795186196500,2.007196533203125,-0.08598316997289657,-2.0184946626022455,-0.9498943941004574
1772031795196144600,2.01714453125,-0.3882207344293594,-2.199742625634372,-0.6854293648079037
1772031795206093600,2.027093505859375,-0.8560001587420701,-2.2370234317585824,-0.3463169446796179
1772031795216042500,2.03704248046875,-1.5440110644757747,-2.0361283728398383,-0.013529562854394316
1772031795225990700,2.04699072265625,-2.2081009963959453,-1.7428040365487336,0.21355587611459195
1772031795235939800,2.05693994140625,-2.657340555411577,-1.5368454106301068,0.3263838714584708
1772031795245887500,2.066887451171875,-2.8891034846723076,-1.3904587714903056,0.27256350700892507
1772031795255836700,2.076836669921875,-2.9151673157334326,-1.305800566510856,0.0700100133586675
1772031795265785600,2.08678564453125,-2.73182325720489,-1.3025981172077357,-0.328657442413643
1772031795275733800,2.096733642578125,-2.3019746273577213,-1.5016294280812144,-0.9452504407521337
1772031795285682700,2.1066826171875,-1.6279238579154014,-1.7200547368630765,-1.6539676691018044
1772031795295631600,2.116631591796875,-1.0353104317098856,-1.6939640177950261,-2.162349883568287
1772031795305579800,2.126579833984375,-0.8790133700609206,-1.402841283201426,-2.3931153262242675
1772031795315528700,2.13652880859375,-1.3638777846872805,-0.8429442778140306,-2.361903903141618
1772031795325476600,2.1464765625,-2.392103811094165,-0.16890910779964177,-2.0746581561118362
1772031795335425500,2.156425537109375,-3.716238783457875,0.46097734308242794,-1.5794079565495251
1772031795345374500,2.16637451171875,-4.902534141883254,1.1073000015132128,-0.9259477013237774
1772031795355322600,2.176322509765625,-5.477628278011084,1.6282866998784242,-0.4284586367934942
1772031795365271600,2.186271484375,-5.338915972891449,1.7798171316474676,-0.2511005025404505
1772031795375219500,2.196219482421875,-4.528704920899868,1.581137995212525,-0.33863113941736517
1772031795385168600,2.206168701171875,-3.4336160200536248,1.2696151544079184,-0.5463897274300455
1772031795395117600,2.21611767578125,-2.4578981795191766,1.026736372371018,-0.6809325648453086
1772031795405065500,2.2260654296875,-1.7301029604077338,0.8962625379603356,-0.6751791889503598
1772031795415014700,2.2360146484375,-1.271713880252838,0.827842204945907,-0.6338174701880663
1772031795424963800,2.2459638671875,-1.0715239008635282,0.7719320286102592,-0.608617124088481
1772031795434911700,2.255911865234375,-1.0159680178582668,0.7387589500658214,-0.5754116776444017
1772031795444860700,2.265860595703125,-0.9574532850474119,0.7834102849580347,-0.5118638095045462
1772031795454808800,2.275808837890625,-0.9002484657913445,0.9318567792370915,-0.36576018855720754
1772031795464757800,2.2857578125,-0.8324930264264344,1.106263790333271,-0.16242204733528195
1772031795474706700,2.295706787109375,-0.7511544673889875,1.2974741983227431,0.07203103432487697
1772031795484654600,2.305654541015625,-0.6186439395189285,1.4587880652204155,0.27703084341501816
1772031795494603500,2.315603515625,-0.4377291539639234,1.5801229729510844,0.45069962163083255
1772031795504552700,2.325552734375,-0.15567396131455896,1.7003543033540247,0.5491946287829429
1772031795514500600,2.33550048828125,0.2552846746236086,1.8067710434161126,0.5685583411509171
1772031795524449500,2.345449462890625,0.749967303431034,1.8816722628824412,0.5158817033763975
1772031795534397700,2.355397705078125,1.2862006707668303,1.9466800109744071,0.3982677523976192
1772031795544346600,2.3653466796875,1.7740683588624,1.9628081389546392,0.26498390206750483
1772031795554295600,2.375295654296875,2.179602631664276,1.9469179113835096,0.15893928325343876
1772031795564243500,2.385243408203125,2.510750064262748,1.8632967943668364,0.07555738182011991
1772031795574192600,2.395192626953125,2.786078579005599,1.7173314493790268,0.0372196505215019
1772031795584141800,2.405141845703125,3.0168273627877236,1.5646888185843824,-0.02985197129771113
1772031795594089700,2.41508984375,3.1658319293409583,1.3766779372885822,-0.058260538854077455
1772031795604038700,2.42503857421875,3.209360105422139,1.165281796491146,-0.01455079566091299
1772031795613986800,2.43498681640625,3.1631729392647743,0.9815165899410844,0.055036243045330044
1772031795623935700,2.444935791015625,3.0411592554897067,0.8185068789109587,0.10235117112360895
1772031795633884700,2.454884765625,2.9021389073342085,0.6832414993748068,0.10822123220078647
1772031795643832600,2.46483251953125,2.6866671876609325,0.5729793359309434,0.13764774462804197
1772031795653781800,2.47478173828125,2.349877365261316,0.5292500843197107,0.21398659568205475
1772031795663729700,2.484729736328125,1.9820991148799656,0.5200485407322645,0.2536640146192163
1772031795673678600,2.4946787109375,1.5663655196249484,0.44784927370101213,0.21627784842438993
1772031795683627500,2.50462744140625,1.1857862398594616,0.3452782492816448,0.1653279613772407
1772031795693575700,2.51457568359375,0.8481669808983803,0.2853399134084582,0.1421845112748444
1772031795703524600,2.524524658203125,0.515398084577918,0.2751445364780724,0.13614347754493356
1772031795713473500,2.5344736328125,0.22425474558770656,0.2867432043351233,0.08918390224296599
1772031795723421700,2.544421630859375,0.009532382977008818,0.29601138341799377,0.07300300289588049
1772031795733370600,2.55437060546875,-0.1283802961975336,0.3186721280373633,0.08004042725199834
1772031795743318500,2.564318603515625,-0.20682547188103198,0.35141982077658174,0.12794339348445646
1772031795753267500,2.574267333984375,-0.22714695989787578,0.33052506291642786,0.21924871746134011
1772031795763216600,2.584216552734375,-0.16232406685352324,0.2645978618919849,0.32127873033918436
1772031795773164800,2.594164794921875,0.01677636275589466,0.11032426889464259,0.3855417975436896
1772031795783113700,2.60411376953125,0.22577917867600916,-0.15289675168618558,0.3723809218712151
1772031795793062700,2.614062744140625,0.4908680389553308,-0.5094540814816951,0.29190155521268024
1772031795803010800,2.6240107421875,0.8717091845273971,-0.9400529451742767,0.1285586119065061
1772031795812959700,2.633959716796875,1.206710954466462,-1.3549455595605076,-0.03553151477146894
1772031795822907600,2.64390771484375,1.3751578881144524,-1.645011478577554,-0.1300011753976345
1772031795832856600,2.653856689453125,1.3201309974193571,-1.8382542691774666,-0.15031974080502986
1772031795842805500,2.663805419921875,0.9880366393595933,-1.918062842168659,-0.06107066437136382
1772031795852753700,2.673753662109375,0.4807435353040695,-1.8983079019933937,0.0379750719986856
1772031795862702600,2.68370263671875,-0.14860241549313066,-1.7762869116947053,0.16136198035571722
1772031795872651500,2.693651611328125,-0.8863847756117582,-1.634711033837497,0.2507935006842017
1772031795882599700,2.703599609375,-1.6532728187054395,-1.661424707109481,0.213207245340012
1772031795892548600,2.713548583984375,-2.133229587545991,-1.835758799099922,0.08060041748862713
1772031795902496500,2.72349658203125,-2.1552467735648153,-1.975778825817257,-0.08785261710658669
1772031795912445400,2.733445556640625,-1.805590455329418,-1.9686977815151214,-0.1367157244749367
1772031795922394600,2.74339453125,-1.249529520973563,-1.8313873060174286,-0.06039309390336275
1772031795932342500,2.753342529296875,-0.6828390560537576,-1.5199357768833637,0.012303455125540494
1772031795942291700,2.763291748046875,-0.41586920433342456,-1.1256081038810313,0.03378156583160162
1772031795952240600,2.77324072265625,-0.7466437119662761,-0.7529819750770926,0.1472328441729769
1772031795962188800,2.783188720703125,-1.718340041899681,-0.25935733088999985,0.5336216139348223
1772031795972137700,2.7931376953125,-2.885907903501391,0.3177604200199246,0.9678596743799746
1772031795982085600,2.803085693359375,-3.994281817856431,0.8750045728109777,1.294627722850442
1772031795992034600,2.81303466796875,-4.84595651461482,1.4403484454274176,1.487316240568459
1772031796001983700,2.822983642578125,-5.08667256565988,1.8688934453301131,1.456634978839755
1772031796011931600,2.832931640625,-4.712641684624552,2.1050943570382894,1.2946940660849213
1772031796021880600,2.842880615234375,-3.9100048672795293,2.25808857774958,1.1946583322968334
1772031796031829500,2.85282958984375,-2.85295548197031,2.3808232692755755,1.1723447936799376
1772031796041777700,2.862777587890625,-1.7376421237409114,2.3504367527097463,1.2169440330587327
1772031796051726600,2.8727265625,-0.7177636544406414,2.128823315411061,1.2608245297089218
1772031796061674500,2.882674560546875,0.1272825640887022,1.8282889016106723,1.312876496246457
1772031796071623700,2.892623779296875,0.8666425487875938,1.5402949665620922,1.3515377969436346
1772031796081572600,2.902572509765625,1.4855676433354614,1.3430313960134983,1.3090987312734126
1772031796091520500,2.9125205078125,1.9989578952223062,1.1749293302804231,1.1838844978913665
1772031796101469400,2.922469482421875,2.387923310539126,1.0332157975181937,1.0971681182730941
1772031796111418600,2.932418701171875,2.663635271641612,0.9487804415091872,1.0496914237618447
1772031796121366800,2.94236669921875,2.8190222327083347,0.9098778794020413,0.9752046303153038
1772031796131315700,2.952315673828125,2.885107108512521,0.8968143996894359,0.8956169335331767
1772031796141263600,2.962263671875,2.873964952251315,0.9035016223683953,0.8268865847215056
1772031796151212800,2.972212890625,2.812636331063509,0.9399547454968095,0.7682878999542444
1772031796161162800,2.982162841796875,2.785899715307355,0.9733628018409013,0.6852460441302508
1772031796171111000,2.99211083984375,2.6991607585310935,0.9502946454644202,0.5860521679937839
1772031796181059800,3.002059814453125,2.586127084547281,0.9369774832516908,0.46097924277856944
1772031796191007700,3.0120078125,2.3991093059420585,0.9642027593076229,0.37021990791242565
1772031796200957000,3.02195703125,2.2652426872879263,1.038368357975781,0.2826978927333839
1772031796210905900,3.03190576171875,2.162097370111942,1.0958613465234637,0.09277734189135953
1772031796220853800,3.041853759765625,2.0145523547172544,1.084450602453947,-0.06651929429923184
1772031796230802700,3.051802734375,1.8427233774155378,1.024729416462779,-0.1701381564042531
1772031796240751900,3.061751953125,1.7195120082885027,0.9231102859407663,-0.2105045074536465
1772031796250700000,3.071699951171875,1.7064742475390433,0.8088497005105019,-0.328529907043837
1772031796260649000,3.08164892578125,1.7623837662875652,0.635060821312666,-0.44928748981058597
1772031796270596900,3.091596923828125,1.7806968370914458,0.4652475677475333,-0.5169204718396068
1772031796280546000,3.101546142578125,1.7180074489444492,0.29768267763108014,-0.5508992772763595
1772031796290495000,3.111494873046875,1.5452987661987543,0.08655424785912036,-0.606445479137823
1772031796300443000,3.12144287109375,1.3023165237873793,-0.08581497379913926,-0.6144073248624802
1772031796310391800,3.131391845703125,1.0659323644667864,-0.14140256711691618,-0.5723469563115388
1772031796320341000,3.141341064453125,0.7764175034612417,-0.1266561027534306,-0.5459416914016008
1772031796330289000,3.151288818359375,0.5364326893001794,-0.08935089284032582,-0.5763775270018726
1772031796340237800,3.16123779296875,0.35645255424678324,-0.10562982746809721,-0.674803560571
1772031796350186000,3.17118603515625,0.2033949129104614,-0.19622224480211733,-0.843634086709097
1772031796360135000,3.181135009765625,0.03652735740840435,-0.3977867274150252,-1.0651269663680345
1772031796370083800,3.191083740234375,-0.13121055118739605,-0.6494473663225769,-1.2497780889071524
1772031796380031700,3.20103173828125,-0.3436877652198076,-0.9268895852837711,-1.2803807324416934
1772031796389980700,3.210980712890625,-0.5868330892384052,-1.2153987033128737,-1.1276578760176896
1772031796399929900,3.220929931640625,-0.7916647569537162,-1.482817467844486,-0.8748070774774998
1772031796409877800,3.230877685546875,-0.9034943158447742,-1.7023692964382469,-0.6011121918184682
1772031796419827000,3.240826904296875,-0.8766127386599779,-1.8492250143945217,-0.32016616598740216
1772031796429774800,3.25077490234375,-0.7901742261350154,-1.9418395852059125,-0.07376418739357031
1772031796439724000,3.26072412109375,-0.5840256306022406,-1.8676029671281575,0.023306865069759077
1772031796449673000,3.2706728515625,-0.3105313455492258,-1.666652378629893,-0.06258790510047692
1772031796459620900,3.280620849609375,-0.09014087417423725,-1.4313479773700237,-0.23331026830058543
1772031796469570000,3.290570068359375,-0.01507014335989952,-1.2404992422997951,-0.4408399063955992
1772031796479519000,3.30051904296875,-0.039894203492999075,-1.095565797642991,-0.6380917865063995
1772031796489467000,3.310466796875,-0.10946692141294478,-0.9473918366950005,-0.8397277269203215
1772031796499415800,3.320415771484375,-0.3181716311693191,-0.7701833583120257,-0.9660871117495
1772031796509364000,3.330364013671875,-0.6064297701120376,-0.5559091778602451,-0.9482610207449644
1772031796519313000,3.34031298828125,-0.8468143972456454,-0.35400954500883813,-0.8465272508673369
1772031796529261800,3.35026171875,-0.973667337745428,-0.21776589502505958,-0.7218083997868001
1772031796539209700,3.360209716796875,-0.9741320326477289,-0.28552389167323705,-0.6606323388122022
1772031796549159000,3.370158935546875,-0.8085077552050352,-0.5362887507848442,-0.6973413363978266
1772031796559107800,3.38010791015625,-0.49849604961574073,-0.8747511095065623,-0.740061557096988
1772031796569055700,3.3900556640625,-0.14824235000908373,-1.1278052485991268,-0.7621861490130424
1772031796579004700,3.400004638671875,0.13847849636375903,-1.266880614877492,-0.7015733479443937
1772031796588952800,3.409952880859375,0.20514789405763148,-1.2909833749987185,-0.6774816937390714
1772031796598902000,3.419902099609375,-0.07786766805648804,-1.1813732457228003,-0.6261516117352992
1772031796608851000,3.429850830078125,-0.44435938575863837,-1.004941596931219,-0.7682143232613802
1772031796618798800,3.439798828125,-0.8242156119465828,-0.5349953865060583,-2.588051622869074
1772031796628748000,3.449748046875,-0.7067021622002124,-0.5997423282373696,-1.9374138777181504
1772031796638697000,3.459697021484375,-0.5167138433516025,-0.38376477793380614,-0.5270518801556899
1772031796648644900,3.469644775390625,-0.9963467870652675,0.6265827696941793,0.8882839602965861
1772031796658593800,3.47959375,-1.7967361177444456,1.5712084296114741,1.3720450167909264
1772031796668542000,3.4895419921875,-2.1625965518057346,1.3369510531865059,0.9461187480192631
1772031796678491000,3.499490966796875,-2.298020921295881,0.6405280006773769,0.2026912946857512
1772031796688439800,3.509439697265625,-2.233370462208986,0.49285088333562016,-0.3261395413085818
1772031796698388000,3.519387939453125,-1.9009043482273815,0.6960090648807585,-0.3230328074648976
1772031796708337000,3.5293369140625,-1.452023101130128,0.8053824627913534,-0.12066285368800163
1772031796718285800,3.539285888671875,-1.0923866561502218,0.7851061290904879,-0.00890219531469047
1772031796728233700,3.549233642578125,-0.9017045098185539,0.6870990515857934,-0.11962196633294224
1772031796738182700,3.5591826171875,-0.8000444627642631,0.5946567686013877,-0.3979187562968582
1772031796748130800,3.569130859375,-0.7878601039737463,0.552734566412121,-0.580718113489449
1772031796758079700,3.579079833984375,-0.5878010574877262,0.5445594432629645,-0.4951242350950837
1772031796768029000,3.58902880859375,-0.17792144895792006,0.6059257661126554,-0.3177352125134319
1772031796777977000,3.59897705078125,0.2604384041249752,0.6794305627845227,-0.1705759815659374
1772031796787926000,3.608926025390625,0.6521487342357635,0.8359836450211703,-0.03312551307566464
1772031796797875000,3.618875,0.883619402551651,1.044962203282863,0.10418003051858395
1772031796807822800,3.62882275390625,0.8226800729423761,1.1705807796820997,0.2225247434573248
1772031796817772000,3.63877197265625,0.6005033026725053,1.0759154138207434,0.20534827546793966
1772031796827720000,3.648719970703125,0.4608750517517328,0.8905806198664009,0.058311556655261665
1772031796837668900,3.6586689453125,0.5717646994441747,1.0315950644485652,0.038089912283699956
1772031796847617800,3.66861767578125,0.7650076361745596,1.3870996703207492,0.21935709147294982
1772031796857566000,3.67856591796875,0.8647796775251626,1.656090944866091,0.4113106642462313
1772031796867515000,3.688514892578125,0.9471405653476714,1.733155625976622,0.6022095220685005
1772031796877463800,3.6984638671875,0.9708148709237575,1.5477559500925242,0.7938863054607063
1772031796887411700,3.70841162109375,1.0234989978849887,0.6656238634891808,1.1455679189786314
1772031796897361000,3.71836083984375,0.998376831588149,-0.8195799149699509,1.4270608015701174
1772031796907308800,3.728308837890625,0.9156009332239627,-0.8189891094699502,0.7861005469553172
1772031796917257700,3.7382578125,1.9007026881754396,-0.5671145355507731,0.23805209253281354
1772031796927207000,3.74820703125,2.2667104217529297,-0.027665128777921197,0.4347298260174691
1772031796937154800,3.75815478515625,2.2129759089559315,0.1161260870411992,0.6995473220095038
1772031796947104000,3.76810400390625,1.6339052704125643,-0.13893822282999754,0.7784948942571878
1772031796957053000,3.778052978515625,0.9404027815252541,-0.2765790993258357,0.6731747903253883
1772031796967001000,3.7880009765625,0.5040501766115427,-0.11236556546390056,0.5598558696594089
1772031796976950000,3.797949951171875,0.44869303104877467,0.17031506560742854,0.49775794459953904
1772031796986898000,3.80789794921875,0.5600625712126494,0.3640232817620039,0.46525209779217835
1772031796996846800,3.817846923828125,0.6679904464900493,0.3297095087498426,0.43917657629325985
1772031797006795800,3.827795654296875,0.6022293958127498,-0.0809668031156063,0.346538113149628
1772031797016744000,3.837743896484375,0.613503069499135,-0.3513992163799703,0.3174883250802755
1772031797026692900,3.84769287109375,0.8421703708320856,-0.4812655133515596,0.22272424808479843
1772031797036641800,3.857641845703125,0.95508830948174,-0.7631682919181882,0.020074016061797737
1772031797046590000,3.86758984375,0.9549947859793901,-0.8596038823224603,-0.07471088452599942
1772031797056539000,3.877538818359375,0.7971955030739307,-0.7427529881380498,-0.020668620954081413
1772031797066486800,3.88748681640625,0.4943810155123472,-0.7065760516025126,-0.010527823755145072
1772031797076435700,3.897435791015625,0.08899521127045154,-0.6821180483028292,-0.08059102860577404
1772031797086385000,3.907385009765625,-0.31017595624029637,-0.5872521914333104,-0.09634002107530831
1772031797096332800,3.917332763671875,-0.6774661308437585,-0.5891538603361696,-0.20312486379742622
1772031797106282000,3.927281982421875,-0.8591220901548862,-0.5152917746592313,-0.33810967282652854
1772031797116231000,3.93723095703125,-0.8394067513376474,-0.5474057726047933,-0.33878932565376163
1772031797126179000,3.947178955078125,-0.6666355247497558,-0.5767154902519658,-0.30914719771444793
1772031797136128000,3.9571279296875,-0.4314700935691595,-0.46166247580237685,-0.24191578222364185
1772031797146077000,3.967076904296875,-0.3823357680439949,-0.4149785025713965,-0.15044175974950194
1772031797156024000,3.977024169921875,-0.6417442445993423,-0.5350597204465418,-0.117088794593513
1772031797165973000,3.986972900390625,-0.7743383590996264,-0.6348205828160047,-0.12632760145142674
1772031797175921000,3.9969208984375,-0.8462754680633544,-0.7491296835631132,-0.14615107681825756
1772031797185869800,4.006869873046875,-1.117869472452998,-0.8355380932107568,-0.2232337319768965
1772031797195819000,4.016819091796875,-1.5418571013122797,-0.9318737303718924,-0.44411695530489087
1772031797205767000,4.026766845703125,-1.801606938651204,-1.073149310108274,-0.748691876667738
1772031797215716000,4.036716064453125,-1.8344582378953693,-1.2474229040831326,-1.0332213504761456
1772031797225665000,4.0466650390625,-1.7529875769108534,-1.469101515572518,-1.2230308056265116
1772031797235613200,4.05661328125,-1.5166338127285242,-1.6291241736158728,-1.2749836957037448
1772031797245562000,4.06656201171875,-1.1530278795957565,-1.5616650868490338,-0.8572134800545871
1772031797255510000,4.076510009765625,-1.0208230566740035,-1.2382850733816624,-0.16543416169807315
1772031797265459000,4.086458984375,-1.3768155921936034,-0.6918177506707608,0.5064196822218596
1772031797275408100,4.096408203125,-2.2373364432305096,0.06023468847125768,1.0352980106197296
1772031797285356000,4.10635595703125,-3.293243088245392,0.7377304838009178,1.191688449640572
1772031797295305000,4.116304931640625,-4.25476873729825,1.329915309330821,1.3261289226599038
1772031797305254000,4.12625390625,-4.824653614345193,1.9385083949565887,1.3729597935482858
1772031797315202000,4.1362021484375,-4.886853173148632,2.456350365555286,1.3197057577446103
1772031797325151000,4.14615087890625,-4.394975080367923,2.8228941057056187,1.2784119165867567
1772031797335099000,4.156098876953125,-3.4205087011992927,2.916940755146742,1.2096857324935495
1772031797345048000,4.166048095703125,-2.280077852848172,2.645132231223583,1.1134389426596463
1772031797354997000,4.1759970703125,-1.0890694944262505,2.2791155836872754,1.1835939905121922
1772031797364945000,4.18594482421875,0.09451368243098258,1.9273120242901145,1.3850814623661338
1772031797374893800,4.195893798828125,1.1841133382111788,1.5155449945785104,1.5817641642868518
1772031797384843000,4.205843017578125,2.112475553330779,1.1529773184522987,1.7100319400206208
1772031797394791000,4.215791015625,2.8310388337165118,0.7893830757573247,1.7335092617198824
1772031797404740000,4.225739990234375,3.251076848167181,0.4476479059100151,1.6619285649783908
1772031797414688000,4.23568798828125,3.439386420148611,0.2305719659104943,1.5968449751712381
1772031797424637200,4.24563720703125,3.523911792528629,0.18427724772542714,1.4986771541468797
1772031797434586000,4.255586181640625,3.570008942314982,0.2693240136310458,1.3932587774723768
1772031797444534000,4.265533935546875,3.543028580930829,0.43124622168540955,1.320894821398705
1772031797454483000,4.27548291015625,3.3619542208999396,0.5605766582146287,1.2504857987850904
1772031797464432000,4.28543212890625,2.996585369747877,0.6528805556416512,1.2019605450689792
1772031797474380000,4.295380126953125,2.48829097969532,0.7560846172675489,1.1848108189560471
1772031797484329000,4.305328857421875,2.0544284380316733,0.8869421172335743,1.1812111870288848
1772031797494277000,4.315277099609375,1.8329566011607645,1.0001844655320047,1.109832807926461
1772031797504226000,4.32522607421875,1.7996575581490992,1.0759548690482974,1.014078916176036
1772031797514175000,4.335175048828125,1.8439993887007236,1.141020046415925,0.8931123303011059
1772031797524123000,4.345122802734375,1.8351035500615833,1.1786232163622974,0.7650348895076662
1772031797534071800,4.35507177734375,1.844804275342822,1.1807236957728862,0.6332443464752286
1772031797544021000,4.36502099609375,1.8695353964954613,1.0891761696711182,0.5115382673446088
1772031797553969000,4.374968994140625,1.978392661577463,0.9614446927711368,0.4223916649047285
1772031797563918000,4.38491796875,2.111378990265727,0.777517281396687,0.36510961569398637
1772031797573866000,4.394865966796875,2.2423586553066968,0.544589107748866,0.2776224708989262
1772031797583815200,4.404815185546875,2.302596558648348,0.30807723039537666,0.16549831297546624
1772031797593764000,4.41476416015625,2.240261390766501,0.09950549936890601,0.0721940063342452
1772031797603712000,4.4247119140625,2.1097727241128683,-0.05367050765007734,0.014710808528214693
1772031797613661000,4.434660888671875,1.9656448236852884,-0.12472878795266151,-0.018242489785701036
1772031797623610000,4.444610107421875,1.8199626795530317,-0.18926497301012277,-0.02683423091173172
1772031797633558000,4.45455810546875,1.609865638655424,-0.2998360562726855,-0.04027545789554715
1772031797643507000,4.4645068359375,1.2494617164343595,-0.4498424933448434,0.04256941405162215
1772031797653456000,4.474455810546875,0.7848954089492559,-0.6073439623475074,0.2423758009508252
1772031797663404000,4.484404052734375,0.41156127800643444,-0.7367800512082874,0.48888884783685205
1772031797673353000,4.49435302734375,0.18391396737098692,-0.9115205320425331,0.7332580145619809
1772031797683300900,4.50430078125,0.20316578032970428,-1.151810174369067,0.9202994663037359
1772031797693250000,4.51425,0.40376434051990506,-1.451170283693075,0.9706738550178706
1772031797703199000,4.524198974609375,0.579677372264862,-1.7645144947059452,0.8872733950145542
1772031797713147000,4.53414697265625,0.7221364626973867,-1.9546021822758017,0.689792090062052
1772031797723095800,4.544095703125,0.7715221326351165,-1.9921827019989489,0.3572251460544765
1772031797733045000,4.554044921875,0.6567623655110597,-1.9734915916629134,-0.06019333354756236
1772031797742993200,4.5639931640625,0.38118542896509167,-1.8317536551117897,-0.4428327607132494
1772031797752942000,4.573942138671875,0.1255389352917671,-1.5203873200431466,-0.665204615163803
1772031797762890000,4.583889892578125,-0.12066343820989131,-1.1944129061684012,-0.8597223210703581
1772031797772839200,4.593839111328125,-0.5340174448519945,-0.9835990953035652,-1.071891565132141
1772031797782788000,4.6037880859375,-1.1106523806810378,-0.9072310181550681,-1.2506601324386895
1772031797792736000,4.613736083984375,-1.6463175927400588,-1.038491107572615,-1.4215940605968236
1772031797802685000,4.623684814453125,-1.8134394152641296,-1.2519725302115081,-1.5445191601283847
1772031797812634000,4.633634033203125,-1.7672762145042418,-1.4136651672936975,-1.5967666492380201
1772031797822582000,4.64358203125,-1.719936371180415,-1.5122292941592632,-1.5192580237522721
1772031797832531000,4.653531005859375,-1.8539619797885416,-1.609283747114241,-1.4059317965626716
1772031797842479000,4.66347900390625,-2.315564761292934,-1.7212255342081189,-1.345827164211869
1772031797852428000,4.673427978515625,-3.112269850501418,-1.5389391680389641,-1.1619347510855644
1772031797862377000,4.683376953125,-4.1221272765249015,-1.065516696337983,-0.8422059536021202
1772031797872324900,4.693324951171875,-5.2439282432079315,-0.5166047569539398,-0.505231422285363
1772031797882273800,4.703273681640625,-6.181727564236521,0.11485270610451698,-0.14898651943989097
1772031797892223200,4.71322314453125,-6.670232965713739,0.7468577200431377,0.14254614766146986
1772031797902171000,4.7231708984375,-6.616114422035217,1.262377896630764,0.28701774696018545
1772031797912120000,4.7331201171875,-6.064654259473085,1.5423425467416643,0.28369094062503425
1772031797922068200,4.743068115234375,-5.107086408135294,1.574344097288698,0.14329605271331966
1772031797932017200,4.75301708984375,-3.7237668408751485,1.5004966246590017,-0.04935914725698531
1772031797941966000,4.762966064453125,-2.276853630104661,1.3367350723482667,-0.20650679785329848
1772031797951914000,4.7729140625,-1.0454092163980007,1.1075411167927085,-0.34164522654153406
1772031797961863200,4.78286328125,0.026140403428673742,0.9221487474322319,-0.4716325560769066
1772031797971812000,4.79281201171875,0.9643009589850902,0.7882673696003853,-0.6458993184521794
1772031797981760000,4.802760009765625,1.6765578327029942,0.6398606228098273,-0.8815287138827145
1772031797991709000,4.812708984375,2.1296996598541735,0.5059346751838922,-1.1124911404155193
1772031798001657900,4.822657958984375,2.3179630546063184,0.4220661592774093,-1.286311145403981
1772031798011606000,4.83260595703125,2.257457440239191,0.36182051102072,-1.348925130227208
1772031798021555000,4.842554931640625,1.9545313089966774,0.36360739443749185,-1.2690353086933492
1772031798031502800,4.8525029296875,1.5251058729976414,0.482098457044363,-1.106505709330365
1772031798041452000,4.8624521484375,1.102172137105465,0.6877183525279164,-0.9667609193578361
1772031798051401000,4.87240087890625,0.756420425093174,0.9567594575643539,-0.8506302292067557
1772031798061348900,4.882348876953125,0.44472062028646464,1.2525178891345858,-0.757754377110675
1772031798071298000,4.892298095703125,0.09716039754748344,1.5131453860908746,-0.6659731153182685
1772031798081247000,4.9022470703125,-0.27904432039558885,1.7008375568263232,-0.5615467453557997
1772031798091195100,4.912195068359375,-0.583619972410798,1.8447081214919685,-0.4336232895476743
1772031798101144000,4.92214404296875,-0.7664671873331069,1.963745127543807,-0.25809585958681996
1772031798111092000,4.932092041015625,-0.7303039870619773,2.0560487327098844,-0.18698278035707772
1772031798121041200,4.942041259765625,-0.5056576118081808,2.048982739846408,-0.1849082025727257
1772031798130990000,4.951989990234375,-0.2723269948393106,1.9348098326995968,-0.22029954168852417
1772031798140938000,4.96193798828125,0.01910334439873695,1.769374063566327,-0.27652886697594076
1772031798150887000,4.971886962890625,0.3808107504338026,1.5686916244849562,-0.3233258721273392
1772031798160835800,4.9818359375,0.7565957816600799,1.3969029791936278,-0.311927403017506
1772031798170783700,4.99178369140625,1.1741133377224207,1.2820379981294274,-0.2591886963248253
1772031798180732700,5.001732666015625,1.4579969148427248,1.156335688969493,-0.2196197792634368
1772031798190680800,5.011680908203125,1.6426362738788127,1.037476669833064,-0.16271028969213366
1772031798200629800,5.021629638671875,1.8228923032641409,0.9732312844157218,-0.10229651832692324
1772031798210578700,5.03157861328125,1.9487924730837345,0.9384966556429862,-0.09329904594421386
1772031798220526600,5.041526611328125,1.9999469062596558,0.902157514283061,-0.09594853753969072
1772031798230475800,5.051475830078125,1.9809820935487745,0.8948512829229235,-0.09567520049102604
1772031798240424700,5.0614248046875,1.9391402631193397,0.8868445020779967,-0.06838328893966972
1772031798250372600,5.07137255859375,1.830246173158288,0.8751125632300972,0.016590338664501905
1772031798260321500,5.081321533203125,1.71123634737432,0.8262246136814355,0.028369623785465953
1772031798270270500,5.0912705078125,1.6247177553504704,0.7294096685707568,0.004143675675988197
1772031798280218600,5.101218505859375,1.54439275726974,0.6223556535184384,0.012014409051090478
1772031798290167600,5.11116748046875,1.5126011962115764,0.5048913036108017,0.09485723517164588
1772031798300115700,5.12111572265625,1.5614713178426027,0.41155484826564787,0.18323168419525027
1772031798310064600,5.131064697265625,1.648532930701971,0.3119061410337686,0.22365531838983296
1772031798320013800,5.141013916015625,1.7315099045962095,0.15042963092029094,0.22935521053187546
1772031798329961700,5.150961669921875,1.7385317660570143,-0.03835691092312336,0.22740612229071555
1772031798339910700,5.16091064453125,1.6624071422755717,-0.2234583345130086,0.2266455131817609
1772031798349859800,5.17085986328125,1.503065890625119,-0.3481067507058382,0.23410028616711495
1772031798359807700,5.180807861328125,1.3006716791898012,-0.43094723873883484,0.196892399148643
1772031798369756700,5.190756591796875,1.1023615221977234,-0.5312681461438536,0.12956198026277124
1772031798379704800,5.200704833984375,0.887974090629816,-0.6698717301920056,0.09248860634416341
1772031798389653800,5.21065380859375,0.7863333327978849,-0.7973053931891918,0.1173365588095039
1772031798399602700,5.220602783203125,0.7768523877471685,-0.8992582857102155,0.19539923798143863
1772031798409550600,5.230550537109375,0.7037438969165086,-0.9214750859543681,0.35813853457234796
1772031798419499500,5.24049951171875,0.5343143819719552,-0.8409855449616909,0.5440405339553952
1772031798429448700,5.25044873046875,0.2531798112988472,-0.6977119232758879,0.6687007136512547
1772031798439396600,5.260396728515625,-0.10785130290985107,-0.49910775177329775,0.7082108131974935
1772031798449345500,5.270345458984375,-0.4688754028558731,-0.3193716546088457,0.72951122924909
1772031798459294500,5.28029443359375,-0.7873702746301889,-0.12633388506174087,0.7410021258827298
1772031798469242600,5.29024267578125,-1.0667191309303046,0.04578676866292953,0.6943593249123543
1772031798479191800,5.30019189453125,-1.296583533093333,0.1476540287271142,0.4777716798864305
1772031798489139500,5.310139404296875,-1.4707143575966357,0.04590045817047357,-0.015668693774938583
1772031798499088600,5.320088623046875,-1.3855419194847345,-0.29639088425487276,-0.6227307704411447
1772031798509037800,5.330037841796875,-0.9783534497350453,-0.6256272225350141,-1.0238666621536017
1772031798518985700,5.33998583984375,-0.47262569530010223,-0.7396297415509819,-1.1687030761767179
1772031798528934700,5.3499345703125,-0.13781097236573694,-0.770484314019978,-1.1862194436449558
1772031798538883600,5.359883544921875,-0.04525426922142505,-1.0091673979327083,-1.2839447085335849
1772031798548831700,5.369831787109375,0.024797172126173973,-1.281932491928339,-1.2477972903534769
1772031798558780700,5.37978076171875,0.15766951904594897,-1.0907461954668163,-0.6552564909927546
1772031798568728600,5.389728515625,0.02088029094338417,-0.591014758837223,0.395192911529541
1772031798578677800,5.399677734375,-0.627158669885993,-0.30742022779136896,1.2202858908325434
1772031798588626700,5.409626708984375,-1.6175795740336179,-0.15757190389037132,1.6621492219917475
1772031798598574600,5.41957470703125,-2.425248540326953,0.14051000219136475,1.9402672213226555
1772031798608523500,5.4295234375,-2.8925276139020917,0.6439502302110195,2.095568111541122
1772031798618472700,5.43947265625,-3.127027274650335,1.2014809448584913,2.1161890208959577
1772031798628420600,5.449420654296875,-3.0601310824632644,1.615432625132799,1.9647348692335187
1772031798638369500,5.45936962890625,-2.731049350222945,1.7640835559427737,1.5908872358106076
1772031798648317700,5.469317626953125,-2.3147978685736654,1.7328106119312345,1.203644844894111
1772031798658267000,5.479266845703125,-1.8300971200764178,1.6679979480199514,1.0013288863267749
1772031798668215800,5.4892158203125,-1.212222411364317,1.5699451316773891,0.9732613142278045
1772031798678163700,5.499163818359375,-0.5428472325176,1.34493050763309,0.9685347240973263
1772031798688112600,5.509112548828125,0.05937573355436325,1.0468059314534068,0.9550088875699788
1772031798698061800,5.519061767578125,0.6148971542060375,0.7200465046808123,0.9234504046153277
1772031798708009700,5.529009765625,1.1143775386840105,0.408300230383873,0.8454401862829923
1772031798717958700,5.538958740234375,1.5152601862877606,0.13314590316414832,0.7271998835667968
1772031798727907600,5.548907470703125,1.7350474310725927,-0.05276625228673219,0.6304758316099643
1772031798737855700,5.558855712890625,1.824723610344529,-0.13912614661753178,0.5864325456134974
1772031798747804700,5.5688046875,1.825128684014082,-0.15502455749511718,0.5738347837164998
1772031798757752600,5.578752685546875,1.7854846558898687,-0.14324936402738092,0.5570823863580823
1772031798767701500,5.588701416015625,1.6831085695207118,-0.1706792227447033,0.47031237685643135
1772031798777650700,5.598650634765625,1.5895622708171606,-0.2661377848103642,0.375434537288174
1772031798787598600,5.6085986328125,1.573712375256419,-0.36258389660865065,0.2745699514605105
1772031798797547500,5.618547607421875,1.6079805555611848,-0.43818625008165835,0.1707535300899297
1772031798807496700,5.62849658203125,1.5534218668997286,-0.49905105314999815,0.11358268616870044
1772031798817444600,5.638444580078125,1.410854639917612,-0.5445663113951683,0.1762496432881802
1772031798827393800,5.648393798828125,1.320206400743127,-0.6076321316391229,0.29060718628689647
1772031798837341700,5.658341796875,1.2535451863557099,-0.7173023205392062,0.33872429759353395
1772031798847291000,5.668290771484375,1.190394025915861,-0.7893306149177253,0.2712647724352777
1772031798857239800,5.67823974609375,1.1074567995101212,-0.7740696251608431,0.16758659049160776
1772031798867187700,5.688187744140625,0.9649784198552369,-0.6717315327145159,0.05566679603382945
1772031798877136600,5.69813671875,0.8228793949067592,-0.5432385699227452,-0.057929041877388954
1772031798887085600,5.70808544921875,0.6805529909431934,-0.45527080200389025,-0.18185097042657433
1772031798897033700,5.71803369140625,0.5069932443261146,-0.41661388522088527,-0.30252376098670064
1772031798906982700,5.727982666015625,0.3123994775086641,-0.3939350204229355,-0.3875737417627126
1772031798916931600,5.737931640625,0.13818272828757763,-0.43255218971744175,-0.4532508404836058
1772031798926879700,5.747879638671875,0.09333703986704349,-0.46036096474975347,-0.46203313574567434
1772031798936828700,5.75782861328125,0.08645546365976334,-0.43657428484037514,-0.4314912824876606
1772031798946776600,5.767776611328125,0.029312603724002836,-0.4108845477886498,-0.3714100310124457
1772031798956725500,5.7777255859375,0.0050339025139808655,-0.41811917521730063,-0.3077291476100683
1772031798966674700,5.7876748046875,0.07805471506118775,-0.4496647986903786,-0.25901713915020225
1772031798976622600,5.79762255859375,0.23919454056620595,-0.5355070988878607,-0.25613909949585795
1772031798986571800,5.80757177734375,0.3962292688399553,-0.6763691293872892,-0.30206089271530506
1772031798996520700,5.817520751953125,0.43922377643585203,-0.868810394345969,-0.3453692885659635
1772031799006468900,5.82746875,0.4030541464239359,-0.9630594344913959,-0.2828467083532363
1772031799016417800,5.837417724609375,0.40011809297204015,-0.9528773554340004,-0.20233868185579776
1772031799026366700,5.84736669921875,0.35492227593958375,-0.966667980377376,-0.14018047797605396
1772031799036314600,5.857314697265625,0.3013900077164173,-0.9498813884884119,-0.05793664066195488
1772031799046263800,5.867263916015625,0.33470541734099385,-0.9037754708737135,0.04892265553586185
1772031799056211700,5.877211669921875,0.3872562733113766,-0.8517530226916075,0.18755568487420676
1772031799066160600,5.88716064453125,0.35310616642832754,-0.7703717935562133,0.33197664996422827
1772031799076109600,5.897109619140625,0.21312077263295648,-0.687030954785645,0.5162585738647729
1772031799086057700,5.9070576171875,0.010364742147922516,-0.5958250817283988,0.6618051819838583
1772031799096006700,5.917006591796875,-0.27810674728453155,-0.5795470238834619,0.6341943406764418
1772031799105955600,5.92695556640625,-0.5554834267288447,-0.7418953483954072,0.40730771221518514
1772031799115903500,5.936903564453125,-0.5858703816860914,-1.0494552769184111,0.06480747627951204
1772031799125852700,5.946852783203125,-0.37125849371254444,-1.223729017023742,-0.07287775081470609
1772031799135800600,5.956800537109375,-0.290346051132679,-1.1991641923487186,-0.052079219870641826
1772031799145749500,5.96674951171875,-0.3666296648681164,-1.2072639121741056,-0.06485321511738001
1772031799155698700,5.97669873046875,-0.48725043298006054,-1.286518358413875,-0.11061631064377725
1772031799165647000,5.986647216796875,-0.6236772575110197,-1.3822887629076839,-0.08352459783963859
1772031799175596300,5.99659619140625,-0.7000029568225145,-1.265794427075982,0.07570391415134071
1772031799185545200,6.006545166015625,-0.7827741790115833,-0.8267641273856162,0.30137093768976625
1772031799195493000,6.0164931640625,-1.0963286717742682,-0.188958683539927,0.5095213745642453
1772031799205442300,6.0264423828125,-1.5560475392282007,0.47228901069164275,0.6676607761442661
1772031799215391200,6.03639111328125,-2.022197901034355,1.0128522239252924,0.7295485655847936
1772031799225339100,6.046339111328125,-2.4571277796685695,1.3175626082360743,0.607516396304965
1772031799235288000,6.0562880859375,-2.663424259239435,1.52354651472643,0.36849765069708224
1772031799245236200,6.066236328125,-2.48174491905272,1.6778741759985685,0.08104352161362767
1772031799255185200,6.07618505859375,-1.9375123696565626,1.7306553335934876,-0.15917005980201065
1772031799265134000,6.086134033203125,-1.19160807788074,1.6437448196426032,-0.3291580123469233
1772031799275082000,6.09608203125,-0.5334715014070273,1.4762372126713394,-0.4488002908155322
1772031799285031200,6.10603125,-0.054666825211048126,1.3550088340550661,-0.5284536732450127
1772031799294980000,6.11597998046875,0.23463760791420935,1.2792457370623946,-0.6211548994265497
1772031799304928000,6.125927978515625,0.37934418501257894,1.2186501063242554,-0.804865233984217
1772031799314877000,6.135876953125,0.3536298980414867,1.2019389177590607,-0.941155499588698
1772031799324826400,6.145826416015625,0.17203180639743804,1.242965047891438,-0.966662427419424
1772031799334774000,6.15577392578125,-0.005221534040570259,1.3042206038430333,-0.8550172121193259
1772031799344723200,6.16572314453125,-0.15245616831183434,1.3759516688406466,-0.7107722611833364
1772031799354671400,6.17567138671875,-0.37984161314070225,1.3958110923036933,-0.5195910427557304
1772031799364620300,6.185620361328125,-0.5525064567446708,1.4260853806667029,-0.29818624323904513
1772031799374569200,6.1955693359375,-0.6298807883262634,1.413230721399188,-0.18324918331932274
1772031799384517000,6.20551708984375,-0.6609656624197959,1.3457190276622772,-0.06344320218898356
1772031799394466000,6.215466064453125,-0.5381891775786877,1.2922782371148467,0.026488303550891577
1772031799404415200,6.225415283203125,-0.15238836377263068,1.229555531220138,0.06968969536311924
1772031799414363100,6.235363037109375,0.3860433903902769,1.0925855397231876,0.04841324470899999
1772031799424312000,6.24531201171875,0.850565858733654,0.9290979820482432,-0.026703809465095398
1772031799434260200,6.25526025390625,1.1662333981275559,0.7836844257242978,-0.05779043712429702
1772031799444209200,6.265209228515625,1.3500591026932,0.622229396790266,-0.07257405516039579
1772031799454158000,6.275157958984375,1.5798586229264735,0.42065643860995766,-0.14415025838986037
1772031799464106000,6.28510595703125,1.8857886121600864,0.1538967225089669,-0.27358189027123153
1772031799474055200,6.29505517578125,2.177765479364991,-0.1096938620366156,-0.4112903521105647
1772031799484004000,6.305004150390625,2.447355742716789,-0.35371026980131864,-0.5340403873361647
1772031799493952000,6.314951904296875,2.61755448846817,-0.549453206653893,-0.6874890007514506
1772031799503901200,6.324901123046875,2.6268209139853713,-0.6940354267202318,-0.7981179516810923
1772031799513850000,6.33485009765625,2.459064300689101,-0.7427129483886062,-0.830930161023885
1772031799523798300,6.34479833984375,2.106518106231093,-0.7534345411501825,-0.7993862180512398
1772031799533747200,6.354747314453125,1.6507494377076626,-0.6720785925865173,-0.683176763575524
1772031799543695000,6.364695068359375,1.1587854202091694,-0.5529357880726457,-0.5528074855178594
1772031799553644300,6.374644287109375,0.6207581551939249,-0.4186507978759706,-0.41357079119794066
1772031799563593200,6.38459326171875,0.11219605411589145,-0.22828020171150565,-0.30369696948453784
1772031799573541000,6.394541015625,-0.2709036840379238,-0.05543766345307231,-0.19805797232929617
1772031799583490000,6.404489990234375,-0.462935491412878,0.015321195511519907,-0.16400160814430564
1772031799593439000,6.41443896484375,-0.5585697023063898,-0.07395137139558791,-0.17218999263383447
1772031799603387100,6.42438720703125,-0.5690069251686334,-0.18249328691810368,-0.1470079128433019
1772031799613336000,6.434336181640625,-0.5647171190202236,-0.26472514153346416,-0.03451134141087532
1772031799623285000,6.444284912109375,-0.509732313901186,-0.3760818222157657,0.059613414767757056
1772031799633233200,6.454233154296875,-0.36924072414934633,-0.4966812552787363,0.07881276688687502
1772031799643182000,6.46418212890625,-0.18107669811844826,-0.6012447686895728,-0.005620397165045142
1772031799653130000,6.4741298828125,0.007587094128131866,-0.7146417230278254,-0.13133198560997844
1772031799663079000,6.484078857421875,0.1791477758824825,-0.8334015195734799,-0.2452319940995425
1772031799673028400,6.4940283203125,0.3461801665574312,-0.9677389706097542,-0.2646935773514211
1772031799682976300,6.503976318359375,0.4737883093386888,-1.1368803162626921,-0.19853833972476423
1772031799692925200,6.51392529296875,0.5740110170662402,-1.2636560998730362,-0.1816333090879023
1772031799702874000,6.5238740234375,0.5338426728069782,-1.3512538654357193,-0.15442103864401577
1772031799712822300,6.533822265625,0.2444827101022005,-1.3281111825183034,-0.060325581625103944
1772031799722771200,6.543771240234375,-0.08984627514183521,-1.1528801416881382,0.0564036589410156
1772031799732719000,6.553718994140625,-0.39961306605935093,-0.9579507131755352,0.11822189027667045
1772031799742668000,6.56366796875,-0.6465764870613813,-0.7454752527087927,0.14871157495602966
1772031799752617200,6.5736171875,-0.7900526455819606,-0.48298868388235566,0.21211517578698694
1772031799762565000,6.583565185546875,-0.8621896610319614,-0.20695552800148725,0.2897974042739719
1772031799772514000,6.59351416015625,-0.9815689046502113,-0.020537322724610566,0.235897617912665
1772031799782463000,6.603462890625,-1.207736790382862,-0.04165405277237296,0.027595424542576075
1772031799792411100,6.6134111328125,-1.3832728055089711,-0.36724443576559423,-0.31735096243619915
1772031799802360000,6.623360107421875,-1.30535486856997,-0.776141755259782,-0.6144885003399103
1772031799812309000,6.63330908203125,-0.7360662038505077,-0.9922380365721881,-0.7966025786820798
1772031799822257200,6.643257080078125,0.586680529025197,-1.6668990468673408,-1.4704795259274541
1772031799832206000,6.6532060546875,1.0438257465988396,-1.8730191469579933,-1.6832698975622653
1772031799842155300,6.6631552734375,0.7285282095611095,-1.2790234726138412,-1.0170866466246544
1772031799852103200,6.673103271484375,0.5426251141995191,-0.9136474610686302,-0.42120377029441297
1772031799862052000,6.683052001953125,0.1823719986259937,-0.8763285148911177,0.14171952411159872
1772031799872000300,6.693000244140625,-0.568556258791685,-0.41279695728123184,0.7157399665933102
1772031799881949200,6.70294921875,-1.6125024168998001,0.19185981180891393,1.0818212768636644
1772031799891898000,6.712898193359375,-2.700250891855359,0.7798258506000042,1.1463359076764434
1772031799901846300,6.72284619140625,-3.5931297056615352,1.2490551814600825,0.9854668619368224
1772031799911795200,6.732795166015625,-3.841885855299234,1.5677350544124842,0.6707546505063772
1772031799921744100,6.742744140625,-3.2298259703457353,1.7552832866325974,0.31740159664489326
1772031799931692000,6.752692138671875,-2.2941093008100983,2.223776266042143,0.19747816314734518
