time,seconds_elapsed,z,y,x
1772031793256165600,0.07716552734375,-0.13245731592178345,0.2223716527223587,0.365425705909729
1772031793266114600,0.087114501953125,-0.09020790457725525,0.2742008864879608,0.21813704073429108
1772031793276062500,0.0970625,-0.05324802175164223,0.2998258173465729,0.04997839033603668
1772031793286011400,0.107011474609375,-0.017837371677160263,0.3091326355934143,-0.11483129113912582
1772031793295959600,0.11695947265625,0.017661765217781067,0.30261293053627014,-0.26098981499671936
1772031793305908500,0.126908447265625,0.06239504739642143,0.28549566864967346,-0.3732678294181824
1772031793315857400,0.136857421875,0.09742892533540726,0.27853018045425415,-0.4372771978378296
1772031793325805300,0.146805419921875,0.1187020093202591,0.2938787639141083,-0.4461947977542877
1772031793335754500,0.15675439453125,0.11867325007915497,0.3114399015903473,-0.39515426754951477
1772031793345702400,0.166702392578125,0.1052885428071022,0.30743488669395447,-0.28590115904808044
1772031793355651600,0.176651611328125,0.09214185178279877,0.24630708992481232,-0.11286681145429611
1772031793365600500,0.1866005859375,0.055560484528541565,0.14381811022758484,0.10057099908590317
1772031793375548700,0.196548583984375,0.005012353882193565,0.029632413759827614,0.3413553833961487
1772031793385497600,0.20649755859375,-0.04234118387103081,-0.03757248818874359,0.5579315423965454
1772031793395446500,0.216446533203125,-0.07500804215669632,-0.05219004675745964,0.7239152193069458
1772031793405394400,0.22639453125,-0.08283154666423798,-0.035040996968746185,0.8276302814483643
1772031793415343600,0.236343505859375,-0.07907223701477051,-0.005595756694674492,0.8732630014419556
1772031793425291500,0.24629150390625,-0.07299970090389252,0.04003298282623291,0.8663776516914368
1772031793435240400,0.256240478515625,-0.06951653957366943,0.1095510721206665,0.8110758066177368
1772031793445189400,0.266189453125,-0.07450416684150696,0.21693538129329681,0.7429283261299133
1772031793455137500,0.276137451171875,-0.08550754934549332,0.32469406723976135,0.6671051979064941
1772031793465086500,0.28608642578125,-0.0618538036942482,0.4236263632774353,0.5647442936897278
1772031793475035400,0.296035400390625,-0.008172199130058289,0.5878357887268066,0.4444831311702728
1772031793484983600,0.305983642578125,0.04920415207743645,0.7368960976600647,0.34212446212768555
1772031793494932500,0.315932373046875,0.09135480225086212,0.7462877631187439,0.29870399832725525
1772031793504880400,0.32588037109375,0.10738054662942886,0.565322995185852,0.33177611231803894
1772031793514829300,0.335829345703125,0.09460962563753128,0.2459833323955536,0.4204449951648712
1772031793524778500,0.345778564453125,0.0652785375714302,-0.06723830103874207,0.5069712996482849
1772031793534726700,0.3557265625,0.042233940213918686,-0.2552119195461273,0.5230991244316101
1772031793544675600,0.365675537109375,0.03032078593969345,-0.20615941286087036,0.4569474160671234
1772031793554623500,0.37562353515625,0.053994957357645035,0.09677968174219131,0.29324743151664734
1772031793564572700,0.38557275390625,0.14122147858142853,0.538145124912262,0.04127619042992592
1772031793574521600,0.395521484375,0.25396212935447693,0.9659161567687988,-0.2586980164051056
1772031793584469500,0.405469482421875,0.356221079826355,1.2225102186203003,-0.5662714242935181
1772031793594418400,0.41541845703125,0.4528336524963379,1.2548178434371948,-0.832419216632843
1772031793604367600,0.42536767578125,0.5315950512886047,1.0089905261993408,-1.024787425994873
1772031793614315500,0.4353154296875,0.5597350597381592,0.5993292331695557,-1.138157606124878
1772031793624264400,0.445264404296875,0.5581554770469666,0.1937781274318695,-1.2185033559799194
1772031793634212600,0.455212646484375,0.5373934507369995,-0.09184963256120682,-1.254990816116333
1772031793644161500,0.46516162109375,0.484458327293396,-0.31874799728393555,-1.2218583822250366
1772031793654110500,0.4751103515625,0.4023147225379944,-0.5182680487632751,-1.1019219160079956
1772031793664058400,0.485058349609375,0.29883334040641785,-0.6765793561935425,-0.9069759845733643
1772031793674007300,0.49500732421875,0.1661946177482605,-0.7846581339836121,-0.6506062150001526
1772031793683955500,0.50495556640625,0.017118193209171295,-0.8390774726867676,-0.3625274896621704
1772031793693904400,0.514904296875,-0.13448305428028107,-0.856671929359436,-0.05084524303674698
1772031793703853600,0.524853515625,-0.27030283212661743,-0.8382630348205566,0.2582281231880188
1772031793713801700,0.5348017578125,-0.404939204454422,-0.7730770707130432,0.571945071220398
1772031793723750700,0.544750732421875,-0.5088016390800476,-0.6921378970146179,0.8548858165740967
1772031793733699600,0.554699462890625,-0.5950963497161865,-0.5757300853729248,1.1068917512893677
1772031793743647500,0.5646474609375,-0.6464577913284302,-0.4227282702922821,1.289513349533081
1772031793753596700,0.5745966796875,-0.6541745662689209,-0.23755097389221191,1.3963063955307007
1772031793763544600,0.584544677734375,-0.6179828643798828,-0.06630171835422516,1.4115663766860962
1772031793773493500,0.594493408203125,-0.5430896878242493,0.0844302773475647,1.3415718078613281
1772031793783442400,0.6044423828125,-0.4372860789299011,0.19592224061489105,1.2041651010513306
1772031793793390600,0.614390625,-0.3086569905281067,0.2399032860994339,1.0304367542266846
1772031793803339500,0.624339599609375,-0.19814738631248474,0.27074959874153137,0.8471542596817017
1772031793813287400,0.634287353515625,-0.09799521416425705,0.2795169949531555,0.6646581888198853
1772031793823236400,0.644236328125,0.011988958343863487,0.2861804664134979,0.48652687668800354
1772031793833185500,0.654185546875,0.10546591132879257,0.2739967703819275,0.29375341534614563
1772031793843133400,0.664133544921875,0.1842348724603653,0.24340024590492249,0.0743246078491211
1772031793853082400,0.674082275390625,0.24374879896640778,0.20068660378456116,-0.1711924821138382
1772031793863031300,0.68403125,0.2813800573348999,0.1939656138420105,-0.40539073944091797
1772031793872979500,0.6939794921875,0.3027591407299042,0.19626791775226593,-0.6165847182273865
1772031793882928600,0.7039287109375,0.3011268973350525,0.17543576657772064,-0.7651663422584534
1772031793892876300,0.713876220703125,0.27763569355010986,0.08750191330909729,-0.8446710109710693
1772031793902825500,0.723825439453125,0.22088617086410522,-0.022741571068763733,-0.8804656863212585
1772031793912774700,0.733774658203125,0.13401572406291962,-0.16250959038734436,-0.8761305809020996
1772031793922722600,0.74372265625,0.01973564177751541,-0.34461554884910583,-0.8384204506874084
1772031793932671500,0.75367138671875,-0.12081588059663773,-0.5509895086288452,-0.7501632571220398
1772031793942619600,0.76361962890625,-0.2699110805988312,-0.7894185781478882,-0.6293513774871826
1772031793952568600,0.773568603515625,-0.4188728630542755,-0.9366639256477356,-0.45489567518234253
1772031793962517500,0.783517578125,-0.5207716226577759,-0.7221819758415222,-0.26888298988342285
1772031793972465400,0.79346533203125,-0.5243932604789734,-0.41040411591529846,-0.11009654402732849
1772031793982414600,0.80341455078125,-0.5085479617118835,-0.22660505771636963,0.022664789110422134
1772031793992363500,0.813363525390625,-0.5134002566337585,-0.1486218422651291,0.10040965676307678
1772031794002311400,0.8233115234375,-0.5155907273292542,-0.18625867366790771,0.11336953192949295
1772031794012260400,0.83326025390625,-0.4875854551792145,-0.24115867912769318,0.06948782503604889
1772031794022208500,0.84320849609375,-0.45738619565963745,-0.3163795471191406,-0.016577329486608505
1772031794032157400,0.853157470703125,-0.47288817167282104,-0.4137881398200989,-0.10312607139348984
1772031794042106400,0.8631064453125,-0.5581426620483398,-0.4675253629684448,-0.18043801188468933
1772031794052054500,0.873054443359375,-0.6940639615058899,-0.3421812951564789,-0.2813768684864044
1772031794062003700,0.883003662109375,-0.7798347473144531,-0.12638603150844574,-0.42686009407043457
1772031794071951400,0.892951416015625,-0.7986108660697937,0.21134726703166962,-0.5986461639404297
1772031794081900500,0.902900634765625,-0.7634754180908203,0.5937262177467346,-0.7550021409988403
1772031794091849500,0.912849365234375,-0.6795493364334106,0.918880820274353,-0.858210563659668
1772031794101797600,0.922797607421875,-0.5878117084503174,1.1029248237609863,-0.8674726486206055
1772031794111746600,0.93274658203125,-0.5034137964248657,1.1446341276168823,-0.7733818292617798
1772031794121695500,0.942695556640625,-0.4162425994873047,1.0488606691360474,-0.5879400968551636
1772031794131643600,0.9526435546875,-0.33638134598731995,0.8626747727394104,-0.3273441791534424
1772031794141592600,0.962592529296875,-0.2868458330631256,0.6574628949165344,-0.03106027841567993
1772031794151540500,0.97254052734375,-0.2849928140640259,0.47023871541023254,0.29007431864738464
1772031794161492700,0.98249267578125,-0.3389817178249359,0.2836534082889557,0.6165828108787537
1772031794171442000,0.99244189453125,-0.42551156878471375,0.13811776041984558,0.8940658569335938
1772031794181389800,1.002389892578125,-0.501140832901001,0.07764576375484467,1.082188606262207
1772031794191339000,1.012339111328125,-0.532738447189331,0.11223037540912628,1.1422756910324097
1772031794201288000,1.022287841796875,-0.5087714195251465,0.222085103392601,1.0760388374328613
1772031794211236000,1.032236083984375,-0.4358662962913513,0.36329707503318787,0.9178481698036194
1772031794221185000,1.04218505859375,-0.33429384231567383,0.5123924016952515,0.6789972186088562
1772031794231133000,1.0521328125,-0.20634543895721436,0.6793962717056274,0.3974153399467468
1772031794241081900,1.062081787109375,-0.07234933227300644,0.8311302661895752,0.09639959037303925
1772031794251031000,1.072031005859375,0.05458199232816696,0.9438962340354919,-0.20395198464393616
1772031794260979000,1.08197900390625,0.17026184499263763,1.027402639389038,-0.48711106181144714
1772031794270928000,1.091927978515625,0.2601131796836853,1.0722167491912842,-0.7412687540054321
1772031794280876000,1.1018759765625,0.3137732148170471,1.0393266677856445,-0.9399186372756958
1772031794290825000,1.111824951171875,0.329697847366333,0.9073835015296936,-1.0507521629333496
1772031794300774000,1.12177392578125,0.30776435136795044,0.6725320816040039,-1.051970362663269
1772031794310721800,1.1317216796875,0.25223690271377563,0.3562082052230835,-0.9534063339233398
1772031794320670700,1.141670654296875,0.16162149608135223,-0.007286382839083672,-0.7705510258674622
1772031794330620000,1.151619873046875,0.042254891246557236,-0.38981831073760986,-0.5023075938224792
1772031794340567800,1.16156787109375,-0.1023472398519516,-0.7548742294311523,-0.20326684415340424
1772031794350517000,1.17151708984375,-0.2526555061340332,-1.036376714706421,0.07259482890367508
1772031794360465000,1.18146484375,-0.3843221962451935,-1.2033302783966064,0.2913966476917267
1772031794370414000,1.1914140625,-0.4873364567756653,-1.2787086963653564,0.44483253359794617
1772031794380363000,1.201363037109375,-0.5733856558799744,-1.297201156616211,0.533291757106781
1772031794390311000,1.211310791015625,-0.635513186454773,-1.2707719802856445,0.5649610161781311
1772031794400260000,1.221260009765625,-0.6661245822906494,-1.196542501449585,0.5478547811508179
1772031794410208000,1.2312080078125,-0.6678465604782104,-1.098060131072998,0.500846803188324
1772031794420157000,1.241156982421875,-0.6416794657707214,-0.9927969574928284,0.4317491352558136
1772031794430105900,1.25110595703125,-0.5978089570999146,-0.870522677898407,0.3301229178905487
1772031794440054000,1.261053955078125,-0.5337921977043152,-0.7196134328842163,0.19952154159545898
1772031794450003000,1.2710029296875,-0.45013007521629333,-0.5523181557655334,0.05543334037065506
1772031794459951900,1.280951904296875,-0.35967499017715454,-0.39925438165664673,-0.09085610508918762
1772031794469899800,1.290899658203125,-0.2632776200771332,-0.2770389914512634,-0.2144869565963745
1772031794479849000,1.300848876953125,-0.16792787611484528,-0.18866001069545746,-0.2955596148967743
1772031794489796900,1.310796875,-0.07728744298219681,-0.13457147777080536,-0.3307109475135803
1772031794499745800,1.320745849609375,0.010031448677182198,-0.10076122730970383,-0.31969451904296875
1772031794509694700,1.33069482421875,0.07727706432342529,-0.0718827098608017,-0.275255411863327
1772031794519643000,1.340642822265625,0.1222909539937973,-0.046965520828962326,-0.20336249470710754
1772031794529592000,1.350592041015625,0.14689430594444275,-0.03460179641842842,-0.11806196719408035
1772031794539539700,1.360539794921875,0.15918876230716705,-0.03165685385465622,-0.02665598690509796
1772031794549489000,1.370489013671875,0.1761632114648819,-0.05517149716615677,0.059241075068712234
1772031794559438000,1.38043798828125,0.19891521334648132,-0.08918130397796631,0.12916898727416992
1772031794569386000,1.390385986328125,0.23161855340003967,-0.10461059212684631,0.16980615258216858
1772031794579335000,1.4003349609375,0.27564480900764465,-0.0907856822013855,0.168465256690979
1772031794589283800,1.410283935546875,0.3323219418525696,-0.05998356640338898,0.13349875807762146
1772031794599232000,1.42023193359375,0.387251079082489,-0.03521931171417236,0.073062002658844
1772031794609181000,1.430180908203125,0.4384972155094147,-0.026752589270472527,-0.00208148080855608
1772031794619128800,1.44012890625,0.4879387319087982,-0.013422009535133839,-0.08771511912345886
1772031794629078000,1.450078125,0.5252837538719177,-0.019732635468244553,-0.17032210528850555
1772031794639027000,1.46002685546875,0.5295976400375366,-0.1478162407875061,-0.21802100539207458
1772031794648974800,1.469974853515625,0.48288044333457947,-0.434177428483963,-0.22618278861045837
1772031794658923800,1.479923828125,0.3850889503955841,-0.6811804175376892,-0.2477104514837265
1772031794668873000,1.489873046875,0.30145424604415894,-0.7221803069114685,-0.3232489228248596
1772031794678820900,1.49982080078125,0.34128525853157043,-0.5238553881645203,-0.48739388585090637
1772031794688769800,1.509769775390625,0.5859456062316895,-0.14206759631633759,-0.7649980783462524
1772031794698718000,1.519718017578125,0.9692725539207458,0.3326418697834015,-1.1637043952941895
1772031794708667100,1.529667236328125,1.3718644380569458,0.8153619170188904,-1.6389546394348145
1772031794718616000,1.539615966796875,1.7065454721450806,1.1708788871765137,-2.102043867111206
1772031794728564000,1.54956396484375,1.9524511098861694,1.289664626121521,-2.4651389122009277
1772031794738513000,1.559512939453125,2.06667160987854,1.1249911785125732,-2.635727643966675
1772031794748461000,1.5694609375,2.019761562347412,0.7590773701667786,-2.556401491165161
1772031794758410000,1.579409912109375,1.8445693254470825,0.3402898907661438,-2.2412986755371094
1772031794768359000,1.58935888671875,1.5838067531585693,-0.08237161487340927,-1.77511465549469
1772031794778307000,1.59930712890625,1.275612711906433,-0.4346570372581482,-1.243867039680481
1772031794788256000,1.609256103515625,0.9273843765258789,-0.6608734130859375,-0.7048208713531494
1772031794798205000,1.619204833984375,0.599371075630188,-0.80641108751297,-0.1933334469795227
1772031794808152800,1.62915283203125,0.36184316873550415,-0.9597801566123962,0.269756942987442
1772031794818101800,1.639101806640625,0.22901995480060577,-1.1302365064620972,0.6691432595252991
1772031794828050000,1.6490498046875,0.18058530986309052,-1.2786999940872192,0.9797250628471375
1772031794837998800,1.658998779296875,0.17408770322799683,-1.3710532188415527,1.1930463314056396
1772031794847947800,1.66894775390625,0.19243395328521729,-1.3813221454620361,1.3061401844024658
1772031794857896000,1.67889599609375,0.2188233733177185,-1.2854946851730347,1.3273717164993286
1772031794867844900,1.688844970703125,0.2437705248594284,-1.0966944694519043,1.2628118991851807
1772031794877792800,1.698792724609375,0.2747381925582886,-0.8091801404953003,1.119128942489624
1772031794887741700,1.70874169921875,0.31623902916908264,-0.43708062171936035,0.9160135388374329
1772031794897691100,1.718691162109375,0.3860379159450531,-0.005196526180952787,0.6642297506332397
1772031794907639000,1.72863916015625,0.48651525378227234,0.4239388704299927,0.4014551341533661
1772031794917588000,1.738587890625,0.626196563243866,0.7910698056221008,0.13349032402038574
1772031794927537000,1.748536865234375,0.7867074012756348,1.0676209926605225,-0.10889221727848053
1772031794937485000,1.758485107421875,0.9364281892776489,1.2293461561203003,-0.3248756527900696
1772031794947434000,1.76843408203125,1.0650317668914795,1.284960389137268,-0.49179381132125854
1772031794957382000,1.7783818359375,1.1687865257263184,1.212038516998291,-0.6000633239746094
1772031794967330800,1.788330810546875,1.2205890417099,1.0197588205337524,-0.6388080716133118
1772031794977280000,1.798280029296875,1.206710934638977,0.7278356552124023,-0.6079844236373901
1772031794987228000,1.808227783203125,1.1297311782836914,0.4145696461200714,-0.5241214632987976
1772031794997176800,1.8181767578125,1.0135858058929443,0.14913947880268097,-0.4082828164100647
1772031795007125800,1.828125732421875,0.8801511526107788,-0.03212430700659752,-0.2797355055809021
1772031795017074000,1.838073974609375,0.7641645073890686,-0.13725048303604126,-0.15788541734218597
1772031795027022800,1.84802294921875,0.6668083667755127,-0.1720699816942215,-0.06266516447067261
1772031795036970800,1.857970703125,0.5897939205169678,-0.16266965866088867,-0.00700651528313756
1772031795046920000,1.867919921875,0.5318896174430847,-0.13643033802509308,-0.007697338704019785
1772031795056869000,1.877869140625,0.49004292488098145,-0.10945058614015579,-0.049937114119529724
1772031795066816800,1.887816650390625,0.4536135196685791,-0.09299278259277344,-0.12819331884384155
1772031795076766000,1.897765869140625,0.4291436970233917,-0.08172111958265305,-0.2344934344291687
1772031795086714000,1.907714111328125,0.41177430748939514,-0.08578351140022278,-0.34958937764167786
1772031795096663000,1.9176630859375,0.38609588146209717,-0.131382018327713,-0.4579864740371704
1772031795106612000,1.927612060546875,0.34376761317253113,-0.17814978957176208,-0.5459370613098145
1772031795116560000,1.937559814453125,0.27397266030311584,-0.21079476177692413,-0.6183879375457764
1772031795126509000,1.947509033203125,0.17837530374526978,-0.2157631516456604,-0.6807927489280701
1772031795136458000,1.9574580078125,0.06171514466404915,-0.20545992255210876,-0.7378085255622864
1772031795146406000,1.967406005859375,-0.09525370597839355,-0.19397424161434174,-0.7729979753494263
1772031795156350700,1.977350830078125,-0.2684222459793091,-0.16551907360553741,-0.7771764397621155
1772031795166298600,1.987298583984375,-0.42402219772338867,-0.12200700491666794,-0.7494041919708252
1772031795176247600,1.99724755859375,-0.5324445962905884,-0.049254607409238815,-0.704084038734436
1772031795186196500,2.007196533203125,-0.5722354054450989,0.030945688486099243,-0.6570243835449219
1772031795196144600,2.01714453125,-0.5800837874412537,0.05038625746965408,-0.609289824962616
1772031795206093600,2.027093505859375,-0.6038684248924255,0.014871939085423946,-0.548092782497406
1772031795216042500,2.03704248046875,-0.6531484723091125,-0.0683065727353096,-0.44897231459617615
1772031795225990700,2.04699072265625,-0.7083693742752075,-0.17399412393569946,-0.2941339910030365
1772031795235939800,2.05693994140625,-0.7492037415504456,-0.28886523842811584,-0.08250703662633896
1772031795245887500,2.066887451171875,-0.7856994271278381,-0.4430718719959259,0.17272073030471802
1772031795255836700,2.076836669921875,-0.8158531188964844,-0.5970151424407959,0.41242843866348267
1772031795265785600,2.08678564453125,-0.8280216455459595,-0.595727264881134,0.5794259309768677
1772031795275733800,2.096733642578125,-0.790586531162262,-0.3268395960330963,0.6309942603111267
1772031795285682700,2.1066826171875,-0.6826336979866028,0.16833233833312988,0.582690954208374
1772031795295631600,2.116631591796875,-0.5144808888435364,0.7645341157913208,0.44719192385673523
1772031795305579800,2.126579833984375,-0.39280638098716736,1.2680481672286987,0.2728281021118164
1772031795315528700,2.13652880859375,-0.38377925753593445,1.5581830739974976,0.17239150404930115
1772031795325476600,2.1464765625,-0.506607711315155,1.4867613315582275,0.23321810364723206
1772031795335425500,2.156425537109375,-0.7059990167617798,1.1287715435028076,0.4502374231815338
1772031795345374500,2.16637451171875,-0.907270073890686,0.6693035364151001,0.7679594159126282
1772031795355322600,2.176322509765625,-1.0454962253570557,0.24213197827339172,1.0993858575820923
1772031795365271600,2.186271484375,-1.0929844379425049,-0.01690303534269333,1.3612486124038696
1772031795375219500,2.196219482421875,-1.087669014930725,-0.11711568385362625,1.523244857788086
1772031795385168600,2.206168701171875,-1.070556879043579,-0.11966219544410706,1.586617350578308
1772031795395117600,2.21611767578125,-1.0381520986557007,-0.06972748786211014,1.564933180809021
1772031795405065500,2.2260654296875,-1.0027602910995483,-0.007490210700780153,1.4936312437057495
1772031795415014700,2.2360146484375,-0.9460607767105103,0.03161032125353813,1.4132685661315918
1772031795424963800,2.2459638671875,-0.8902696967124939,0.047868650406599045,1.3357723951339722
1772031795434911700,2.255911865234375,-0.8206656575202942,0.05492309480905533,1.252456545829773
1772031795444860700,2.265860595703125,-0.7428337335586548,0.04689286649227142,1.1663568019866943
1772031795454808800,2.275808837890625,-0.6614582538604736,0.0058622220531105995,1.0736112594604492
1772031795464757800,2.2857578125,-0.5917002558708191,-0.0608275942504406,0.9869675040245056
1772031795474706700,2.295706787109375,-0.5219596028327942,-0.15831872820854187,0.919908881187439
1772031795484654600,2.305654541015625,-0.4619639217853546,-0.29236653447151184,0.887391984462738
1772031795494603500,2.315603515625,-0.41579556465148926,-0.43310070037841797,0.8878209590911865
1772031795504552700,2.325552734375,-0.3788338005542755,-0.5564953684806824,0.9142611026763916
1772031795514500600,2.33550048828125,-0.3451242744922638,-0.6388789415359497,0.9406092166900635
1772031795524449500,2.345449462890625,-0.3295349180698395,-0.6689212322235107,0.9710374474525452
1772031795534397700,2.355397705078125,-0.3147827684879303,-0.6669436097145081,0.9846218824386597
1772031795544346600,2.3653466796875,-0.31212279200553894,-0.6444516181945801,0.9711878299713135
1772031795554295600,2.375295654296875,-0.31700631976127625,-0.6146016716957092,0.9218676090240479
1772031795564243500,2.385243408203125,-0.3130030632019043,-0.5809416770935059,0.8523223400115967
1772031795574192600,2.395192626953125,-0.30184200406074524,-0.5303850769996643,0.7381110787391663
1772031795584141800,2.405141845703125,-0.2719237804412842,-0.46520769596099854,0.5945879817008972
1772031795594089700,2.41508984375,-0.22357109189033508,-0.38979193568229675,0.42647111415863037
1772031795604038700,2.42503857421875,-0.14984038472175598,-0.3078760504722595,0.24417027831077576
1772031795613986800,2.43498681640625,-0.061760831624269485,-0.20178771018981934,0.047253452241420746
1772031795623935700,2.444935791015625,0.03167883679270744,-0.041847314685583115,-0.15745654702186584
1772031795633884700,2.454884765625,0.14249509572982788,0.1396138072013855,-0.34470048546791077
1772031795643832600,2.46483251953125,0.26064279675483704,0.3255746364593506,-0.5087767839431763
1772031795653781800,2.47478173828125,0.3707990348339081,0.5125121474266052,-0.641295850276947
1772031795663729700,2.484729736328125,0.46400752663612366,0.6916273236274719,-0.727668285369873
1772031795673678600,2.4946787109375,0.539766252040863,0.8261857628822327,-0.7756948471069336
1772031795683627500,2.50462744140625,0.6090779304504395,0.9350054860115051,-0.7865946292877197
1772031795693575700,2.51457568359375,0.6895458698272705,1.0179990530014038,-0.7686648964881897
1772031795703524600,2.524524658203125,0.7539905905723572,1.0450106859207153,-0.719323456287384
1772031795713473500,2.5344736328125,0.7788459658622742,1.0128370523452759,-0.6573465466499329
1772031795723421700,2.544421630859375,0.7437868118286133,0.8976359963417053,-0.5818904042243958
1772031795733370600,2.55437060546875,0.6482590436935425,0.6838402152061462,-0.4978695809841156
1772031795743318500,2.564318603515625,0.503197431564331,0.3984004557132721,-0.4100947082042694
1772031795753267500,2.574267333984375,0.32825523614883423,0.07492591440677643,-0.31589072942733765
1772031795763216600,2.584216552734375,0.15364773571491241,-0.24961860477924347,-0.219781756401062
1772031795773164800,2.594164794921875,0.0024159676395356655,-0.5078626275062561,-0.1359134018421173
1772031795783113700,2.60411376953125,-0.10132721066474915,-0.6711956262588501,-0.06972772628068924
1772031795793062700,2.614062744140625,-0.1536846160888672,-0.7041193246841431,-0.019333036616444588
1772031795803010800,2.6240107421875,-0.1663908213376999,-0.6341325044631958,0.003700909437611699
1772031795812959700,2.633959716796875,-0.15965764224529266,-0.49307000637054443,0.004592582117766142
1772031795822907600,2.64390771484375,-0.1411321610212326,-0.32813724875450134,-0.010860409587621689
1772031795832856600,2.653856689453125,-0.12219955772161484,-0.17319175601005554,-0.014826217666268349
1772031795842805500,2.663805419921875,-0.12062083184719086,-0.0669819563627243,0.0000193081796169281
1772031795852753700,2.673753662109375,-0.15509988367557526,-0.03787968307733536,0.05522818863391876
1772031795862702600,2.68370263671875,-0.23096801340579987,-0.15148374438285828,0.13811056315898895
1772031795872651500,2.693651611328125,-0.33781668543815613,-0.37874460220336914,0.24943357706069946
1772031795882599700,2.703599609375,-0.442018985748291,-0.6403858661651611,0.3565978407859802
1772031795892548600,2.713548583984375,-0.504835844039917,-0.8098981976509094,0.43277591466903687
1772031795902496500,2.72349658203125,-0.4898279011249542,-0.8094561100006104,0.4436842203140259
1772031795912445400,2.733445556640625,-0.38007688522338867,-0.5731886625289917,0.36142581701278687
1772031795922394600,2.74339453125,-0.17078597843647003,-0.06456328183412552,0.17872948944568634
1772031795932342500,2.753342529296875,0.09944422543048859,0.6285391449928284,-0.08917878568172455
1772031795942291700,2.763291748046875,0.3714616298675537,1.2816592454910278,-0.3688999116420746
1772031795952240600,2.77324072265625,0.5820143222808838,1.7100876569747925,-0.5738981366157532
1772031795962188800,2.783188720703125,0.7338770627975464,1.8584965467453003,-0.6632328033447266
1772031795972137700,2.7931376953125,0.7918173670768738,1.7075085639953613,-0.6172599196434021
1772031795982085600,2.803085693359375,0.7454906105995178,1.3579899072647095,-0.44732946157455444
1772031795992034600,2.81303466796875,0.6246852278709412,0.9039713740348816,-0.18406033515930176
1772031796001983700,2.822983642578125,0.4515496492385864,0.43890005350112915,0.11312419921159744
1772031796011931600,2.832931640625,0.2446441650390625,0.06154797226190567,0.4111919701099396
1772031796021880600,2.842880615234375,0.03203175961971283,-0.1976976990699768,0.6747024059295654
1772031796031829500,2.85282958984375,-0.1386978030204773,-0.33875009417533875,0.8902955055236816
1772031796041777700,2.862777587890625,-0.24171820282936096,-0.4015463590621948,1.054052472114563
1772031796051726600,2.8727265625,-0.28050416707992554,-0.4059252440929413,1.1561362743377686
1772031796061674500,2.882674560546875,-0.2531668245792389,-0.3646092414855957,1.1945267915725708
1772031796071623700,2.892623779296875,-0.1866612285375595,-0.2577369809150696,1.1679472923278809
1772031796081572600,2.902572509765625,-0.08942974358797073,-0.10518421232700348,1.0902458429336548
1772031796091520500,2.9125205078125,0.0216220673173666,0.05795063450932503,0.9761151075363159
1772031796101469400,2.922469482421875,0.14341560006141663,0.20213283598423004,0.8358821272850037
1772031796111418600,2.932418701171875,0.27442073822021484,0.3251991868019104,0.6668474078178406
1772031796121366800,2.94236669921875,0.39159902930259705,0.41133859753608704,0.4817960560321808
1772031796131315700,2.952315673828125,0.4849811792373657,0.44437745213508606,0.29527637362480164
1772031796141263600,2.962263671875,0.5609968900680542,0.43577277660369873,0.11472099274396896
1772031796151212800,2.972212890625,0.646723747253418,0.3961431384086609,-0.052960414439439774
1772031796161162800,2.982162841796875,0.738627016544342,0.34444907307624817,-0.2169666588306427
1772031796171111000,2.99211083984375,0.8282808661460876,0.2993049919605255,-0.3542453944683075
1772031796181059800,3.002059814453125,0.906546950340271,0.25069108605384827,-0.4472251236438751
1772031796191007700,3.0120078125,0.9703989028930664,0.1923215687274933,-0.5006712675094604
1772031796200957000,3.02195703125,1.0036102533340454,0.14855331182479858,-0.5310454368591309
1772031796210905900,3.03190576171875,1.0063238143920898,0.1119576245546341,-0.5429452657699585
1772031796220853800,3.041853759765625,0.9877150654792786,0.03852920979261398,-0.5434118509292603
1772031796230802700,3.051802734375,0.9495642185211182,-0.018024876713752747,-0.5584887862205505
1772031796240751900,3.061751953125,0.9097635746002197,-0.02537493407726288,-0.5955150127410889
1772031796250700000,3.071699951171875,0.8815862536430359,0.0023883692920207977,-0.6698514223098755
1772031796260649000,3.08164892578125,0.8734198808670044,0.06972479820251465,-0.7800058722496033
1772031796270596900,3.091596923828125,0.8953961730003357,0.17544475197792053,-0.9281381368637085
1772031796280546000,3.101546142578125,0.934830904006958,0.27173346281051636,-1.0967103242874146
1772031796290495000,3.111494873046875,0.9657497406005859,0.327747106552124,-1.2659211158752441
1772031796300443000,3.12144287109375,0.9781686067581177,0.3339235186576843,-1.4058047533035278
1772031796310391800,3.131391845703125,0.9624847173690796,0.30942562222480774,-1.494932770729065
1772031796320341000,3.141341064453125,0.9078422784805298,0.25603431463241577,-1.5260348320007324
1772031796330289000,3.151288818359375,0.7932026982307434,0.19157235324382782,-1.498468279838562
1772031796340237800,3.16123779296875,0.6285389065742493,0.14111903309822083,-1.4143558740615845
1772031796350186000,3.17118603515625,0.4249158203601837,0.14361105859279633,-1.2830325365066528
1772031796360135000,3.181135009765625,0.20503994822502136,0.17317374050617218,-1.111459732055664
1772031796370083800,3.191083740234375,-0.014380095526576042,0.1973193883895874,-0.9069194197654724
1772031796380031700,3.20103173828125,-0.20074224472045898,0.18044507503509521,-0.692517101764679
1772031796389980700,3.210980712890625,-0.3309118151664734,0.10733802616596222,-0.4857480525970459
1772031796399929900,3.220929931640625,-0.39963600039482117,0.011353706941008568,-0.33126792311668396
1772031796409877800,3.230877685546875,-0.405426561832428,-0.0559014193713665,-0.2346702516078949
1772031796419827000,3.240826904296875,-0.3720504939556122,-0.12369804084300995,-0.19122903048992157
1772031796429774800,3.25077490234375,-0.32280150055885315,-0.16309276223182678,-0.18151940405368805
1772031796439724000,3.26072412109375,-0.27346938848495483,-0.11455585062503815,-0.19755296409130096
1772031796449673000,3.2706728515625,-0.24391569197177887,-0.011070054024457932,-0.2240385115146637
1772031796459620900,3.280620849609375,-0.22334995865821838,0.08727223426103592,-0.241404727101326
1772031796469570000,3.290570068359375,-0.2115686535835266,0.16338196396827698,-0.23824451863765717
1772031796479519000,3.30051904296875,-0.21095798909664154,0.23169976472854614,-0.2122877538204193
1772031796489467000,3.310466796875,-0.22375787794589996,0.2719436287879944,-0.1625586897134781
1772031796499415800,3.320415771484375,-0.258667916059494,0.25280481576919556,-0.0758160650730133
1772031796509364000,3.330364013671875,-0.3080160915851593,0.1726246029138565,0.027118606492877007
1772031796519313000,3.34031298828125,-0.37513041496276855,0.03760072588920593,0.12373782694339752
1772031796529261800,3.35026171875,-0.4419381320476532,-0.13590054214000702,0.18605881929397583
1772031796539209700,3.360209716796875,-0.47204649448394775,-0.3110281825065613,0.17872793972492218
1772031796549159000,3.370158935546875,-0.4478764533996582,-0.43152955174446106,0.06922780722379684
1772031796559107800,3.38010791015625,-0.3888280391693115,-0.48435521125793457,-0.13225124776363373
1772031796569055700,3.3900556640625,-0.3308427631855011,-0.5064844489097595,-0.40410780906677246
1772031796579004700,3.400004638671875,-0.2948530614376068,-0.5672255158424377,-0.7136424779891968
1772031796588952800,3.409952880859375,-0.2815777361392975,-0.6635785698890686,-1.0194953680038452
1772031796598902000,3.419902099609375,-0.4437791407108307,-0.9010409116744995,-1.319881558418274
1772031796608851000,3.429850830078125,-0.8931360244750977,-1.073970913887024,-1.6447255611419678
1772031796618798800,3.439798828125,-1.279865026473999,-1.1669658422470093,-2.054774761199951
1772031796628748000,3.449748046875,-1.3491820096969604,-1.0623934268951416,-2.459672212600708
1772031796638697000,3.459697021484375,-0.955895721912384,-0.9703851342201233,-2.76642107963562
1772031796648644900,3.469644775390625,-0.405477911233902,-1.0714926719665527,-2.9085168838500977
1772031796658593800,3.47959375,-0.048023637384176254,-1.0971593856811523,-2.835446357727051
1772031796668542000,3.4895419921875,0.02408837154507637,-0.9715855121612549,-2.5772550106048584
1772031796678491000,3.499490966796875,-0.0539984405040741,-0.8139335513114929,-2.2013630867004395
1772031796688439800,3.509439697265625,-0.12506434321403503,-0.6322502493858337,-1.7618238925933838
1772031796698388000,3.519387939453125,-0.13009773194789886,-0.38468146324157715,-1.2902716398239136
1772031796708337000,3.5293369140625,-0.0777399018406868,-0.10398370772600174,-0.813664972782135
1772031796718285800,3.539285888671875,0.019157350063323975,0.12781517207622528,-0.3689136505126953
1772031796728233700,3.549233642578125,0.14264042675495148,0.32502004504203796,0.01416132040321827
1772031796738182700,3.5591826171875,0.2739185690879822,0.49207669496536255,0.3049108684062958
1772031796748130800,3.569130859375,0.42730751633644104,0.6139110922813416,0.4631551206111908
1772031796758079700,3.579079833984375,0.5809037685394287,0.7460007071495056,0.4740287959575653
1772031796768029000,3.58902880859375,0.707131564617157,0.8719107508659363,0.35511156916618347
1772031796777977000,3.59897705078125,0.7769908308982849,0.9928385019302368,0.1324174851179123
1772031796787926000,3.608926025390625,0.773989200592041,1.0744637250900269,-0.13332688808441162
1772031796797875000,3.618875,0.7204352021217346,1.0280394554138184,-0.3739655911922455
1772031796807822800,3.62882275390625,0.6054449677467346,0.7961987257003784,-0.5474511981010437
1772031796817772000,3.63877197265625,0.39313140511512756,0.6017559766769409,-0.6475034952163696
1772031796827720000,3.648719970703125,0.1381068229675293,0.5510421991348267,-0.7168564796447754
1772031796837668900,3.6586689453125,-0.14631745219230652,0.4478558897972107,-0.8073211312294006
1772031796847617800,3.66861767578125,-0.45685863494873047,0.23018477857112885,-0.9101662635803223
1772031796857566000,3.67856591796875,-0.7608919739723206,-0.053278353065252304,-1.0056140422821045
1772031796867515000,3.688514892578125,-1.0050392150878906,-0.35042017698287964,-1.0813632011413574
1772031796877463800,3.6984638671875,-1.0953986644744873,-0.5417994856834412,-1.0859296321868896
1772031796887411700,3.70841162109375,-1.0709763765335083,-0.8254168629646301,-1.090422511100769
1772031796897361000,3.71836083984375,-0.9301667213439941,-0.8783072233200073,-1.0959733724594116
1772031796907308800,3.728308837890625,-0.6987582445144653,-0.7853730320930481,-1.1214343309402466
1772031796917257700,3.7382578125,-0.4614357054233551,-0.5357951521873474,-1.0788336992263794
1772031796927207000,3.74820703125,-0.2540585696697235,-0.1718195229768753,-0.8222794532775879
1772031796937154800,3.75815478515625,-0.10640387237071991,0.10508210957050323,-0.40083742141723633
1772031796947104000,3.76810400390625,-0.03232864290475845,0.21736827492713928,0.03806980699300766
1772031796957053000,3.778052978515625,-0.020551610738039017,0.24912327527999878,0.4038810729980469
1772031796967001000,3.7880009765625,-0.07316778600215912,0.21283259987831116,0.6576782464981079
1772031796976950000,3.797949951171875,-0.15567384660243988,0.10905026644468307,0.8060975670814514
1772031796986898000,3.80789794921875,-0.2852623462677002,-0.03433112055063248,0.8933232426643372
1772031796996846800,3.817846923828125,-0.4060404300689697,-0.23033764958381653,0.9691655039787292
1772031797006795800,3.827795654296875,-0.47829917073249817,-0.40281254053115845,1.0337401628494263
1772031797016744000,3.837743896484375,-0.5176646709442139,-0.47608301043510437,1.0809447765350342
1772031797026692900,3.84769287109375,-0.5692382454872131,-0.5408303141593933,1.1224761009216309
1772031797036641800,3.857641845703125,-0.6161133050918579,-0.6159149408340454,1.165808916091919
1772031797046590000,3.86758984375,-0.6575750708580017,-0.6616666316986084,1.24310302734375
1772031797056539000,3.877538818359375,-0.6995015144348145,-0.7270437479019165,1.3671029806137085
1772031797066486800,3.88748681640625,-0.7538443207740784,-0.7899400591850281,1.5371087789535522
1772031797076435700,3.897435791015625,-0.8136879205703735,-0.8257781863212585,1.7437827587127686
1772031797086385000,3.907385009765625,-0.8981467485427856,-0.8883699774742126,1.938653588294983
1772031797096332800,3.917332763671875,-0.9877203106880188,-0.9512684941291809,2.0856826305389404
1772031797106282000,3.927281982421875,-1.0585392713546753,-0.9902617931365967,2.154836654663086
1772031797116231000,3.93723095703125,-1.1093541383743286,-1.0040345191955566,2.1162662506103516
1772031797126179000,3.947178955078125,-1.1416683197021484,-0.9381935000419617,1.9940156936645508
1772031797136128000,3.9571279296875,-1.1485048532485962,-0.8298989534378052,1.8454747200012207
1772031797146077000,3.967076904296875,-1.092586874961853,-0.7231041193008423,1.7282451391220093
1772031797156024000,3.977024169921875,-0.9544202089309692,-0.5489860773086548,1.6371676921844482
1772031797165973000,3.986972900390625,-0.7777391672134399,-0.31209447979927063,1.5757025480270386
1772031797175921000,3.9969208984375,-0.645328164100647,-0.1380947381258011,1.5631706714630127
1772031797185869800,4.006869873046875,-0.5859676599502563,-0.05645487457513809,1.5848541259765625
1772031797195819000,4.016819091796875,-0.5744628310203552,-0.003241986967623234,1.6119898557662964
1772031797205767000,4.026766845703125,-0.5745090246200562,0.0900631919503212,1.6334896087646484
1772031797215716000,4.036716064453125,-0.5360841155052185,0.226407989859581,1.6086857318878174
1772031797225665000,4.0466650390625,-0.4247998297214508,0.4598463177680969,1.489022970199585
1772031797235613200,4.05661328125,-0.20514710247516632,0.8200292587280273,1.2079929113388062
1772031797245562000,4.06656201171875,0.07657196372747421,1.185235619544983,0.792367696762085
1772031797255510000,4.076510009765625,0.3562763035297394,1.4302462339401245,0.33671098947525024
1772031797265459000,4.086458984375,0.5649724006652832,1.4570364952087402,-0.03817880526185036
1772031797275408100,4.096408203125,0.6904387474060059,1.2494980096817017,-0.243302121758461
1772031797285356000,4.10635595703125,0.7289707064628601,0.854766845703125,-0.26267173886299133
1772031797295305000,4.116304931640625,0.6613258719444275,0.34540829062461853,-0.12295831739902496
1772031797305254000,4.12625390625,0.47809088230133057,-0.17326141893863678,0.12360351532697678
1772031797315202000,4.1362021484375,0.22632922232151031,-0.618678092956543,0.39439746737480164
1772031797325151000,4.14615087890625,-0.021071482449769974,-0.8821014761924744,0.6645767092704773
1772031797335099000,4.156098876953125,-0.21266569197177887,-0.9582375288009644,0.9484151005744934
1772031797345048000,4.166048095703125,-0.3230341970920563,-0.8847959041595459,1.224021077156067
1772031797354997000,4.1759970703125,-0.36001619696617126,-0.703903079032898,1.4620202779769897
1772031797364945000,4.18594482421875,-0.3361577093601227,-0.44088026881217957,1.639477014541626
1772031797374893800,4.195893798828125,-0.2737092673778534,-0.14147037267684937,1.7212789058685303
1772031797384843000,4.205843017578125,-0.16142942011356354,0.1676783561706543,1.7039846181869507
1772031797394791000,4.215791015625,-0.02496052347123623,0.46291157603263855,1.6293871402740479
1772031797404740000,4.225739990234375,0.1412038803100586,0.7015072703361511,1.5076704025268555
1772031797414688000,4.23568798828125,0.3038945198059082,0.8730513453483582,1.3558645248413086
1772031797424637200,4.24563720703125,0.43882331252098083,1.0113558769226074,1.1564664840698242
1772031797434586000,4.255586181640625,0.5442778468132019,1.1130268573760986,0.9187990427017212
1772031797444534000,4.265533935546875,0.6212362051010132,1.1413755416870117,0.6702552437782288
1772031797454483000,4.27548291015625,0.6813413500785828,1.0702955722808838,0.444566935300827
1772031797464432000,4.28543212890625,0.7262146472930908,0.9077450037002563,0.26387447118759155
1772031797474380000,4.295380126953125,0.7574071884155273,0.6889868378639221,0.12588252127170563
1772031797484329000,4.305328857421875,0.7709349989891052,0.46750932931900024,0.017300523817539215
1772031797494277000,4.315277099609375,0.7682337164878845,0.2767939567565918,-0.08199410140514374
1772031797504226000,4.32522607421875,0.7535935044288635,0.12579141557216644,-0.18243832886219025
1772031797514175000,4.335175048828125,0.7345578074455261,0.015014833770692348,-0.2561096251010895
1772031797524123000,4.345122802734375,0.7023007273674011,-0.07002721726894379,-0.2992522120475769
1772031797534071800,4.35507177734375,0.6657900810241699,-0.12951478362083435,-0.34162575006484985
1772031797544021000,4.36502099609375,0.632068932056427,-0.1768815666437149,-0.3872092664241791
1772031797553969000,4.374968994140625,0.6147251129150391,-0.19457082450389862,-0.4457029402256012
1772031797563918000,4.38491796875,0.610643744468689,-0.1744449883699417,-0.5224366188049316
1772031797573866000,4.394865966796875,0.61527019739151,-0.12338927388191223,-0.6121507883071899
1772031797583815200,4.404815185546875,0.6079813241958618,-0.05747237056493759,-0.7139343023300171
1772031797593764000,4.41476416015625,0.5574513077735901,-0.010946948081254959,-0.8141703605651855
1772031797603712000,4.4247119140625,0.4663921296596527,0.035241514444351196,-0.90705406665802
1772031797613661000,4.434660888671875,0.33571746945381165,0.08871912211179733,-0.990663468837738
1772031797623610000,4.444610107421875,0.17223608493804932,0.15050433576107025,-1.0344575643539429
1772031797633558000,4.45455810546875,0.006814364809542894,0.17469702661037445,-1.028925895690918
1772031797643507000,4.4645068359375,-0.1561032384634018,0.12026716768741608,-0.9757416248321533
1772031797653456000,4.474455810546875,-0.3075186014175415,0.01196998730301857,-0.8641229271888733
1772031797663404000,4.484404052734375,-0.4113655090332031,-0.09503770619630814,-0.7284281253814697
1772031797673353000,4.49435302734375,-0.4413521885871887,-0.17164939641952515,-0.6020387411117554
1772031797683300900,4.50430078125,-0.41062769293785095,-0.20091985166072845,-0.511633574962616
1772031797693250000,4.51425,-0.34308168292045593,-0.20322109758853912,-0.47392532229423523
1772031797703199000,4.524198974609375,-0.242444708943367,-0.16410425305366516,-0.47736072540283203
1772031797713147000,4.53414697265625,-0.1255524456501007,-0.052871208637952805,-0.4947873651981354
1772031797723095800,4.544095703125,-0.02093672752380371,0.102754145860672,-0.4796525537967682
1772031797733045000,4.554044921875,0.05575139448046684,0.264404296875,-0.4203660488128662
1772031797742993200,4.5639931640625,0.09667103737592697,0.42445728182792664,-0.3471579849720001
1772031797752942000,4.573942138671875,0.075850710272789,0.5513833165168762,-0.28220242261886597
1772031797762890000,4.583889892578125,-0.009855917654931545,0.6151310205459595,-0.21855035424232483
1772031797772839200,4.593839111328125,-0.12870001792907715,0.568697988986969,-0.15752534568309784
1772031797782788000,4.6037880859375,-0.24374067783355713,0.43215715885162354,-0.11604736745357513
1772031797792736000,4.613736083984375,-0.31671902537345886,0.3375161290168762,-0.11878962814807892
1772031797802685000,4.623684814453125,-0.3475457727909088,0.3115808665752411,-0.17143118381500244
1772031797812634000,4.633634033203125,-0.3336552679538727,0.36456605792045593,-0.30794402956962585
1772031797822582000,4.64358203125,-0.27018553018569946,0.5017470121383667,-0.5264238119125366
1772031797832531000,4.653531005859375,-0.17199929058551788,0.698775053024292,-0.7617111206054688
1772031797842479000,4.66347900390625,-0.05953783914446831,0.8988503217697144,-0.9392914175987244
1772031797852428000,4.673427978515625,0.05096310377120972,1.0518805980682373,-0.9945237636566162
1772031797862377000,4.683376953125,0.13134941458702087,1.057490587234497,-0.8789844512939453
1772031797872324900,4.693324951171875,0.15855146944522858,0.9025675654411316,-0.5992942452430725
1772031797882273800,4.703273681640625,0.1301412433385849,0.6481025815010071,-0.19795870780944824
1772031797892223200,4.71322314453125,0.06276406347751617,0.3379404544830322,0.2508925795555115
1772031797902171000,4.7231708984375,-0.024190811440348625,0.02563716098666191,0.6875749826431274
1772031797912120000,4.7331201171875,-0.1275920271873474,-0.2500423491001129,1.0569431781768799
1772031797922068200,4.743068115234375,-0.21584363281726837,-0.420564204454422,1.3145211935043335
1772031797932017200,4.75301708984375,-0.2582038640975952,-0.5033565759658813,1.4708099365234375
1772031797941966000,4.762966064453125,-0.2652668058872223,-0.5334433913230896,1.5505133867263794
1772031797951914000,4.7729140625,-0.24260465800762177,-0.5122936367988586,1.5581645965576172
1772031797961863200,4.78286328125,-0.20649707317352295,-0.433603972196579,1.4924054145812988
1772031797971812000,4.79281201171875,-0.17149914801120758,-0.3178028166294098,1.3649457693099976
1772031797981760000,4.802760009765625,-0.14564760029315948,-0.17180633544921875,1.1947687864303589
1772031797991709000,4.812708984375,-0.1122899204492569,-0.02785767987370491,0.9957806468009949
1772031798001657900,4.822657958984375,-0.07964830845594406,0.08620509505271912,0.7729560732841492
1772031798011606000,4.83260595703125,-0.04697664454579353,0.1201058030128479,0.557256817817688
1772031798021555000,4.842554931640625,-0.024234896525740623,0.0847516804933548,0.3498583734035492
1772031798031502800,4.8525029296875,-0.018415091559290886,0.007770353462547064,0.16054755449295044
1772031798041452000,4.8624521484375,-0.034673407673835754,-0.03793433681130409,0.009791343472898006
1772031798051401000,4.87240087890625,-0.05493234097957611,-0.03015177883207798,-0.10044941306114197
1772031798061348900,4.882348876953125,-0.08406071364879608,0.006656886078417301,-0.16434034705162048
1772031798071298000,4.892298095703125,-0.1103873923420906,0.023010026663541794,-0.1837683618068695
1772031798081247000,4.9022470703125,-0.1467331051826477,0.011236673220992088,-0.15415365993976593
1772031798091195100,4.912195068359375,-0.19341671466827393,-0.05316495522856712,-0.08953417837619781
1772031798101144000,4.92214404296875,-0.25108686089515686,-0.12328802049160004,-0.001625938806682825
1772031798111092000,4.932092041015625,-0.3142296075820923,-0.16683335602283478,0.10004395991563797
1772031798121041200,4.942041259765625,-0.3647114932537079,-0.2003461718559265,0.20279236137866974
1772031798130990000,4.951989990234375,-0.39022111892700195,-0.23161780834197998,0.2978741228580475
1772031798140938000,4.96193798828125,-0.3960859179496765,-0.24880903959274292,0.368098646402359
1772031798150887000,4.971886962890625,-0.38378775119781494,-0.24782446026802063,0.3926609754562378
1772031798160835800,4.9818359375,-0.3606838583946228,-0.22042636573314667,0.3643319010734558
1772031798170783700,4.99178369140625,-0.33912423253059387,-0.20416563749313354,0.3024671971797943
1772031798180732700,5.001732666015625,-0.31488484144210815,-0.2214389145374298,0.2256016582250595
1772031798190680800,5.011680908203125,-0.2922213077545166,-0.2261420637369156,0.12848177552223206
1772031798200629800,5.021629638671875,-0.2655943036079407,-0.2259323000907898,0.03397182375192642
1772031798210578700,5.03157861328125,-0.2502332031726837,-0.22623349726200104,-0.05167064443230629
1772031798220526600,5.041526611328125,-0.24410554766654968,-0.2208898663520813,-0.12800003588199615
1772031798230475800,5.051475830078125,-0.2524140775203705,-0.21876759827136993,-0.17909358441829681
1772031798240424700,5.0614248046875,-0.26026588678359985,-0.23442453145980835,-0.20804347097873688
1772031798250372600,5.07137255859375,-0.27242615818977356,-0.24560794234275818,-0.20375685393810272
1772031798260321500,5.081321533203125,-0.28146421909332275,-0.2483426183462143,-0.1739971786737442
1772031798270270500,5.0912705078125,-0.28403255343437195,-0.25129473209381104,-0.11922474205493927
1772031798280218600,5.101218505859375,-0.28105923533439636,-0.2655829191207886,-0.06389686465263367
1772031798290167600,5.11116748046875,-0.27369293570518494,-0.26824715733528137,-0.029919184744358063
1772031798300115700,5.12111572265625,-0.2692727744579315,-0.26649823784828186,-0.019992299377918243
1772031798310064600,5.131064697265625,-0.2666364908218384,-0.25163087248802185,-0.032820478081703186
1772031798320013800,5.141013916015625,-0.25572314858436584,-0.22652792930603027,-0.0656849592924118
1772031798329961700,5.150961669921875,-0.23650841414928436,-0.2080107033252716,-0.09337836503982544
1772031798339910700,5.16091064453125,-0.2186131477355957,-0.20140422880649567,-0.11060857027769089
1772031798349859800,5.17085986328125,-0.21246950328350067,-0.1749608963727951,-0.11819059401750565
1772031798359807700,5.180807861328125,-0.21850448846817017,-0.14163464307785034,-0.10408569127321243
1772031798369756700,5.190756591796875,-0.22696775197982788,-0.12307106703519821,-0.08066745102405548
1772031798379704800,5.200704833984375,-0.22249910235404968,-0.09215490520000458,-0.07512083649635315
1772031798389653800,5.21065380859375,-0.20277492702007294,-0.03219490125775337,-0.08919884264469147
1772031798399602700,5.220602783203125,-0.16613706946372986,0.03934907168149948,-0.11832712590694427
1772031798409550600,5.230550537109375,-0.11540623754262924,0.12660834193229675,-0.14264950156211853
1772031798419499500,5.24049951171875,-0.05999890714883804,0.19791555404663086,-0.13766567409038544
1772031798429448700,5.25044873046875,-0.020551636815071106,0.25314366817474365,-0.096193328499794
1772031798439396600,5.260396728515625,0.01089284848421812,0.27059561014175415,-0.03541319817304611
1772031798449345500,5.270345458984375,0.03883872926235199,0.24239563941955566,0.054118283092975616
1772031798459294500,5.28029443359375,0.06608225405216217,0.16524963080883026,0.16439609229564667
1772031798469242600,5.29024267578125,0.060797739773988724,0.051414404064416885,0.31373098492622375
1772031798479191800,5.30019189453125,0.014056723564863205,-0.10294083505868912,0.47681108117103577
1772031798489139500,5.310139404296875,-0.07484358549118042,-0.2268497347831726,0.6040060520172119
1772031798499088600,5.320088623046875,-0.15449270606040955,-0.2133226990699768,0.6757230758666992
1772031798509037800,5.330037841796875,-0.19603802263736725,-0.09924539923667908,0.6817993521690369
1772031798518985700,5.33998583984375,-0.2251681387424469,0.027481507509946823,0.6558906435966492
1772031798528934700,5.3499345703125,-0.2758028209209442,0.11876135319471359,0.5849559903144836
1772031798538883600,5.359883544921875,-0.3047696650028229,0.26976099610328674,0.4267983138561249
1772031798548831700,5.369831787109375,-0.262100487947464,0.49535152316093445,0.12463980168104172
1772031798558780700,5.37978076171875,-0.13848793506622314,0.6910755634307861,-0.2858857214450836
1772031798568728600,5.389728515625,0.014900827780365944,0.7291979193687439,-0.673008918762207
1772031798578677800,5.399677734375,0.15323010087013245,0.6000561118125916,-0.9240021109580994
1772031798588626700,5.409626708984375,0.2967396080493927,0.39885061979293823,-1.019906759262085
1772031798598574600,5.41957470703125,0.4206446707248688,0.22014012932777405,-0.9486657381057739
1772031798608523500,5.4295234375,0.4842076897621155,0.050389982759952545,-0.7592936754226685
1772031798618472700,5.43947265625,0.4901803433895111,-0.06831376254558563,-0.5246212482452393
1772031798628420600,5.449420654296875,0.4311513900756836,-0.12300869822502136,-0.28857168555259705
1772031798638369500,5.45936962890625,0.3350776731967926,-0.15557023882865906,-0.06345503777265549
1772031798648317700,5.469317626953125,0.24581491947174072,-0.1764795184135437,0.13369877636432648
1772031798658267000,5.479266845703125,0.18652237951755524,-0.17913170158863068,0.27478957176208496
1772031798668215800,5.4892158203125,0.14514537155628204,-0.1563105434179306,0.3570903241634369
1772031798678163700,5.499163818359375,0.12005329132080078,-0.1361226737499237,0.38336724042892456
1772031798688112600,5.509112548828125,0.12115317583084106,-0.10355515033006668,0.3668085038661957
1772031798698061800,5.519061767578125,0.1457482874393463,-0.05205143243074417,0.3156897723674774
1772031798708009700,5.529009765625,0.19619867205619812,0.02575334906578064,0.23403216898441315
1772031798717958700,5.538958740234375,0.25330621004104614,0.09944749623537064,0.1573302000761032
1772031798727907600,5.548907470703125,0.3102053999900818,0.15233227610588074,0.08254330605268478
1772031798737855700,5.558855712890625,0.3592938184738159,0.16803698241710663,0.00772729841992259
1772031798747804700,5.5688046875,0.3808606266975403,0.1520652025938034,-0.07149960845708847
1772031798757752600,5.578752685546875,0.38577800989151,0.11183453351259232,-0.13464178144931793
1772031798767701500,5.588701416015625,0.3782181143760681,0.04496016353368759,-0.17958982288837433
1772031798777650700,5.598650634765625,0.36294302344322205,-0.006571569480001926,-0.2153557986021042
1772031798787598600,5.6085986328125,0.34170591831207275,-0.01884394884109497,-0.25205788016319275
1772031798797547500,5.618547607421875,0.3096802234649658,-0.023363113403320312,-0.27900582551956177
1772031798807496700,5.62849658203125,0.2754117250442505,-0.04575390741229057,-0.29414403438568115
1772031798817444600,5.638444580078125,0.25532665848731995,-0.07004228234291077,-0.3235580027103424
1772031798827393800,5.648393798828125,0.25192421674728394,-0.07805760204792023,-0.34791526198387146
1772031798837341700,5.658341796875,0.26497578620910645,-0.058343254029750824,-0.3464924395084381
1772031798847291000,5.668290771484375,0.2799968123435974,-0.001664258074015379,-0.3176541328430176
1772031798857239800,5.67823974609375,0.2811689078807831,0.05739928036928177,-0.2607482373714447
1772031798867187700,5.688187744140625,0.2601507008075714,0.1203358992934227,-0.1955156922340393
1772031798877136600,5.69813671875,0.21528953313827515,0.15196536481380463,-0.1387985348701477
1772031798887085600,5.70808544921875,0.1488274186849594,0.15340827405452728,-0.09000489115715027
1772031798897033700,5.71803369140625,0.06820784509181976,0.11236455291509628,-0.04821621626615524
1772031798906982700,5.727982666015625,-0.02508375607430935,0.038051705807447433,-0.005365691613405943
1772031798916931600,5.737931640625,-0.11633509397506714,-0.008643312379717827,0.029197178781032562
1772031798926879700,5.747879638671875,-0.18519431352615356,-0.026606600731611252,0.07712528854608536
1772031798936828700,5.75782861328125,-0.24631862342357635,-0.049024924635887146,0.13781872391700745
1772031798946776600,5.767776611328125,-0.3026588559150696,-0.07899986207485199,0.2010514885187149
1772031798956725500,5.7777255859375,-0.3546237051486969,-0.12876839935779572,0.24457788467407227
1772031798966674700,5.7876748046875,-0.4061177968978882,-0.16002565622329712,0.256930947303772
1772031798976622600,5.79762255859375,-0.44278812408447266,-0.16732685267925262,0.25744396448135376
1772031798986571800,5.80757177734375,-0.45299363136291504,-0.162311851978302,0.2671722173690796
1772031798996520700,5.817520751953125,-0.44352099299430847,-0.13324126601219177,0.2850417494773865
1772031799006468900,5.82746875,-0.4205879867076874,-0.08486255258321762,0.2972339689731598
1772031799016417800,5.837417724609375,-0.4044969081878662,-0.05780696123838425,0.29879727959632874
1772031799026366700,5.84736669921875,-0.38630005717277527,-0.06585343182086945,0.28393256664276123
1772031799036314600,5.857314697265625,-0.36259594559669495,-0.058972325176000595,0.2404923439025879
1772031799046263800,5.867263916015625,-0.3341001272201538,-0.04876416549086571,0.17543664574623108
1772031799056211700,5.877211669921875,-0.3120518624782562,-0.03014437109231949,0.10498741269111633
1772031799066160600,5.88716064453125,-0.27931761741638184,-0.026681993156671524,0.045604512095451355
1772031799076109600,5.897109619140625,-0.25074127316474915,-0.03592229261994362,0.016647253185510635
1772031799086057700,5.9070576171875,-0.24201196432113647,-0.09892788529396057,0.02413313277065754
1772031799096006700,5.917006591796875,-0.2648783326148987,-0.21693052351474762,0.06120992451906204
1772031799105955600,5.92695556640625,-0.29079729318618774,-0.26755189895629883,0.07968559861183167
1772031799115903500,5.936903564453125,-0.282565712928772,-0.20681020617485046,0.08643987029790878
1772031799125852700,5.946852783203125,-0.24206304550170898,-0.13037988543510437,0.09211160242557526
1772031799135800600,5.956800537109375,-0.2108398973941803,-0.06310418248176575,0.07731525599956512
1772031799145749500,5.96674951171875,-0.1854970008134842,-0.02305769920349121,0.012588990852236748
1772031799155698700,5.97669873046875,-0.16164685785770416,-0.016720477491617203,-0.10964250564575195
1772031799165647000,5.986647216796875,-0.11147716641426086,-0.004309347830712795,-0.266539990901947
1772031799175596300,5.99659619140625,-0.05019983649253845,0.04884651303291321,-0.4248341917991638
1772031799185545200,6.006545166015625,-0.01278508361428976,0.11392884701490402,-0.5216555595397949
1772031799195493000,6.0164931640625,0.009101340547204018,0.151457741856575,-0.5504858493804932
1772031799205442300,6.0264423828125,0.0075423261150717735,0.12737584114074707,-0.5035351514816284
1772031799215391200,6.03639111328125,-0.011965070851147175,0.03954321891069412,-0.37146562337875366
1772031799225339100,6.046339111328125,-0.05259478837251663,-0.05200747027993202,-0.1519884169101715
1772031799235288000,6.0562880859375,-0.10526306927204132,-0.1032317504286766,0.11629776656627655
1772031799245236200,6.066236328125,-0.15330275893211365,-0.0938052237033844,0.3473847806453705
1772031799255185200,6.07618505859375,-0.17658784985542297,-0.019656453281641006,0.4795858561992645
1772031799265134000,6.086134033203125,-0.17441363632678986,0.06400355696678162,0.5042133927345276
1772031799275082000,6.09608203125,-0.1581580936908722,0.1306188553571701,0.42897436022758484
1772031799285031200,6.10603125,-0.14196422696113586,0.17613759636878967,0.2833399176597595
1772031799294980000,6.11597998046875,-0.1543562412261963,0.21727530658245087,0.10423281043767929
1772031799304928000,6.125927978515625,-0.18955497443675995,0.24090580642223358,-0.06669659167528152
1772031799314877000,6.135876953125,-0.23540747165679932,0.22985054552555084,-0.21476085484027863
1772031799324826400,6.145826416015625,-0.2750217318534851,0.22555699944496155,-0.32472169399261475
1772031799334774000,6.15577392578125,-0.2991359829902649,0.22810594737529755,-0.3979315757751465
1772031799344723200,6.16572314453125,-0.3140513002872467,0.1778869777917862,-0.4344927668571472
1772031799354671400,6.17567138671875,-0.31549060344696045,0.11934196203947067,-0.4394819736480713
1772031799364620300,6.185620361328125,-0.3215048313140869,0.05549480393528938,-0.40868622064590454
1772031799374569200,6.1955693359375,-0.32221415638923645,-0.054246384650468826,-0.34898266196250916
1772031799384517000,6.20551708984375,-0.3222876489162445,-0.1847521960735321,-0.28322842717170715
1772031799394466000,6.215466064453125,-0.3237884044647217,-0.2739924490451813,-0.2274283617734909
1772031799404415200,6.225415283203125,-0.31725725531578064,-0.31314224004745483,-0.18409445881843567
1772031799414363100,6.235363037109375,-0.3118356168270111,-0.3169702887535095,-0.1417580544948578
1772031799424312000,6.24531201171875,-0.30491670966148376,-0.3316541612148285,-0.09337455034255981
1772031799434260200,6.25526025390625,-0.3047862946987152,-0.35882171988487244,-0.040126726031303406
1772031799444209200,6.265209228515625,-0.2915019392967224,-0.36732760071754456,0.0035930578596889973
1772031799454158000,6.275157958984375,-0.26628732681274414,-0.3399232029914856,0.027547486126422882
1772031799464106000,6.28510595703125,-0.22790184617042542,-0.29874753952026367,0.002337469020858407
1772031799474055200,6.29505517578125,-0.1900053769350052,-0.22902674973011017,-0.0738399475812912
1772031799484004000,6.305004150390625,-0.15031787753105164,-0.12059001624584198,-0.18395580351352692
1772031799493952000,6.314951904296875,-0.10326196253299713,-0.006645024288445711,-0.30903860926628113
1772031799503901200,6.324901123046875,-0.06670182943344116,0.09002719074487686,-0.42392417788505554
1772031799513850000,6.33485009765625,-0.042158473283052444,0.15267790853977203,-0.5335936546325684
1772031799523798300,6.34479833984375,-0.02617337927222252,0.18110103905200958,-0.6113827228546143
1772031799533747200,6.354747314453125,-0.01632673665881157,0.1783635914325714,-0.6477150321006775
1772031799543695000,6.364695068359375,-0.01277700811624527,0.1306043267250061,-0.6410813331604004
1772031799553644300,6.374644287109375,-0.01890290528535843,0.06981467455625534,-0.577357292175293
1772031799563593200,6.38459326171875,-0.039693403989076614,0.02083514630794525,-0.4742910861968994
1772031799573541000,6.394541015625,-0.06291956454515457,-0.01852729171514511,-0.3711985647678375
1772031799583490000,6.404489990234375,-0.07503987848758698,-0.05804167687892914,-0.28619739413261414
1772031799593439000,6.41443896484375,-0.08885034918785095,-0.10388292372226715,-0.21369917690753937
1772031799603387100,6.42438720703125,-0.08720744401216507,-0.15951156616210938,-0.1511085033416748
1772031799613336000,6.434336181640625,-0.0777444839477539,-0.2216223031282425,-0.09811807423830032
1772031799623285000,6.444284912109375,-0.07137073576450348,-0.2520201504230499,-0.05267149955034256
1772031799633233200,6.454233154296875,-0.06125175580382347,-0.23513182997703552,0.004257294815033674
1772031799643182000,6.46418212890625,-0.054656170308589935,-0.2038162499666214,0.06956732273101807
1772031799653130000,6.4741298828125,-0.05028841271996498,-0.16394266486167908,0.11973372846841812
1772031799663079000,6.484078857421875,-0.03584342822432518,-0.14377348124980927,0.1309267282485962
1772031799673028400,6.4940283203125,-0.001028543571010232,-0.13030028343200684,0.0969701036810875
1772031799682976300,6.503976318359375,0.048156581819057465,-0.09763342142105103,0.04268103465437889
1772031799692925200,6.51392529296875,0.10025815665721893,-0.06584716588258743,-0.02269008196890354
1772031799702874000,6.5238740234375,0.13556848466396332,-0.07929079979658127,-0.05744459852576256
1772031799712822300,6.533822265625,0.168442040681839,-0.08547284454107285,-0.04467092081904411
1772031799722771200,6.543771240234375,0.19648246467113495,-0.08478602021932602,0.02719394862651825
1772031799732719000,6.553718994140625,0.21742598712444305,-0.07282817363739014,0.13954970240592957
1772031799742668000,6.56366796875,0.22326870262622833,-0.09767413884401321,0.25482088327407837
1772031799752617200,6.5736171875,0.18970447778701782,-0.15809276700019836,0.34746676683425903
1772031799762565000,6.583565185546875,0.12383411079645157,-0.2729168236255646,0.41870951652526855
1772031799772514000,6.59351416015625,0.048801928758621216,-0.4365159869194031,0.5021196603775024
1772031799782463000,6.603462890625,-0.021414708346128464,-0.6180224418640137,0.5721474885940552
1772031799792411100,6.6134111328125,-0.08163420110940933,-0.7483766078948975,0.6319524645805359
1772031799802360000,6.623360107421875,-0.024074232205748558,-0.6003112196922302,0.7982184290885925
1772031799812309000,6.63330908203125,0.16375282406806946,-0.015155416913330555,0.8524623513221741
1772031799822257200,6.643257080078125,0.2613376975059509,0.3392471373081207,0.7335436940193176
1772031799832206000,6.6532060546875,0.22607915103435516,0.48377561569213867,0.46789801120758057
1772031799842155300,6.6631552734375,0.22542348504066467,0.5757327079772949,0.06417185068130493
1772031799852103200,6.673103271484375,0.30892547965049744,0.5384309887886047,-0.41564691066741943
1772031799862052000,6.683052001953125,0.41297438740730286,0.3888729214668274,-0.8709121346473694
1772031799872000300,6.693000244140625,0.4880335032939911,0.15486440062522888,-1.2045035362243652
1772031799881949200,6.70294921875,0.5149876475334167,-0.16915255784988403,-1.338196873664856
1772031799891898000,6.712898193359375,0.48835518956184387,-0.5201511979103088,-1.2540749311447144
1772031799901846300,6.72284619140625,0.4312404990196228,-0.7446162700653076,-0.9992010593414307
1772031799911795200,6.732795166015625,0.3455611765384674,-0.6901534795761108,-0.6602455377578735
1772031799921744100,6.742744140625,0.19415168464183807,-0.43120551109313965,-0.33260536193847656
1772031799931692000,6.752692138671875,0.0072666979394853115,-0.128248929977417,-0.03706905618309975
