time,seconds_elapsed,z,y,x
1772048139758629000,0.075629150390625,0.0956453168094158,0.04559468015693128,0.008714135100660495
1772048139768581000,0.0855810546875,0.06915536929070949,0.028507534418813884,0.023976558191981166
1772048139778533000,0.095533203125,0.07019757182002068,0.03316299554184079,0.0277128791930736
1772048139788485400,0.1054853515625,0.07722118684649466,0.030605456546135244,0.022539396961755116
1772048139798437000,0.11543701171875,0.06749415808022022,0.04244918520543724,0.013267797512514517
1772048139808388400,0.125388427734375,0.06435293744504451,0.03702537005841732,0.031755676894029604
1772048139818340000,0.135340087890625,0.0903916340649128,0.03997585389446467,0.023775331964879295
1772048139828292000,0.1452919921875,0.07722118684649466,0.03720445295237004,0.010990233085525688
1772048139838244000,0.155244140625,0.058814592540264124,0.03978818583525717,0.03167248298944905
1772048139848196400,0.1651962890625,0.08245558036863804,0.0420749085329473,0.03165147216746118
1772048139858148000,0.175148193359375,0.09038403528034686,0.03258073867447674,0.013968659807846414
1772048139868100000,0.18510009765625,0.08484685941934585,0.037546069464273746,0.03066693637582939
1772048139878052400,0.19505224609375,0.06150280871093273,0.03561100974846631,0.026260463311499914
1772048139888003000,0.205003173828125,0.09726794957518577,0.03570256048943847,0.021292013549432158
1772048139897955000,0.214955078125,0.08515782506465912,0.031950843273103234,0.017880843124276725
1772048139907907300,0.2249072265625,0.055986091116070745,0.038139176519215105,0.027815720796328967
1772048139917859000,0.234859130859375,0.08352291733920574,0.04536065220534801,0.024464318876038303
1772048139927811000,0.24481103515625,0.09220423644483089,0.04231156683303416,0.020581202965532428
1772048139937763300,0.254763427734375,0.0787321759313345,0.045748117152974006,0.019613609175547025
1772048139947715300,0.26471533203125,0.07154957095086574,0.04289071842785924,0.016629267594026168
1772048139957666000,0.274666015625,0.07034662490189075,0.0493571014303714,0.02275602168738842
1772048139967618300,0.284618408203125,0.07408581143021584,0.03685249770954251,0.027152751959126906
1772048139977570000,0.294570068359375,0.0766319887816906,0.030048845576681193,0.022587051478784995
1772048139987522000,0.30452197265625,0.06391220794022083,0.03723335025329143,0.027390956045617348
1772048139997474300,0.314474365234375,0.07453647780716419,0.045321306575648486,0.026295543758035635
1772048140007426300,0.32442626953125,0.08935060057938099,0.043074404431693254,0.013733660316950409
1772048140017378000,0.3343779296875,0.07872399262487888,0.038216150745563206,0.01435164608482155
1772048140027329300,0.344329345703125,0.08485971890091895,0.04059219569452107,0.0223041725669289
1772048140037281300,0.35428125,0.08141805401444435,0.051822066771797834,0.01882102146766265
1772048140047233000,0.36423291015625,0.07558101842403411,0.04257405369412154,0.02570587533577345
1772048140057185300,0.374185302734375,0.0836596954613924,0.04007913160584867,0.02096786191227147
1772048140067137300,0.38413720703125,0.06958966905474662,0.036768143894337114,0.012889684915123507
1772048140077089000,0.394089111328125,0.07242810735106468,0.039307416580989955,0.015851040629990164
1772048140087041000,0.404041015625,0.0785574038863182,0.030497721855342386,0.023756930941797327
1772048140096992300,0.4139921875,0.07705927428305148,0.03564966125842184,0.026211913745326453
1772048140106947600,0.423947509765625,0.07840425915122032,0.0343485155319795,0.015735000476799904
1772048140116899800,0.43389990234375,0.06896598419845104,0.024964674180187284,0.02831901240965817
1772048140126851600,0.4438515625,0.061328621187806125,0.027836759017780422,0.028296072208776602
1772048140136803600,0.453803466796875,0.06582417904138564,0.02299534686859697,0.025352513587148857
1772048140146755600,0.463755615234375,0.06731354081630707,0.019470752939023075,0.022786058349336964
1772048140156707800,0.473707763671875,0.08751461732387542,0.020370222529396412,0.026204739652446005
1772048140166658600,0.483658447265625,0.08886077123582363,0.029521606832183897,0.02078552533201873
1772048140176610800,0.49361083984375,0.07554010189175606,0.030067696407623586,0.020111523644148838
1772048140186562800,0.503562744140625,0.07987959240078926,0.031112090894021092,0.023534613977605475
1772048140196514600,0.5135146484375,0.07299567810595035,0.03981142058037221,0.016498882680007956
1772048140206466600,0.523466552734375,0.07074585335254668,0.03757737791799009,0.024704548239544964
1772048140216418800,0.533418701171875,0.0780780959367752,0.036976379817537965,0.025908603966794907
1772048140226370600,0.54337060546875,0.07463409296274184,0.033757125510089095,0.022180356674303764
1772048140236321800,0.55332177734375,0.08062018163502216,0.04182071457616984,0.0206716052123229
1772048140246273800,0.563273681640625,0.07239069795012473,0.03163074447326362,0.021037479382648598
1772048140256225500,0.5732255859375,0.08600888893604278,0.041602834041789175,0.02218273586105788
1772048140266177500,0.583177490234375,0.07284019528329372,0.047464894475601614,0.03270312066184124
1772048140276129800,0.5931298828125,0.07657645920217036,0.037873986244387925,0.02938381264655618
1772048140286081500,0.60308154296875,0.06594868220388889,0.044420485278405246,0.02376281725988956
1772048140296033500,0.613033447265625,0.0837508808761835,0.045759844123385844,0.014975319524673977
1772048140305984800,0.62298486328125,0.08644494226574898,0.04590038510523736,0.024777423962799364
1772048140315936500,0.6329365234375,0.050984921827912325,0.03454221147317439,0.023151941652817185
1772048140325888500,0.642888427734375,0.08226268814504147,0.03533730737362057,0.019640216337970924
1772048140335840800,0.6528408203125,0.07269055767953396,0.03834781430121511,0.02545461768817622
1772048140345792800,0.662792724609375,0.07015607076585292,0.0328167759200558,0.014649602693156339
1772048140355744500,0.67274462890625,0.08422668169438838,0.032216070080548526,0.017652370413934113
1772048140365696800,0.68269677734375,0.08124035935997963,0.03293141527567059,0.018592311295302352
1772048140375647700,0.692647705078125,0.07406652220785617,0.03431223864220082,0.023877406383154446
1772048140385599500,0.702599609375,0.06509352667927741,0.02531878484748304,0.02889402440219419
1772048140395551700,0.7125517578125,0.07826689650714397,0.03577558919303119,0.024770626612543128
1772048140405503700,0.722503662109375,0.08590484403967857,0.03182962804622948,0.02026719597976189
1772048140415455500,0.73245556640625,0.053742111581563945,0.03438884754236787,0.02033250716777984
1772048140425407700,0.74240771484375,0.07799275574088096,0.03544387302063405,0.018533581686764954
1772048140435359700,0.75235986328125,0.09969137732982634,0.03689893066715449,0.019085287010594035
1772048140445311700,0.762311767578125,0.08547755853831768,0.03640018736477941,0.02820818157948088
1772048140455262700,0.7722626953125,0.07365794140696526,0.0399328915355727,0.02164465377884917
1772048140465214700,0.782214599609375,0.06467910065948963,0.0402461222032085,0.023429970859619786
1772048140475166500,0.79216650390625,0.0829366418838501,0.03675130235739052,0.012742622860940172
1772048140485118700,0.80211865234375,0.07380933257639408,0.04003587698601186,0.028462571899080646
1772048140495070700,0.81207080078125,0.06813245598375797,0.034500710419006646,0.025286894155165645
1772048140505022700,0.822022705078125,0.07741291002631187,0.028729323943331837,0.02247377067990601
1772048140514974700,0.831974609375,0.06603928309679032,0.039992951159738,0.02674221209659008
1772048140524925700,0.84192578125,0.08175006244778632,0.03554338787235319,0.016053852601046675
1772048140534877700,0.851877685546875,0.08235328903794288,0.02731328313294798,0.025930726750346366
1772048140544829700,0.86182958984375,0.06379997973740101,0.029807584166713058,0.03359440922904759
1772048140554781700,0.87178173828125,0.07398352009952068,0.025662447186000643,0.02379290643747663
1772048140564733700,0.881733642578125,0.08760814082622527,0.032317886487208305,0.024191666813963092
1772048140574685700,0.891685791015625,0.0753378573179245,0.0345517099538818,0.031047030867752616
1772048140584637700,0.9016376953125,0.07189677695333957,0.029596644829772412,0.01328238087700447
1772048140594588700,0.911588623046875,0.06740589527487754,0.036685726307891305,0.02298732110905694
1772048140604540700,0.921540771484375,0.06800152308046817,0.04036134608071297,0.03557396567370742
1772048140614492700,0.93149267578125,0.08296294536888599,0.04058781178034842,0.010268567747471388
1772048140624444700,0.941444580078125,0.07144026535749436,0.036126996446587144,0.011074537810025504
1772048140634396700,0.951396728515625,0.07577917134463787,0.03808262402638793,0.019972544431721324
1772048140644348700,0.9613486328125,0.0943342342108488,0.03300469970759004,0.024455158322048372
1772048140654300700,0.97130078125,0.09253741392195224,0.03422156468406319,0.0074340281664917705
1772048140664251600,0.981251708984375,0.0813157626837492,0.0359957347497344,0.01760200563329854
1772048140674203600,0.99120361328125,0.06860299610495567,0.0449258044520393,0.033189212261908685
1772048140684155600,1.00115576171875,0.07518705067038535,0.042669038501195605,0.025004426235263236
1772048140694107600,1.011107666015625,0.08850655097067356,0.036782793474197384,0.022910015805857255
1772048140704059600,1.0210595703125,0.07174655482769011,0.03530621811561286,0.01800949844715651
1772048140714011600,1.03101171875,0.0736953508079052,0.03340334363635629,0.019298305281833746
1772048140723963600,1.040963623046875,0.09674538700580597,0.035621567675098775,0.014501563391438684
1772048140733914600,1.05091455078125,0.059042556077241896,0.05025463479198515,0.02252486611290369
1772048140743866600,1.06086669921875,0.06234159762263298,0.04120316719971597,0.02598448678117711
1772048140753818600,1.070818603515625,0.08584113115370273,0.04294058545157313,0.022739796638372355
1772048140763770600,1.0807705078125,0.07207739421725273,0.04509089535325765,0.029523595576582008
1772048140773722600,1.09072265625,0.07028817271292209,0.04533336233962327,0.01835637679771171
1772048140783674600,1.100674560546875,0.06251169349253177,0.04339516081865877,0.0278820137984585
1772048140793627000,1.110626953125,0.0670072513461113,0.03346811596825719,0.03581799899607431
1772048140803577600,1.12057763671875,0.07135375611782073,0.03294138868041337,0.02866232312172651
1772048140813529900,1.13052978515625,0.08572539581954479,0.035591757058724756,0.026610212897509335
1772048140823481600,1.140481689453125,0.07509937238693237,0.04551945949625224,0.028974793454247992
1772048140833433600,1.15043359375,0.06553016453087329,0.039435317276977,0.02176498765631113
1772048140843385600,1.160385498046875,0.08379179740846157,0.04284742727540433,0.013462137341103516
1772048140853337900,1.170337890625,0.09352174878418446,0.047210189062170685,0.029509834195999427
1772048140863289600,1.18028955078125,0.0791547852575779,0.04053334164675325,0.015944330095255282
1772048140873240800,1.19024072265625,0.07480944952964783,0.03248615572620183,0.018797752473218132
1772048140883192800,1.20019287109375,0.0867751971334219,0.042963272207416595,0.013946840701682959
1772048140893144600,1.21014453125,0.07360591895878314,0.02908661294840276,0.018161316591559444
1772048140903096600,1.2200966796875,0.0758475604057312,0.03277841667104512,0.02418507724297233
1772048140913048800,1.230048828125,0.06357201620042324,0.03249214707557112,0.03386409073261311
1772048140923000600,1.24000048828125,0.07987959240078926,0.03168086722530424,0.02483782379697077
1772048140932952600,1.24995263671875,0.07898176677823067,0.03198470901008695,0.023777542188274672
1772048140942903800,1.25990380859375,0.08466390406787395,0.02717719913050532,0.02355073856192175
1772048140952855600,1.26985546875,0.08765782518684863,0.023098003525473178,0.020707825019885783
1772048140962807600,1.2798076171875,0.0747884067416191,0.029856976266391572,0.017034988575906025
1772048140972759800,1.289759765625,0.07852876231372356,0.03241663415394723,0.02222931494914228
1772048140982711600,1.299711669921875,0.07658698059618473,0.03843479846492409,0.0356921897924738
1772048140992663600,1.30966357421875,0.07719020718634129,0.03006258184108883,0.019640102173539342
1772048141002615800,1.31961572265625,0.07839256871342659,0.035580797273293135,0.02126470541739836
1772048141012567800,1.32956787109375,0.07675181576907635,0.03556008327882737,0.02569008639488602
1772048141022518500,1.3395185546875,0.07705635167360306,0.03628974926024675,0.021922940997267142
1772048141032470800,1.349470703125,0.0803524706095457,0.041553807268291706,0.031318783314106986
1772048141042422800,1.3594228515625,0.08260171084105968,0.04140961302462965,0.028214186628581956
1772048141052374500,1.36937451171875,0.08544891696572303,0.041724560725316405,0.019469227702217175
1772048141062326800,1.379326904296875,0.08111234906613826,0.03878372150044888,0.026691612137225457
1772048141072278800,1.38927880859375,0.08335808216631412,0.043095556817576285,0.02530187937845476
1772048141082230500,1.39923046875,0.12717618110477924,0.04505640856176615,0.023255180548294445
1772048141092181800,1.409181640625,0.2531687053829431,0.018307517845928666,0.03494241717136465
1772048141102133800,1.4191337890625,-0.06524433332681656,0.0360713207365945,0.011827981959254247
1772048141112082400,1.42908251953125,-0.10086042110919952,0.04677234563417732,0.032151854871073735
1772048141122034400,1.439034423828125,0.19032792606651783,0.045640638190507885,0.0215134263313259
1772048141131986400,1.448986328125,0.04995499425828456,0.04967424108814448,0.015365123701503034
1772048141141938400,1.4589384765625,-0.049559272938966746,0.049113721128553146,0.02339079875985626
1772048141151890400,1.468890380859375,0.12283084537684917,0.02433770138826221,0.03528172756175045
1772048141161841400,1.47884130859375,0.148426474404335,0.03678907708451152,0.03886261368924752
1772048141171793400,1.48879345703125,0.007629764226078987,0.04299797819461673,0.010220545620971824
1772048141181745400,1.498745361328125,0.0710720165669918,0.058093950115516775,0.00878873071107664
1772048141191697400,1.508697509765625,0.17626199131309986,0.04388710905406624,0.04565766239054501
1772048141201649400,1.5186494140625,0.08438800973594188,0.013850538437068462,0.02545778004293097
1772048141211601400,1.528601318359375,0.011369535276293754,0.031086518061347303,0.015668038471101316
1772048141221553400,1.538553466796875,0.10787994448244571,0.04128945724368095,0.03121763819430489
1772048141231504400,1.54850439453125,0.13421265561282633,0.02807053124103695,0.03064476564321667
1772048141241456400,1.558456298828125,0.03904547770917415,0.02650770237110555,0.025831629740446803
1772048141251408400,1.568408447265625,0.054604281368851655,0.03904602569844574,0.017594385157490615
1772048141261360400,1.5783603515625,0.1195440787911415,0.03149203012231737,0.034546689002180934
1772048141271312400,1.5883125,0.06583353139162063,0.02715538915749639,0.03687587858512997
1772048141281264400,1.598264404296875,0.05161971260011196,0.03997636535111815,0.019278410987986716
1772048141291216400,1.60821630859375,0.09665829324424266,0.025993578836508095,0.011904174159246031
1772048141301168400,1.61816845703125,0.08678513400554656,0.032192470009252426,0.023943279260175768
1772048141311119400,1.628119384765625,0.05012216751873493,0.034638511454500254,0.014403852337738499
1772048141321071400,1.6380712890625,0.07436053671836852,0.037283801798895,0.012290228034497704
1772048141331023400,1.6480234375,0.09694938514530659,0.04601374581921845,0.032115909058146645
1772048141340975600,1.6579755859375,0.05983867489099502,0.03645652066189795,0.0393965379028581
1772048141350927400,1.66792724609375,0.05833879172205925,0.02923113598562777,0.028656420820613857
1772048141360879400,1.67787939453125,0.10023147555589676,0.04362922530286014,0.01994486412364058
1772048141370831600,1.68783154296875,0.08571545894742011,0.04351856800261885,0.028611896692297887
1772048141380782300,1.6977822265625,0.07255085694789887,0.030984847785159943,0.02176290073050186
1772048141390734300,1.707734375,0.08855857341885566,0.041725912432186305,0.015461804992030374
1772048141400686600,1.7176865234375,0.07688099510669708,0.030085305129550394,0.022827607352565973
1772048141410638300,1.727638427734375,0.07208850013315678,0.03483808914721012,0.023103935509338043
1772048141420590300,1.73759033203125,0.0786708011329174,0.04118793309796601,0.01794756880960194
1772048141430542600,1.74754248046875,0.07476794847548007,0.04305588239431381,0.02364076178279938
1772048141440493300,1.757493408203125,0.07341419577896595,0.0387811642171815,0.02072423729856964
1772048141450445300,1.7674453125,0.073856094327569,0.042754561360180375,0.020658834779006426
1772048141460397600,1.7773974609375,0.07908055097758769,0.044336715985089536,0.01985659446843201
1772048141470349300,1.787349365234375,0.08984510609805584,0.03146174458190799,0.022813692991645075
1772048141480301300,1.79730126953125,0.08549626323878765,0.03399897144194692,0.023292813711520283
1772048141490253600,1.807253662109375,0.07336451141834259,0.04946571290399879,0.0334858479877701
1772048141500205600,1.81720556640625,0.0932628055870533,0.03596186901275068,0.01712753254743293
1772048141510157300,1.8271572265625,0.08353519229888916,0.033454087442904706,0.015542112819780594
1772048141520108500,1.837108642578125,0.07335691263377667,0.039532713236846026,0.021308903035440016
1772048141530060500,1.847060546875,0.0808323630809784,0.03972308470979333,0.017505588062608147
1772048141540012300,1.85701220703125,0.08696458222568035,0.038037360112555325,0.008540733599645318
1772048141549964500,1.866964599609375,0.07678104186356068,0.03933492564242333,0.027834064737195147
1772048141559916500,1.87691650390625,0.07303016489744187,0.036949272614903744,0.022302884792140685
1772048141569868300,1.886868408203125,0.08993570699095725,0.03869622588008642,0.020656610855879262
1772048141579820300,1.8968203125,0.07227554713785649,0.04567340794894844,0.020081226687296293
1772048141589771500,1.906771484375,0.06644026511311531,0.045947475649975235,0.027831397856073452
1772048141599723300,1.91672314453125,0.0828968943953514,0.031242877666838465,0.02285139922010712
1772048141609675500,1.926675537109375,0.0788537564843893,0.03776384040080011,0.015245301280694547
1772048141619627500,1.93662744140625,0.07017535998821259,0.03341046749688685,0.031079478682496116
1772048141629579300,1.946579345703125,0.07885434100627899,0.04193699789959937,0.022812571896926963
1772048141639531300,1.95653125,0.08035422417521476,0.03989230379685759,0.024429975931730585
1772048141649483500,1.9664833984375,0.07436638193726539,0.03127287094630301,0.021014283453440294
1772048141659434200,1.976434326171875,0.07660860790610313,0.031507446887157856,0.02503729874169221
1772048141669386500,1.986386474609375,0.07615735700726509,0.037407647374272344,0.025966448800987564
1772048141679338500,1.99633837890625,0.09351005834639071,0.0366721727065742,0.021854483437514862
1772048141689290500,2.00629052734375,0.09156067784428595,0.031411256503686306,0.019315023521194234
1772048141699242200,2.0162421875,0.0795855778902769,0.03587736906707287,0.02333523721429519
1772048141709194500,2.026194580078125,0.07075579022467136,0.0312775471214205,0.014637655385391553
1772048141719146500,2.036146484375,0.08227496310472487,0.0351032794220373,0.025531005109346003
1772048141729097500,2.046097412109375,0.08556114516854285,0.046060397972539066,0.02946998852608958
1772048141739049500,2.056049560546875,0.08376549392342567,0.03752561119813472,0.018915507376170718
1772048141749001500,2.06600146484375,0.07523439694344997,0.03892375102564692,0.024332949864619875
1772048141758953200,2.075953125,0.07224281391203403,0.04353866094257682,0.021567990079754962
1772048141768905500,2.085905517578125,0.0785229170948267,0.0412877767432481,0.02323126309987856
1772048141778857500,2.095857421875,0.08136077086925506,0.03440112250205129,0.026065219300612806
1772048141788809500,2.1058095703125,0.08106032661795616,0.03638740094844252,0.02664862009558128
1772048141798760400,2.115760498046875,0.06864274359345436,0.03766644444093108,0.018693828591151394
1772048141808712400,2.12571240234375,0.08076923471689224,0.04287197719477117,0.020224103473417927
1772048141818664200,2.135664306640625,0.0945347252190113,0.036028504508174956,0.02594354284943547
1772048141828616400,2.145616455078125,0.07837795566618443,0.04354629625976086,0.02715352142739575
1772048141838568400,2.155568359375,0.06326397316455841,0.03876143660340458,0.025463408349407836
1772048141848520400,2.1655205078125,0.07388765850961208,0.03638791240509599,0.01965547783918446
1772048141858472400,2.175472412109375,0.08660627030730247,0.03282042918186635,0.020707562441693153
1772048141868423400,2.18542333984375,0.07538286550343036,0.02745700245257467,0.01927828769040061
1772048141878375400,2.19537548828125,0.06969663656055927,0.033592326869815586,0.016415973044862038
1772048141888327400,2.205327392578125,0.07732347817718982,0.042857839071564374,0.0283508551529143
1772048141898279400,2.215279541015625,0.08644318870007991,0.04145389055777341,0.024544795667147262
1772048141908231400,2.2252314453125,0.07686521301567555,0.03565802722796797,0.02358840597447706
1772048141918183400,2.235183349609375,0.07372457690238952,0.03530709489844739,0.024850041674438397
1772048141928135400,2.245135498046875,0.07297638888359069,0.03305624723173678,0.01774233426930732
1772048141938086400,2.25508642578125,0.08314940785169601,0.045555042266286906,0.01683754004984512
1772048141948038400,2.265038330078125,0.07700842087864876,0.03735003543552011,0.028753376105776985
1772048141957990400,2.274990478515625,0.0759609576523304,0.025978892724029718,0.017460996577277545
1772048141967942400,2.2849423828125,0.08583294784724711,0.03552442744355649,0.015524698177387471
1772048141977894400,2.294894287109375,0.07490706468522548,0.03739361884891987,0.012900487153639551
1772048141987846400,2.304846435546875,0.0722135878175497,0.037843408443033695,0.018459524361643706
1772048141997798400,2.31479833984375,0.08178805637061595,0.03776979521755129,0.02377850116949994
1772048142007750400,2.32475048828125,0.07370937933325768,0.0377212433680892,0.030754753939888906
1772048142017701400,2.334701416015625,0.07580489030778408,0.029621596607938408,0.01872852772848564
1772048142027653400,2.3446533203125,0.08523381291031837,0.03659830375276506,0.0208319719893625
1772048142037605600,2.354605712890625,0.08912672869563103,0.03473499409891665,0.019754899076069705
1772048142047557400,2.364557373046875,0.08059855432510375,0.04577358038779348,0.021960265916527714
1772048142057509400,2.37450927734375,0.07760404868423938,0.04493318404089659,0.026371216509863734
1772048142067461400,2.38446142578125,0.07596212669610977,0.04481405117325484,0.023835035396018063
1772048142077413400,2.394413330078125,0.07701309705376624,0.03184252406042069,0.01854540113036637
1772048142087364400,2.4043642578125,0.07896013946831226,0.03462725940812379,0.01857854420649819
1772048142097316600,2.414316650390625,0.07850888856947422,0.035749577968940134,0.018182892527483636
1772048142107271200,2.424271240234375,0.07521686128675938,0.036046149762719866,0.019471442492189815
1772048142117223200,2.43422314453125,0.08255202648043632,0.03625898879580199,0.025222427783941383
1772048142127175400,2.444175537109375,0.08419920916557312,0.043406084071472284,0.024695947091269772
1772048142137127400,2.45412744140625,0.07282265962660313,0.035601255539432164,0.02146176235945895
1772048142147079200,2.4640791015625,0.0696779318600893,0.032527547182515264,0.02384332601703936
1772048142157030400,2.474030517578125,0.08299100241959094,0.033265286872535944,0.02260189285489032
1772048142166982400,2.483982421875,0.0693728114336729,0.03150591251719743,0.027429751402756664
1772048142176934100,2.49393408203125,0.07925240041315555,0.024519926087372003,0.023597511729539836
1772048142186886400,2.503886474609375,0.07939969992935657,0.03236362532507628,0.01924444478630321
1772048142196838400,2.51383837890625,0.06339139893651008,0.04321363023929298,0.022881173303863033
1772048142206790100,2.5237900390625,0.07446691970229148,0.04284293376337737,0.018288818853680278
1772048142216742400,2.533742431640625,0.08090075214207172,0.03941781815290451,0.014633399335382272
1772048142226693400,2.543693359375,0.0832891085833311,0.03958645271807909,0.01717198817708995
1772048142236645000,2.55364501953125,0.07400690097510815,0.035390937256999315,0.01785449625675683
1772048142246597400,2.563597412109375,0.0786404059946537,0.03271521524172276,0.01761427945133764
1772048142256549400,2.57354931640625,0.07863806790709495,0.032025515944510696,0.019167121216794474
1772048142266501000,2.583501220703125,0.07355214294493198,0.03212941471040249,0.01970522156531224
1772048142276453400,2.593453369140625,0.0708539899021387,0.03750526252985,0.01584784402590594
1772048142286405400,2.6034052734375,0.08042728941142559,0.03282115983422845,0.02395679632887477
1772048142296356000,2.613356201171875,0.0681570059031248,0.03702010936141014,0.03240021730868611
1772048142306308400,2.623308349609375,0.07668693383932113,0.032058322235569356,0.03162625781110255
1772048142316260400,2.63326025390625,0.09359481402039527,0.03328600086700171,0.017020155191310914
1772048142326212400,2.64321240234375,0.0650111090928316,0.044898916445113714,0.009021774565259693
1772048142336164400,2.653164306640625,0.09314180955588817,0.03835464590080082,0.016558721966820303
1772048142346116400,2.663116455078125,0.08146890741884708,0.043785146516934034,0.025081500926311125
1772048142356068400,2.673068359375,0.07263970427513122,0.03885017433278262,0.017487781836214706
1772048142366020000,2.68302001953125,0.07563771704733371,0.037357963013648986,0.022800828943494705
1772048142375971300,2.692971435546875,0.06964695219993591,0.03585614361595362,0.026315207439730873
1772048142385923300,2.70292333984375,0.08536240772604942,0.03589815612677485,0.022934389911999458
1772048142395875300,2.712875244140625,0.09164777160584926,0.030208456585183736,0.011940457898890599
1772048142405827300,2.722827392578125,0.07114566632509231,0.026062040962837634,0.02414108740419615
1772048142415779300,2.732779296875,0.0793763190537691,0.032172559732384975,0.024330732791358604
1772048142425731000,2.74273095703125,0.07847790890932083,0.036995888235606254,0.026203218982217367
1772048142435683300,2.752683349609375,0.06591010375916957,0.030803171075321732,0.024181136286794205
1772048142445634300,2.76263427734375,0.07534077992737293,0.035032917599566275,0.018676940246787854
1772048142455586300,2.77258642578125,0.07938333331644534,0.03392075510658324,0.021749986450001597
1772048142465538300,2.782538330078125,0.07922901953756809,0.03494637182727456,0.012884737028658855
1772048142475490300,2.792490234375,0.0736953508079052,0.03861501387003809,0.02680369420957286
1772048142485442300,2.8024423828125,0.08521686177551746,0.023964447629079223,0.019199276770593132
1772048142495394300,2.812394287109375,0.08147475263774394,0.039103674169816076,0.016796196542592953
1772048142505346300,2.82234619140625,0.07683598692119122,0.032674116046354174,0.02368479500405956
1772048142515297500,2.832297607421875,0.07100479654967784,0.04930007401350885,0.014529948094062273
1772048142525249300,2.842249267578125,0.0861170254856348,0.0448455057574436,0.028320281918137333
1772048142535201300,2.852201171875,0.06741933927834033,0.037595973020605744,0.02633003968268167
1772048142545153300,2.8621533203125,0.0820820708811283,0.034645050793141126,0.026370586322201413
1772048142555105300,2.872105224609375,0.08971651128232479,0.035903343758545814,0.02487569213892566
1772048142565057300,2.882057373046875,0.06847323224544524,0.03156754304394126,0.017852157027553765
1772048142575009300,2.89200927734375,0.08015139507949352,0.03465674123093486,0.013490398746140999
1772048142584960300,2.901960205078125,0.09077741851210594,0.032658589683659374,0.0234979900279548
1772048142594912300,2.911912353515625,0.08748305314183234,0.035569143368117506,0.017613857042940797
1772048142604864300,2.9218642578125,0.07865501904189587,0.03495630869939923,0.012732779603649396
1772048142614816300,2.931816162109375,0.0783610045313835,0.04137187483012676,0.020446998109633567
1772048142624768300,2.941768310546875,0.08210311366915703,0.03341507060676813,0.019856108127953482
1772048142634720300,2.95172021484375,0.07357727738618851,0.03674227880071848,0.024959070989885365
1772048142644672500,2.961672607421875,0.07657412111461162,0.041266478226892646,0.016468759253091412
1772048142654623200,2.971623291015625,0.08330313710868358,0.04498681392427534,0.023366952093387953
1772048142664575200,2.9815751953125,0.06879004310965538,0.02564162359368056,0.023732607068005018
1772048142674527500,2.991527587890625,0.08869125988781451,0.03882441883701831,0.023460471029160542
1772048142684479200,3.001479248046875,0.08255611813366413,0.04032744381111115,0.027636135578877292
1772048142694431200,3.01143115234375,0.0764268215984106,0.03354625923838466,0.020565297576924785
1772048142704383500,3.021383544921875,0.07313830144703387,0.039741314486227926,0.02354735701145837
1772048142714335200,3.031335205078125,0.08226911788582801,0.04143971590194851,0.02495693611501483
1772048142724286200,3.0412861328125,0.08137596843838692,0.034104258447326716,0.026936905834916976
1772048142734238500,3.051238525390625,0.07838789253830909,0.038913594957813616,0.029081713010999374
1772048142744190200,3.061190185546875,0.0695604429602623,0.03947605114616454,0.024410670726350506
1772048142754142200,3.07114208984375,0.06806582048833369,0.029984146310016512,0.02001620091035729
1772048142764094500,3.081094482421875,0.08258475970625877,0.030469372543692586,0.022460979696991852
1772048142774046200,3.091046142578125,0.08183364907801151,0.032955526803620155,0.02545116535576526
1772048142783998200,3.100998291015625,0.08033435043096541,0.027045352911762893,0.021571323681157082
1772048142793950200,3.1109501953125,0.08062894946336746,0.040510983684472736,0.027120701436605305
1772048142803901200,3.120901123046875,0.0768891784131527,0.03718892658967524,0.02589436081231106
1772048142813853200,3.130853271484375,0.08033201234340667,0.0299671951752156,0.02235574520725058
1772048142823805400,3.140805419921875,0.08467208737432956,0.03368533891551197,0.021265801395941523
1772048142833757400,3.15075732421875,0.08302139755785465,0.03952266676686704,0.021710647670167962
1772048142843709200,3.160709228515625,0.0761392368286848,0.032147425291128455,0.02175866294680163
1772048142853661200,3.1706611328125,0.07778700403571129,0.02896441134084016,0.020998697725241072
1772048142863613400,3.180613525390625,0.07838672349452971,0.038805750669166444,0.02140740410700673
1772048142873564200,3.190564208984375,0.08631985458135605,0.03842179285287857,0.02755459249197738
1772048142883516400,3.200516357421875,0.07629530417323112,0.03525536471121013,0.023900040623359382
1772048142893468400,3.210468505859375,0.07240238838791847,0.0336767902828753,0.015221263959625503
1772048142903420200,3.220420166015625,0.07673720272183418,0.030666210290044543,0.021450021689315327
1772048142913372200,3.2303720703125,0.08691782047450541,0.039340222872048615,0.023668930714647284
1772048142923324400,3.240324462890625,0.08212766358852386,0.03744118431769311,0.025423704243393148
1772048142933276200,3.250276123046875,0.07719137623012065,0.026163163249753416,0.027031372335471676
1772048142943227400,3.260227294921875,0.08363163841068744,0.027185382436960934,0.02012878302291501
1772048142953179400,3.270179443359375,0.07674363246262073,0.0333061668721959,0.019001301946502642
1772048142963131100,3.280131103515625,0.07659399485886097,0.03481660796776414,0.0190814533689816
1772048142973083100,3.290083251953125,0.07764554973840714,0.04306987438704818,0.01861279125268338
1772048142983035400,3.300035400390625,0.06926642844974994,0.037357086230814456,0.028249052445986307
1772048142992987400,3.3099873046875,0.07928747172653675,0.03136204706709832,0.017196131671080365
1772048143002939100,3.319939208984375,0.07240355743169784,0.03303370660636574,0.016531496033177245
1772048143012890400,3.329890380859375,0.07181026771366596,0.037067820960655806,0.02142413832938764
1772048143022842400,3.33984228515625,0.08378536766767501,0.034700178513862194,0.015036477410671068
1772048143032794000,3.349794189453125,0.07630407200157642,0.03243216051664203,0.026417928028688763
1772048143042746400,3.359746337890625,0.08199556164145469,0.03227174579054117,0.02238300082364585
1772048143052698400,3.369698486328125,0.07196925766766071,0.032595972776226695,0.02327676447572885
1772048143062650000,3.379650146484375,0.07585983536541462,0.02765007733926177,0.022759980909875594
1772048143072602400,3.389602294921875,0.07496200974285602,0.029158545673452316,0.02004086727744434
1772048143082553300,3.39955322265625,0.08079436915814876,0.03404412575792521,0.023044718418677803
1772048143092505300,3.40950537109375,0.08363573006391525,0.032460181034728884,0.023469487735966684
1772048143102457300,3.419457275390625,0.0825876823157072,0.041140294563956556,0.02760703734855633
1772048143112406000,3.429406005859375,0.07944763072431087,0.03629391397871077,0.02856999606261961
1772048143122358000,3.43935791015625,0.07810089229047298,0.029410365010052918,0.02686605082210153
1772048143132310300,3.449310302734375,0.07974807497560978,0.03610485768001526,0.03137378317066468
1772048143142262000,3.459261962890625,0.07855097414553165,0.0419378381498158,0.02088643070651451
1772048143152214000,3.469214111328125,0.07541209159791469,0.039888869730755686,0.020966453123185784
1772048143162165200,3.479165283203125,0.08124269744753837,0.039012123428843914,0.026476186138123737
1772048143172117000,3.489116943359375,0.07286240711510181,0.03333075332418084,0.031093591689527963
1772048143182069000,3.499069091796875,0.072261518612504,0.030569544982537625,0.029561525567329952
1772048143192021200,3.509021240234375,0.08407879765629768,0.037876689658127724,0.015614716831687837
1772048143201973200,3.51897314453125,0.07928980981409549,0.020985103024728596,0.022896601485146675
1772048143211925000,3.528925048828125,0.06492693794071674,0.030484204786643383,0.020604268747288733
1772048143221877000,3.538876953125,0.0938069954663515,0.028842392396368086,0.02114523462303914
1772048143231828000,3.548827880859375,0.08018763543665408,0.0437261828713119,0.02305190621129004
1772048143241780000,3.558780029296875,0.08213643141686916,0.03314556948300451,0.02198105982609559
1772048143251732200,3.568732177734375,0.0730108756750822,0.02349485735595226,0.020288821006391664
1772048143261684200,3.578684326171875,0.07854688249230385,0.035194062978029246,0.022884301409288307
1772048143271636000,3.588635986328125,0.07794716303348541,0.036115379074029626,0.018321174195234196
1772048143281588000,3.598587890625,0.08273731991946696,0.03576799040846526,0.014344196855660993
1772048143291540200,3.608540283203125,0.07735095070600509,0.030804997706227,0.01320651062070974
1772048143301491000,3.618490966796875,0.0755552994608879,0.039188685572147365,0.0217565212220652
1772048143311443200,3.628443115234375,0.07794540946781635,0.031684703150205315,0.016104428585880667
1772048143321395200,3.638395263671875,0.07974164523482322,0.03720094582103193,0.018301987720862962
1772048143331347000,3.648346923828125,0.0748059423983097,0.035490013717301185,0.027290742507576942
1772048143341299000,3.658298828125,0.06418108800947665,0.026224245787225663,0.03534587427256629
1772048143351251200,3.668251220703125,0.08483107732832432,0.023387597589194772,0.01811046090386808
1772048143361203200,3.678203125,0.09051672174930572,0.03851860429085791,0.01578833467430086
1772048143371154200,3.688154296875,0.07525310164391993,0.04078362661339342,0.02471870234577218
1772048143381106200,3.698106201171875,0.08513210610151291,0.032462811383232475,0.024695981340599246
1772048143391058000,3.708057861328125,0.0833370393782854,0.03752710903547704,0.016929835142911177
1772048143401010000,3.718010009765625,0.06568623187541961,0.03553655627276748,0.021882019898411816
1772048143410962200,3.727962158203125,0.06808920136392116,0.029583894946053624,0.02901812113932101
1772048143420914200,3.7379140625,0.08081482742428779,0.02773892466649413,0.02252408979476895
1772048143430866000,3.747865966796875,0.08904606467485428,0.03129734780043363,0.010328905932849738
1772048143440817200,3.757817138671875,0.07438917829096317,0.03600088584888726,0.014146081609319662
1772048143450769200,3.76776904296875,0.08276946862339973,0.03494432600066066,0.030252158729592336
1772048143460721000,3.777720947265625,0.07424129425287246,0.027562033729627726,0.021830595671851187
1772048143470673200,3.787673095703125,0.08277180671095848,0.03502097143344581,0.020610677938477602
1772048143480625200,3.797625244140625,0.0788800599694252,0.02322298161201179,0.027843446770182342
1772048143490577000,3.807576904296875,0.07438859376907349,0.03138170161563903,0.02412480070638703
1772048143500529200,3.817529052734375,0.08291501457393169,0.0420877680145204,0.01811861452757148
1772048143510480100,3.827480224609375,0.08276829957962036,0.04035846000388264,0.008467983457265654
1772048143520431900,3.837431884765625,0.07454232302606105,0.03244491040036082,0.01993330155001022
1772048143530384100,3.847384033203125,0.08352291733920574,0.031035481993854044,0.012819697551988064
1772048143540336000,3.857336181640625,0.06736322517693043,0.04087210861444473,0.013874477576726349
1772048143550288100,3.8672880859375,0.07679799299836158,0.03675510174967348,0.01391963075106032
1772048143560240000,3.877240234375,0.08502689216136931,0.02511310620754957,0.023085609834780915
1772048143570192100,3.887192138671875,0.07694236990511417,0.04049987776856869,0.0231984568088199
1772048143580142800,3.897142822265625,0.07050912198722362,0.034786870416626335,0.019588757862080818
1772048143590095000,3.90709521484375,0.08143266706168652,0.04031407287288457,0.024341991687600966
1772048143600047000,3.917047119140625,0.07529635626375675,0.03766640790831297,0.022510246215795632
1772048143609999000,3.9269990234375,0.07739128271639346,0.024794541777670383,0.018897236500540746
1772048143619951000,3.936951171875,0.07185469137728213,0.029578707314282655,0.025035291730985045
1772048143629903000,3.946903076171875,0.08068447904288768,0.037772425566054875,0.03269931441969238
1772048143639855000,3.956855224609375,0.08607493990957736,0.028677191897295413,0.03357617488603573
1772048143649807000,3.96680712890625,0.06482464661002159,0.026785605997033415,0.02446432800919283
1772048143659758000,3.976758056640625,0.07230418871045112,0.03344422363601625,0.01936778118831571
1772048143669710000,3.9867099609375,0.06677227354645729,0.03346314753219485,0.02003896986459149
1772048143679662000,3.996662109375,0.07440729846954346,0.03185731977075338,0.0247070735567715
1772048143689614000,4.006614013671875,0.06752806034982205,0.04204444032944739,0.028323099496308714
1772048143699566000,4.016566162109375,0.08997954613268375,0.025554712495207785,0.03071832178648328
1772048143709518000,4.02651806640625,0.0881821413218975,0.029346871319785712,0.02095047695263056
1772048143719470000,4.036469970703125,0.07710837412178516,0.03147175451926887,0.019113224188645833
1772048143729421000,4.046421142578125,0.07217150224149227,0.03053980743139982,0.02449350843790453
1772048143739373000,4.056373046875,0.08205342930853367,0.036038770173862575,0.0281631437112228
1772048143749325000,4.066324951171875,0.0832499456167221,0.037848157683387396,0.024080998097278643
1772048143759277000,4.076277099609375,0.07188391747176646,0.026287264553457496,0.021885855823312886
1772048143769229000,4.08622900390625,0.08086684987246989,0.02823255340233445,0.023563499862083698
1772048143779181000,4.09618115234375,0.08356617195904255,0.03284472337290644,0.025997923934774007
1772048143789133000,4.106133056640625,0.08461129709780216,0.0354543213494122,0.01761847156926524
1772048143799084300,4.116084228515625,0.08236322591006755,0.028977672681212423,0.01618800151637406
1772048143809036000,4.1260361328125,0.08131284007430076,0.03624664077088237,0.024607955997274257
1772048143818988000,4.135988037109375,0.07622808415591717,0.028980924084223807,0.022740435959189197
1772048143828940000,4.14593994140625,0.08012099994122981,0.033854521469958127,0.01889405702112126
1772048143838892000,4.15589208984375,0.09418693469464778,0.03818319832403213,0.022266562236589377
1772048143848844000,4.165843994140625,0.07712941690981388,0.035766492571122944,0.021787546547991223
1772048143858796000,4.175796142578125,0.07204466099143028,0.03372534213233739,0.02903534855204634
1772048143868748300,4.185748291015625,0.07354162155091762,0.04387169228922575,0.027057591338828204
1772048143878699000,4.195698974609375,0.07384265032410621,0.03394724125470966,0.03210770063551608
1772048143888651000,4.205651123046875,0.07115326510965823,0.023056502471305428,0.02381917338989442
1772048143898603300,4.215603271484375,0.06726385645568371,0.034542832527682185,0.012755231180763802
1772048143908555000,4.225554931640625,0.070109309014678,0.03565579873826354,0.02099093226060504
1772048143918507000,4.235507080078125,0.07549801631569862,0.036805041838623584,0.020771553888882043
1772048143928459300,4.245459228515625,0.0766968707114458,0.03509743420314044,0.01600260304606636
1772048143938411000,4.255410888671875,0.0799953277349472,0.03205496123470366,0.03064529993275646
1772048143948362200,4.2653623046875,0.07671089923679829,0.033313436863198875,0.026647978491475804
1772048143958314200,4.275314208984375,0.07222177112400531,0.024487338992021976,0.021167971611232496
1772048143968266000,4.285265869140625,0.07551905910372733,0.024037914724089202,0.01875139943070826
1772048143978218000,4.295218017578125,0.0798603031784296,0.025173896484076974,0.024181323516461996
1772048143988170200,4.305170166015625,0.08659341082572937,0.032382037764601405,0.02271776746965479
1772048143998122000,4.3151220703125,0.07820961336195469,0.02770915058273822,0.021752372486621607
1772048144008074000,4.325073974609375,0.08135434112846851,0.030781178439222276,0.019257432132039683
1772048144018025200,4.335025146484375,0.07087737077772617,0.03698368634115904,0.030456387481244743
1772048144027977000,4.34497705078125,0.0816553699016571,0.0350735418708995,0.02748565315832384
1772048144037929000,4.354928955078125,0.0704360567510128,0.026435258189402518,0.023722985289711503
1772048144047881200,4.364881103515625,0.07208440847992896,0.02770005396082997,0.03143489539088914
1772048144057833200,4.374833251953125,0.08046469881236552,0.0284421775650233,0.024350745816214475
1772048144067785000,4.384784912109375,0.07148819615244865,0.025242614338733253,0.018281164128542877
1772048144077737200,4.3947373046875,0.0801695152580738,0.03130472738929093,0.028116178747359662
1772048144087688000,4.40468798828125,0.07582944022715091,0.02608184164185077,0.022474284419848115
1772048144097640000,4.414639892578125,0.07433832488656043,0.030112302734330295,0.02641414005284896
1772048144107591400,4.42459130859375,0.08541209208667278,0.032345724342204625,0.025568398527265526
1772048144117543400,4.43454345703125,0.08152268343269825,0.03798358409870416,0.02804156315816799
1772048144127495400,4.444495361328125,0.06910802301764488,0.04261975599937141,0.01901167721004458
1772048144137447400,4.454447509765625,0.06986030268967151,0.0294683057423681,0.025989389001869128
1772048144147399400,4.4643994140625,0.06507306841313838,0.020746471963264047,0.028080705575179308
1772048144157351400,4.474351318359375,0.07899462625980377,0.02238952646255493,0.023800690168421713
1772048144167302400,4.484302490234375,0.08408522739708423,0.021239479644596576,0.018308618391049095
1772048144177254400,4.49425439453125,0.07031681428551674,0.029382307959347962,0.027265245023427996
1772048144187206400,4.504206298828125,0.08124035935997963,0.029083471143245696,0.027823636958014684
1772048144197158700,4.51415869140625,0.0840823047876358,0.03615187515951693,0.02218192986017093
1772048144207110400,4.5241103515625,0.08453297116458415,0.028918599437735972,0.03090449429163709
1772048144217062400,4.5340625,0.07660042459964751,0.018784999164566395,0.023557250501099043
1772048144227014700,4.5440146484375,0.08438041095137595,0.026457908412627875,0.01954613799648359
1772048144236965400,4.55396533203125,0.08019698778688907,0.02610872964877635,0.024623637623596005
1772048144246917400,4.56391748046875,0.06957739409506321,0.01998783561568707,0.021394690755906047
1772048144256869600,4.57386962890625,0.08214987542033195,0.026929106120951472,0.023638971684512216
1772048144266821400,4.5838212890625,0.0902303060233593,0.033960977519117294,0.03277321533954237
1772048144276773400,4.5937734375,0.07885901718139648,0.03465875052493066,0.029190776575775814
1772048144286725600,4.6037255859375,0.07437164263427257,0.03251625860352069,0.028507664566265883
1772048144296677400,4.613677490234375,0.07152735911905765,0.022375169143639503,0.026620891838439274
1772048144306628400,4.62362841796875,0.0835024590730667,0.028544140102155505,0.008367662604659562
1772048144316580600,4.63358056640625,0.06883914294838905,0.023563282949663696,0.014945679013303015
1772048144326532400,4.643532470703125,0.08201192825436592,0.028068120088241992,0.022693619409087113
1772048144336484400,4.653484375,0.1007218894213438,0.030284188702516257,0.027629587107081896
1772048144346436600,4.6634365234375,0.07169628594517707,0.018346388551592825,0.01860409991450724
1772048144356388600,4.673388671875,0.07723579989373683,0.027677330672368404,0.024595678754302207
1772048144366340400,4.68334033203125,0.07409750186800956,0.026807342904806134,0.03245237447089748
1772048144376291600,4.69329150390625,0.07978197724521159,0.028950784674286842,0.02747694469548296
1772048144386243300,4.703243408203125,0.07514028891921043,0.028147249739058314,0.019443595504038964
1772048144396195300,4.7131953125,0.06137362937331199,0.02305657553654164,0.01751744403882767
1772048144406147600,4.723147705078125,0.08561784379184245,0.02745612566974014,0.020740498880203812
1772048144416099600,4.733099609375,0.0887619870364666,0.023815248416736722,0.0205060919027077
1772048144426051300,4.74305126953125,0.08248129933178425,0.025934505593031645,0.034300091546680775
1772048144436003300,4.75300341796875,0.07679507038891314,0.024135931738466024,0.021065214489656498
1772048144445955600,4.76295556640625,0.07828969286084175,0.026445085463672875,0.023092046425433364
1772048144455906300,4.77290625,0.07843582333326339,0.02310362954866141,0.020788505023682954
1772048144465858600,4.782858642578125,0.08756196359694003,0.03259436534103006,0.018933890132943634
1772048144475810600,4.792810546875,0.08995207360386848,0.03451674823835492,0.02790140805209521
1772048144485762300,4.80276220703125,0.08187631917595863,0.024791290374659,0.022808633224037474
1772048144495714300,4.81271435546875,0.07335399002432823,0.024268472076952458,0.0242931886763894
1772048144505666600,4.82266650390625,0.08053601048290729,0.026378449968248605,0.02438277350584976
1772048144515618600,4.83261865234375,0.08397825989127158,0.030103242645040152,0.02271050661180634
1772048144525570300,4.8425703125,0.07574936072826385,0.03275678936112672,0.026932789065514225
1772048144535521500,4.852521484375,0.06991349418163299,0.027086634770222006,0.026052951190795284
1772048144545473500,4.8624736328125,0.0775467655390501,0.03614475129898637,0.02352973458979977
1772048144555425300,4.87242529296875,0.07949146986603736,0.028531938207708298,0.020309151408367324
1772048144565377500,4.88237744140625,0.07500117270946502,0.02872808183431625,0.020768843625276347
1772048144575329500,4.89232958984375,0.07514905674755573,0.024590397507697342,0.019620997897558844
1772048144585281300,4.90228125,0.07410334708690643,0.025136377485282718,0.022911668906826523
1772048144595233500,4.912233642578125,0.07380524092316627,0.03317439371868968,0.025995336968754418
1772048144605184500,4.9221845703125,0.07290975338816642,0.02756678296998143,0.02009801799189299
1772048144615136500,4.932136474609375,0.07964110746979713,0.027343824401684105,0.02638990522731328
1772048144625088500,4.942088623046875,0.08831775040030479,0.03415189698133617,0.023241905508190393
1772048144635040500,4.95204052734375,0.06497720682322979,0.031961839591152966,0.017927103693597016
1772048144644992300,4.9619921875,0.08278525071442126,0.02369717499502003,0.018021031338034663
1772048144654944500,4.971944580078125,0.07904021896719932,0.026675131359882653,0.02546912113756407
1772048144664896500,4.981896484375,0.07215747371613979,0.027095293000712988,0.027844921774638348
1772048144674847500,4.991847412109375,0.08532967450022697,0.02787018636334687,0.021120038532989563
1772048144684799500,5.001799560546875,0.0853279209345579,0.029870639465563,0.01987390407954808
1772048144694751500,5.01175146484375,0.06721943279206752,0.030238669060356913,0.025221034977876113
1772048144704703500,5.021703369140625,0.0748491970181465,0.027443631514348088,0.031591044933826196
1772048144714655500,5.031655517578125,0.08472469434440136,0.021637721714563667,0.02382794121823972
1772048144724607500,5.041607421875,0.06811550484895706,0.03553520456589758,0.018441368792089633
1772048144734559500,5.0515595703125,0.07096388001739978,0.024445801405236122,0.01932508369090501
1772048144744511500,5.061511474609375,0.08892039246857165,0.027440453176572916,0.023609021787531673
1772048144754462500,5.07146240234375,0.08907178363800049,0.030526582623645663,0.023141399709205143
1772048144764414500,5.08141455078125,0.06961889514923095,0.023336561521701514,0.022529485205805392
1772048144774366500,5.091366455078125,0.07216039632558822,0.030454722963832316,0.021818300162570085
1772048144784318500,5.101318359375,0.08532675189077854,0.03095247988551855,0.025253322962415403
1772048144794270500,5.1112705078125,0.09131284056305884,0.020161219421215355,0.025691721229546237
1772048144804222500,5.121222412109375,0.07994447433054447,0.019877214848063884,0.031920749528938905
1772048144814174500,5.131174560546875,0.07335866619944573,0.02786773867793381,0.02126935875962954
1772048144824126500,5.14112646484375,0.0851800368964672,0.02997212707865983,0.021373652534454595
1772048144834077400,5.151077392578125,0.07261047818064689,0.02397051204368472,0.0220294107461581
1772048144844029400,5.161029541015625,0.07799743191599845,0.0296573255084455,0.023563109419727696
1772048144853981400,5.1709814453125,0.07366144853830336,0.027015542295388877,0.018915583866339875
1772048144863933400,5.180933349609375,0.0732113666832447,0.028090295387431977,0.016984998254606035
1772048144873885400,5.190885498046875,0.07635609444975852,0.02877561077047139,0.024654567051399498
1772048144883837400,5.20083740234375,0.08757540760040283,0.030229682036302982,0.02418196055399021
1772048144893789400,5.21078955078125,0.08533435067534446,0.027118820006772876,0.013537872883368982
1772048144903740400,5.220740478515625,0.0905699132412672,0.026876389553025362,0.026345333149936048
1772048144913692400,5.2306923828125,0.06917115138173104,0.02315130461528897,0.028595703609322662
1772048144923644400,5.24064453125,0.08189385483264923,0.017960457973927257,0.02262725105843274
1772048144933596400,5.250596435546875,0.08488543786406516,0.018599742258153855,0.024086044165154454
1772048144943548400,5.26054833984375,0.08503741355538368,0.02541822663396597,0.024360260279942304
1772048144953500400,5.27050048828125,0.07860475015938281,0.020723821740038693,0.024507178486941845
1772048144963452700,5.28045263671875,0.07621054849922657,0.028643399225547907,0.021532128748507236
1772048144973404400,5.290404296875,0.09057458941638469,0.024784970231726763,0.025248856849852015
1772048144983355600,5.300355712890625,0.08339782965481281,0.01952599025759846,0.02953331781957531
1772048144993307400,5.310307373046875,0.07427110486924648,0.02622084825374186,0.021195129046216607
1772048145003259400,5.32025927734375,0.07053016477525234,0.023521343504078685,0.016507612834090832
1772048145013211400,5.33021142578125,0.07771393879950046,0.03022595570925623,0.01567346927311155
1772048145023163600,5.34016357421875,0.08010989402532577,0.02822890014052391,0.011613839168363484
1772048145033115400,5.350115478515625,0.0724789607554674,0.024460450985096395,0.028915455349290277
1772048145043067400,5.3600673828125,0.08130933294296264,0.023507095783017573,0.02500288501543691
1772048145053019600,5.37001953125,0.07771510784327984,0.02629018716290593,0.024485537477291652
1772048145062970400,5.379970458984375,0.07965805860459804,0.02891184090338647,0.021472397917904888
1772048145072922400,5.38992236328125,0.07367372349798679,0.028137532062642273,0.022731204623251688
1772048145082874600,5.39987451171875,0.07771335427761078,0.026054624841362235,0.024478584863408467
1772048145092826400,5.409826416015625,0.07935995244085789,0.026925124065577982,0.023133599995239635
1772048145102778400,5.4197783203125,0.07561901234686375,0.033507461597956714,0.020495545392518397
1772048145112730600,5.429730712890625,0.08459668405055999,0.03352598363533616,0.01798472933208104
1772048145122682400,5.439682373046875,0.08892857577502727,0.03572276302725076,0.020302292409318034
1772048145132634400,5.44963427734375,0.06633446665108203,0.02714216434974223,0.024121373490151015
1772048145142585600,5.459585693359375,0.07785831570625305,0.035925007601082325,0.0196110701585887
1772048145152537300,5.469537353515625,0.08100128990709782,0.0300671118857339,0.022357172262645324
1772048145162489300,5.4794892578125,0.0703793581277132,0.027899777784012255,0.022406790407898367
1772048145172441600,5.489441650390625,0.08579203131496906,0.028946437292732295,0.014165733874571741
1772048145182393300,5.499393310546875,0.08638356746733188,0.0234876969628036,0.01950249978415668
1772048145192345300,5.509345458984375,0.08339139991402626,0.029305699059180915,0.023378706463263368
1772048145202297300,5.51929736328125,0.08204992217719555,0.02628269797619432,0.029937653986900112
1772048145212248300,5.529248291015625,0.08773848920762538,0.01739306988213211,0.030009714576113036
1772048145222200300,5.539200439453125,0.07980711168646812,0.029675263023935257,0.03131138545894064
1772048145232152600,5.549152587890625,0.07920739222764968,0.0285245220862329,0.020086807044711896
1772048145242104600,5.5591044921875,0.0703746819525957,0.024753296451829374,0.028726469832542352
1772048145252056300,5.569056396484375,0.07261807696521282,0.02553644618615508,0.024468963085114953
1772048145262008300,5.57900830078125,0.07650923918485641,0.03211030815113336,0.020252868343598674
1772048145271960600,5.588960693359375,0.076810267958045,0.02187996950522065,0.02199298315932974
1772048145281912300,5.598912353515625,0.07127309209704398,0.03536141890157014,0.028461400572012643
1772048145291863600,5.608863525390625,0.07591536494493484,0.02102821151409298,0.01824219524146756
1772048145301815600,5.618815673828125,0.08025427093207836,0.023457192226685582,0.01589554420870845
1772048145311767300,5.628767333984375,0.0750192928880453,0.02652688199561089,0.013911232815473339
1772048145321719300,5.63871923828125,0.08205050669908523,0.021934695367142557,0.024383890033990607
1772048145331671600,5.648671630859375,0.07576514281928538,0.023291151477396486,0.014878695316362427
1772048145341623300,5.658623291015625,0.07771043166816234,0.030483218405954537,0.026445950830064246
1772048145351575300,5.6685751953125,0.07471592602729797,0.023805640338174998,0.03183355301938718
1772048145361527600,5.678527587890625,0.0926741920441389,0.026434344873949883,0.020872230934514662
1772048145371478300,5.688478271484375,0.10060498504340648,0.030184929579123852,0.017784483777446437
1772048145381430300,5.69843017578125,0.07322305712103844,0.02444876054730266,0.014588231319672195
1772048145391382500,5.708382568359375,0.09851122763454913,0.031197979079186915,0.02282077803626889
1772048145401334500,5.71833447265625,0.08668518076241016,0.02625800192635506,0.02397298712856136
1772048145411286300,5.728286376953125,0.06544014815986156,0.021198709242790936,0.016903737153852124
1772048145421238500,5.738238525390625,0.0611029957383871,0.017243432278372346,0.0272396790406201
1772048145431190500,5.7481904296875,0.07007716031074523,0.028147432402148842,0.027416225200903133
1772048145441142300,5.758142333984375,0.0844394476622343,0.028076632188260554,0.014197711331857136
1772048145451093500,5.768093505859375,0.08473872286975383,0.02315042783245444,0.01362587653545197
1772048145461045500,5.77804541015625,0.07890227180123328,0.02973806259445846,0.02491152378742117
1772048145470997200,5.787997314453125,0.08474573713243007,0.026507958099432287,0.02106409339493839
1772048145480949500,5.797949462890625,0.07606675611436367,0.028766989072598514,0.025228914606943726
1772048145490901500,5.807901611328125,0.07846271134018898,0.035432182582840324,0.02564639566692058
1772048145500853500,5.817853515625,0.0829495013654232,0.0316265797547996,0.029142112845170775
1772048145510805200,5.82780517578125,0.08205635191798209,0.022504750340059398,0.02038078273931751
1772048145520757500,5.837757568359375,0.07936521313786506,0.02661127234343439,0.01662260039122193
1772048145530708200,5.847708251953125,0.08490355804264545,0.02730382118485868,0.02941472380805062
1772048145540660500,5.857660400390625,0.06978606840968131,0.02623085819110274,0.027259004795597865
1772048145550612500,5.867612548828125,0.08100771964788436,0.03764481713101268,0.025534140064637174
1772048145560564500,5.877564453125,0.07428162626326083,0.02303619033563882,0.011698568584548775
1772048145570516200,5.88751611328125,0.0781739575266838,0.02552599785737693,0.026793138566229027
1772048145580468500,5.897468505859375,0.08386310907900332,0.03382080186344683,0.023286299489054363
1772048145590420500,5.90742041015625,0.07817746465802192,0.018993125489912926,0.029235962857794947
1772048145600372200,5.917372314453125,0.08162263667583465,0.02485657416321337,0.023300469578301997
1772048145610323500,5.927323486328125,0.08761164795756339,0.02521072136312723,0.027930912707792594
1772048145620275500,5.937275390625,0.08043138106465339,0.02363316984809935,0.020989601103332825
1772048145630227200,5.947227294921875,0.08238076156675815,0.029482480398193,0.02649575620498508
1772048145640179500,5.957179443359375,0.0838771376043558,0.02605681679844856,0.028840625130967235
1772048145650131500,5.96713134765625,0.09225333628356457,0.017471249684877694,0.02389868891648948
1772048145660083500,5.97708349609375,0.0822305394411087,0.020974362435005604,0.023549804696871433
1772048145670035500,5.987035400390625,0.07445172213315963,0.029736820485442874,0.024595804335176944
1772048145679987500,5.996987548828125,0.08267828320860862,0.024154015384428202,0.03208929504585685
1772048145689938400,6.0069384765625,0.07849135291278361,0.025120449263788758,0.02731278080944903
1772048145699890400,6.016890380859375,0.08896540065407753,0.020787717289105057,0.009765195077395764
1772048145709842400,6.026842529296875,0.0766968707114458,0.030014029991626737,0.01756287463273038
1772048145719794400,6.03679443359375,0.07864274408221245,0.02102543503511697,0.028931084459973496
1772048145729746400,6.046746337890625,0.0967524012684822,0.027198022722825406,0.025780276295833755
1772048145739698400,6.056698486328125,0.08418518064022064,0.02966455896683037,0.023913258581247644
1772048145749650400,6.066650390625,0.07101882507503032,0.03485113129187375,0.022683935982000546
1772048145759602400,6.0766025390625,0.07625204955339432,0.02703263956066221,0.017999139166634995
1772048145769554400,6.086554443359375,0.08402852877378464,0.02599018130302429,0.019051152987196108
1772048145779505400,6.09650537109375,0.07744856586158275,0.02900167461130768,0.024146199687442277
1772048145789457400,6.10645751953125,0.06353694488704204,0.02377542786300182,0.02294049999237759
1772048145799409400,6.116409423828125,0.07670096236467361,0.030038945237174628,0.022691733412677422
1772048145809361400,6.126361328125,0.08164309494197368,0.026457871880009767,0.01870802607986261
1772048145819313400,6.1363134765625,0.06787585087418556,0.02618994165882468,0.022245665579033083
1772048145829265400,6.146265380859375,0.07176584405004978,0.030249190454371272,0.02967554158514831
1772048145839217400,6.156217529296875,0.07146656884253025,0.030244733474962412,0.01863607052192674
1772048145849169400,6.16616943359375,0.08882043922543525,0.0282699993358925,0.026287145822448656
1772048145859120400,6.176120361328125,0.0816378342449665,0.0236389054691419,0.03302277422039769
1772048145869072400,6.186072265625,0.07565408366024494,0.024029694885015485,0.025416352053999433
1772048145879024400,6.1960244140625,0.07670271593034267,0.022937186940573156,0.024287384556687903
1772048145888976400,6.205976318359375,0.07939794636368751,0.024680742672272025,0.030101041554799302
1772048145898928400,6.215928466796875,0.07610533455908298,0.023951843875832855,0.03576825983652379
1772048145908880400,6.22588037109375,0.07565934435725212,0.028498985786177215,0.018238608195027334
1772048145918832400,6.235832275390625,0.07850596596002578,0.03662248834595084,0.021403068141895343
1772048145928784400,6.245784423828125,0.07312251935601234,0.025283384740538893,0.022366284867573995
1772048145938735400,6.2557353515625,0.07701368157565593,0.025411614230088888,0.019887220218847503
1772048145948687400,6.265687255859375,0.08254968839287757,0.027540077626146374,0.025602960667281877
1772048145958639400,6.275639404296875,0.07731354130506515,0.026743008964322506,0.027042775078897827
1772048145968591400,6.28559130859375,0.07970832748711108,0.025243381523713467,0.02913094984705094
1772048145978543600,6.295543701171875,0.079559274405241,0.02954911589361727,0.023451157494832293
1772048145988495400,6.305495361328125,0.07551847458183765,0.020893881077319383,0.024644657578738405
1772048145998447400,6.315447265625,0.06908464214205741,0.02656352421157062,0.028765507218276615
1772048146008399400,6.3253994140625,0.06968260803520679,0.029116131303831932,0.024307443247316405
1772048146018350300,6.335350341796875,0.08644669583141804,0.02449314767830074,0.028277173428772947
1772048146028302300,6.34530224609375,0.08494798170626162,0.02187741222195327,0.03322694132325705
1772048146038254600,6.355254638671875,0.07776303863823414,0.038856129149533805,0.025600348585087338
1772048146048206300,6.365206298828125,0.07297288175225257,0.025878464556857942,0.029221539323509203
1772048146058158300,6.375158447265625,0.08419336394667624,0.022362200064212082,0.028257377316337078
1772048146068110600,6.385110595703125,0.08853753063082695,0.025822606183774768,0.02727100347735686
1772048146078062600,6.3950625,0.08494272100925446,0.029515250156633553,0.026146061417902818
1772048146088014300,6.405014404296875,0.07836042000949382,0.016144969517178833,0.019912436858494763
1772048146097966300,6.41496630859375,0.0783615890532732,0.027032931821607053,0.02209550053559942
1772048146107917800,6.424917724609375,0.07926233728528022,0.034573592992126936,0.03150239853599342
1772048146117869600,6.43486962890625,0.07971125009655952,0.02020790810715407,0.028139682920533232
1772048146127821600,6.444821533203125,0.08345277471244335,0.028412914937920867,0.02665258616793435
1772048146137773800,6.45477392578125,0.07911386872529982,0.029149083725363015,0.030692691871593705
1772048146147725600,6.4647255859375,0.07687222727835177,0.025009536235220727,0.02902302792659029
1772048146157677600,6.474677490234375,0.0767231741964817,0.027838476050831375,0.024255646844708826
1772048146167629800,6.4846298828125,0.07238309916555881,0.025008915180712937,0.023040455518802627
1772048146177581800,6.494581787109375,0.06894084975719451,0.02742609585765749,0.020842934058082754
1772048146187532500,6.504532470703125,0.08165829251110553,0.024341902639344333,0.030400661538902203
1772048146197484800,6.51448486328125,0.07687105823457241,0.030275932330824432,0.023564002185582647
1772048146207436500,6.5244365234375,0.07657353659272194,0.02797540030349046,0.0215490113846492
1772048146217388500,6.534388427734375,0.0870452462464571,0.020881277324073015,0.026755923244822767
1772048146227340800,6.5443408203125,0.08853577706515789,0.023461758803948757,0.031157377640740013
1772048146237292800,6.554292724609375,0.07342296360731125,0.020760317825526,0.02731607102836715
1772048146247244500,6.56424462890625,0.0731195967465639,0.018783501327224075,0.02550577933654422
1772048146257196500,6.574196533203125,0.08030103268325328,0.02331248652637005,0.02831573817376047
1772048146267148800,6.584148681640625,0.08449263915419578,0.026687442852184176,0.02892880117134191
1772048146277099500,6.594099609375,0.07866261782646179,0.030099187524430453,0.026280976376566102
1772048146287051800,6.6040517578125,0.07880991734266281,0.02508373398259282,0.031449583786656146
1772048146297003800,6.614003662109375,0.08135492565035819,0.022799860829114914,0.028735614403511862
1772048146306955500,6.62395556640625,0.0797124191403389,0.023304558948241173,0.027423986098961902
1772048146316907500,6.633907470703125,0.07821779666841029,0.03177829971779138,0.021696116821316534
1772048146326859800,6.64385986328125,0.06819383078217506,0.02603175542242825,0.013016575255891075
1772048146336811800,6.653811767578125,0.09123626819550991,0.0209905463848263,0.01725611823000945
1772048146346763500,6.663763427734375,0.09393149862885475,0.026786080921068788,0.02070176745514618
1772048146356714800,6.67371484375,0.08360884205698967,0.027453787582181394,0.028634930508013346
1772048146366666500,6.68366650390625,0.08301379877328872,0.028995244870521127,0.023255479659105183
1772048146376618500,6.693618408203125,0.0779296273767948,0.023796434118412434,0.02573791900842916
1772048146386570800,6.70357080078125,0.08122107013761996,0.017384886575676498,0.02143412771715084
1772048146396522800,6.713522705078125,0.08406009295582771,0.03396108711697161,0.0319081868748879
1772048146406474500,6.723474609375,0.06849661312103271,0.028610081477835773,0.026391090254113077
1772048146416426800,6.7334267578125,0.09378186102509498,0.021840222016721964,0.02513146384814754
1772048146426378800,6.743378662109375,0.08360182779431342,0.02453300476465374,0.024394822419958655
1772048146436330500,6.75333056640625,0.07821662762463093,0.02598546859528869,0.025184111917414702
1772048146446281700,6.76328173828125,0.08659984056651591,0.02451335021611303,0.026650951333274133
1772048146456233700,6.773233642578125,0.06729775872528553,0.033159853736683724,0.021524662394681943
1772048146466185500,6.783185546875,0.0635609102845192,0.0355791898380965,0.02637266639814479
1772048146476137700,6.7931376953125,0.06251344705820083,0.024213380888849497,0.0310037899476476
1772048146486089700,6.80308984375,0.08750409592986107,0.02956639582198113,0.028003265557950362
1772048146496041700,6.813041748046875,0.09214169260263443,0.025708076426014304,0.025001085783995222
1772048146505993700,6.82299365234375,0.07628127564787865,0.02626574684139341,0.01940461291723186
1772048146515945700,6.83294580078125,0.09469079256355761,0.022545557274483142,0.01798313559661619
1772048146525897700,6.842897705078125,0.07868132252693176,0.025624964719824492,0.0314922127854079
1772048146535848700,6.8528486328125,0.06895838541388512,0.018646321346238254,0.02193233901327476
1772048146545800700,6.86280078125,0.07913374246954917,0.022675503797084093,0.028018990566756108
1772048146555752700,6.872752685546875,0.0749409669548273,0.021279044470004737,0.02926391487722285
1772048146565704700,6.88270458984375,0.08032558260262013,0.025234029173478483,0.026208237650629598
1772048146575656700,6.89265673828125,0.08257774544358253,0.019921382783353328,0.021809817745303734
1772048146585608700,6.902608642578125,0.09275076441168785,0.030319077352806922,0.034371914673876014
1772048146595560700,6.912560791015625,0.08407178339362144,0.029708325043320653,0.029994658570876343
1772048146605512700,6.9225126953125,0.08796528370082378,0.031709253069572146,0.023111273998999968
1772048146615463700,6.932463623046875,0.08362579319179057,0.027532588439434767,0.0213425929591991
1772048146625415700,6.942415771484375,0.08167875077724457,0.022937661864608525,0.02899881593394093
1772048146635367700,6.95236767578125,0.07928162650763988,0.026033691651187834,0.024506520899815948
1772048146645319700,6.962319580078125,0.07763678191006183,0.024798523833043873,0.029995480554783713
1772048146655271700,6.972271728515625,0.08123159153163433,0.023784634082764385,0.01782028802647837
1772048146665223700,6.9822236328125,0.08123568318486213,0.025146022096462547,0.02201854000898311
1772048146675175700,6.99217578125,0.07704758384525776,0.02869505634754896,0.019792061881837433
1772048146685127700,7.002127685546875,0.07944237002730369,0.026719335827790198,0.020161205721483565
1772048146695079700,7.01207958984375,0.09739771343469619,0.021081037679873404,0.0239267505337717
1772048146705031700,7.02203173828125,0.0716606301099062,0.023005101077631113,0.034119912674184884
1772048146714982700,7.031982666015625,0.08318506368696689,0.027274010568484663,0.023268161044165025
1772048146724934700,7.0419345703125,0.08138648983240127,0.01943067665696144,0.019797238097165243
1772048146734886700,7.05188671875,0.07389934894740581,0.02469265230577439,0.022612740759178993
1772048146744838700,7.061838623046875,0.07823708589076996,0.018607085314393042,0.021904807118955066
1772048146754790700,7.071790771484375,0.08556699038743973,0.03080309801008552,0.024070469853398387
1772048146764742700,7.08174267578125,0.08062778041958808,0.023492774996720252,0.03306073617718648
1772048146774694700,7.091694580078125,0.08556465229988097,0.01754332854039967,0.02823503990365425
1772048146784646700,7.101646728515625,0.07852876231372356,0.021683679748140273,0.024919017540710044
1772048146794597600,7.11159765625,0.07942600341439246,0.026500395847484468,0.024513327383226712
1772048146804549600,7.121549560546875,0.07194529227018356,0.023466325381211937,0.021786683464888483
1772048146814502000,7.131501953125,0.07838204731941223,0.02294445693157613,0.02415345597871346
1772048146824453600,7.14145361328125,0.087658994230628,0.030292627737298607,0.02797107575482223
1772048146834405600,7.151405517578125,0.07284311789274216,0.0252591270821169,0.026804034419578963
1772048146844357600,7.161357666015625,0.07209726796150207,0.02832571157850325,0.02678140017937403
1772048146854309600,7.1713095703125,0.08676350669562816,0.029164354359731075,0.02166118935511913
1772048146864261600,7.18126171875,0.0716477706283331,0.0255014844706282,0.027521290727285666
1772048146874213600,7.191213623046875,0.0746358465284109,0.024155951613187787,0.03087036140988348
1772048146884166000,7.201165771484375,0.0846615659803152,0.03297529095001518,0.026891098498390054
1772048146894116600,7.21111669921875,0.0800216312199831,0.02853486081715673,0.03245080128503032
1772048146904068600,7.221068603515625,0.0782306561499834,0.02749737099558115,0.025897013993700965
1772048146914020900,7.231020751953125,0.07583762353360653,0.031637795268557964,0.028036432608612813
1772048146923972600,7.24097265625,0.07882920656502246,0.026592604175582527,0.02981565559202572
1772048146933924600,7.250924560546875,0.07823474780321121,0.01958674400150776,0.028172249466285573
1772048146943876900,7.260876953125,0.06880699424445628,0.02752349181752652,0.02809452860455494
1772048146953828600,7.27082861328125,0.07793605711758136,0.024635661421529946,0.028713493903249034
1772048146963780600,7.280780517578125,0.07704524575769901,0.018740027511678636,0.022631116666086016
1772048146973732600,7.290732666015625,0.08272972113490104,0.02806702410969883,0.021242036927863955
1772048146983683600,7.30068359375,0.09036299249231815,0.026067228594608603,0.023115331402898297
1772048146993635600,7.310635498046875,0.07824643824100494,0.0180160971513018,0.030856232419831212
1772048147003587800,7.320587890625,0.07510638664960861,0.027959033690579234,0.020941971702477892
1772048147013539600,7.33053955078125,0.057007835379242894,0.02593063313551247,0.03036520434974227
1772048147023491600,7.34049169921875,0.07646423099935054,0.03628825142290443,0.02665571883993689
1772048147033443600,7.350443603515625,0.08200316042602061,0.03381123031750321,0.026034351521602366
1772048147043395800,7.360395751953125,0.08484978202879428,0.02637052239011973,0.023641273239452858
1772048147053347600,7.37034765625,0.09323299497067927,0.019669819175079463,0.028462425768608225
1772048147063299600,7.380299560546875,0.08096095789670944,0.013134681785292923,0.01820421501836972
1772048147073250800,7.390250732421875,0.07707447185218334,0.030075514387898145,0.026143198173958805
1772048147083202600,7.40020263671875,0.06779810946285725,0.027342436162196098,0.03203162602488883
1772048147093154600,7.410154541015625,0.08336275834143161,0.025919344556517898,0.0322217212199117
1772048147103106800,7.42010693359375,0.08605272807776927,0.03067413786817342,0.02297454382587457
1772048147113059300,7.430059326171875,0.07902151426672935,0.021929836528934536,0.025862655066372826
1772048147123011000,7.440010986328125,0.07872399262487888,0.01454235662613064,0.017557197235547935
1772048147132963000,7.449963134765625,0.08934300179481505,0.02996872954517603,0.02053616738056298
1772048147142915300,7.459915283203125,0.07348375388383865,0.019878164696134626,0.029890542892564553
1772048147152867300,7.469867431640625,0.07019348016679286,0.027743673906847833,0.032571829282236286
1772048147162818300,7.479818359375,0.07887363022863865,0.030403942624665795,0.03420456103362376
1772048147172770300,7.489770263671875,0.07693184851109981,0.018773856716044247,0.026382400057581253
1772048147182722300,7.499722412109375,0.07259294252395629,0.025946378693915903,0.022567043020506387
1772048147192674000,7.509674072265625,0.0808189190775156,0.02697155702318996,0.018609393719199577
1772048147202626300,7.519626220703125,0.08051496769487858,0.0251626079050824,0.024970375551900358
1772048147212578300,7.529578369140625,0.08320727551877498,0.02490998485088348,0.02449196036821231
1772048147222530000,7.539530029296875,0.08185819899737834,0.025574220913276074,0.020057912027079145
1772048147232482300,7.549482421875,0.0845487532556057,0.02911646009739488,0.02402513972419547
1772048147242434300,7.559434326171875,0.06539221736490726,0.02247654715888202,0.021619549020344856
1772048147252385000,7.569385009765625,0.05970306581258773,0.02525879828855395,0.03208319866521051
1772048147262337300,7.579337158203125,0.07391980721354484,0.023416567955352366,0.024860334739589596
1772048147272289300,7.589289306640625,0.08649053497314453,0.025623503415100276,0.03007927268098574
1772048147282241000,7.599240966796875,0.07167582767903805,0.030588834204897282,0.0368335007481277
1772048147292193300,7.609193359375,0.074217913377285,0.026606924961879847,0.02195203694429947
1772048147302145300,7.619145263671875,0.10983107855021954,0.01315937783513218,0.01108569509992376
1772048147312097300,7.62909716796875,0.08514028940796851,0.033681612588465214,0.025487200216948985
1772048147322049000,7.639049072265625,0.07675941455364227,0.03505571395326405,0.03144678447479382
1772048147332001300,7.649001220703125,0.08873334546387195,0.019255868079327047,0.01591969112763181
1772048147341953300,7.658953369140625,0.08588555481731891,0.03271631122026592,0.013822125193336978
1772048147351904300,7.668904296875,0.0722702864408493,0.040455344507098194,0.020482188154023605
1772048147361856300,7.678856201171875,0.07092880870401859,0.027407975679077205,0.02862692301478237
1772048147371808300,7.688808349609375,0.09486965626180172,0.017419227236695586,0.01437984584106598
1772048147381760000,7.698760009765625,0.07721651067137718,0.02178626333978027,0.026432349279685876
1772048147391712300,7.708712158203125,0.05492401484251022,0.020924495411291717,0.018857636284158798
1772048147401664300,7.718664306640625,0.08036474556922912,0.013826609572209417,0.017178170181059976
1772048147411616300,7.7286162109375,0.0908358707010746,0.03248918793350458,0.01790316683722776
1772048147421568300,7.738568359375,0.06973696857094765,0.022897695180401204,0.02143901623811107
1772048147431520300,7.748520263671875,0.08006313227415085,0.012385763114131986,0.022482762270537204
1772048147441472300,7.75847216796875,0.07422551216185093,0.023672844271361827,0.02534549932447262
1772048147451423200,7.76842333984375,0.08125380336344241,0.02920439410917461,0.03949413479212671
1772048147461375200,7.778375244140625,0.0719745183646679,0.024770612912811338,0.02671860517542809
1772048147471327200,7.7883271484375,0.07466448810100555,0.02443133448846638,0.02135603696266189
1772048147481279200,7.798279296875,0.08768471319377422,0.024832827961444853,0.027345016278349794
1772048147491231200,7.808231201171875,0.08140811714231967,0.017978322424180803,0.023982252713828346
1772048147501183200,7.818183349609375,0.08006313227415085,0.01673924561589956,0.027934611635375767
1772048147511135000,7.828135009765625,0.09083470165729522,0.02787833313718438,0.031314433649263805
1772048147521087200,7.838087158203125,0.08933949466347695,0.027691980252228677,0.02071303548454307
1772048147531039200,7.848039306640625,0.09054302523434161,0.024635697954148054,0.017574143803771584
1772048147540990200,7.857990234375,0.08605506616532801,0.027749080734327435,0.017843034147826255
1772048147550942200,7.867942138671875,0.08456219725906848,0.02627561064828187,0.020484245397080665
1772048147560894200,7.877894287109375,0.07813304099440574,0.023415946900844573,0.026999682572553863
1772048147570846200,7.88784619140625,0.07574117742180823,0.03307816680260003,0.028808647673681843
1772048147580798200,7.897798095703125,0.0880167216271162,0.021832659764774144,0.017421827902446965
1772048147590750200,7.907750244140625,0.07276245387196541,0.02125442148540169,0.02317332465085201
1772048147600702200,7.9177021484375,0.06828092454373837,0.02849949724283069,0.026880935580690855
1772048147610654200,7.927654296875,0.08220306691229343,0.023838081303052604,0.01744986668684287
1772048147620606200,7.937606201171875,0.09043371964097023,0.02246843691766262,0.02247282083183527
1772048147630558200,7.94755810546875,0.08115969533920288,0.029542174696177242,0.02786722037141444
1772048147640509200,7.95750927734375,0.07667348983585834,0.015972791288048026,0.03205976984056178
1772048147650461200,7.967461181640625,0.08131459363996982,0.025173202364332972,0.025432956128928343
1772048147660413200,7.9774130859375,0.09313830242455005,0.03064114891402423,0.026582996097020802
1772048147670365200,7.987365234375,0.06694996820092201,0.01856339230313897,0.03048006975093158
1772048147680317200,7.997317138671875,0.07428221078515053,0.022468108124099672,0.02367904568328522
1772048147690269200,8.007269287109375,0.0747317081183195,0.026333697511069475,0.024906655816058627
1772048147700221200,8.01722119140625,0.09089373836815356,0.017011523218639194,0.023566424754820764
1772048147710173200,8.027173095703125,0.09434183299541472,0.02997183481771499,0.018633707318193044
1772048147720125200,8.037125244140626,0.0898556274920702,0.02434614042304456,0.02465974783330457
1772048147730077200,8.0470771484375,0.08162965093851089,0.017046777195110916,0.02768074418887263
1772048147740028200,8.057028076171875,0.07325111417174339,0.019391038766317068,0.024470830815215592
1772048147749980200,8.066980224609376,0.07190905191302299,0.024179770880192516,0.01622074273370672
1772048147759932200,8.07693212890625,0.07295943774878978,0.016303557612374425,0.029039463038160462
1772048147769884200,8.08688427734375,0.08837795615494251,0.020916933159343898,0.030958126458304466
1772048147779836200,8.096836181640626,0.09691022217869757,0.017963965105265378,0.019814702971908262
1772048147789788200,8.1067880859375,0.0791021782875061,0.02279350415356457,0.02999584359767614
1772048147799740400,8.116740478515625,0.08329261571466923,0.02352528902683407,0.02392255384926684
1772048147809692200,8.126692138671874,0.07087211008071899,0.02608428932726383,0.033431414386793035
1772048147819644200,8.13664404296875,0.08433890989720821,0.025660072565823793,0.0336267702788231
1772048147829596200,8.14659619140625,0.09212240338027476,0.016014401940070092,0.02580261370851658
1772048147839547100,8.156547119140624,0.08104746713638306,0.019051723809354007,0.023406071677512953
1772048147849499100,8.1664990234375,0.07566109792292118,0.02053794377911836,0.025077559970133004
1772048147859451400,8.176451416015626,0.07536299175918101,0.026040121391974386,0.023594847131706773
1772048147869403100,8.186403076171874,0.08778115930557251,0.038366226740740236,0.023117521076695992
1772048147879355100,8.196355224609375,0.08224106083512306,0.023957177638076244,0.02403358332555508
1772048147889307100,8.20630712890625,0.07909633306860923,0.021489508882910013,0.030289463099255225
1772048147899259400,8.21625927734375,0.08149111925065516,0.03343074309993535,0.025942741415125783
1772048147909211100,8.226211181640625,0.08074526931941509,0.027973902466148136,0.027377973266458137
1772048147919163100,8.2361630859375,0.07371522455215454,0.020838534160889682,0.022433112159243318
1772048147929114000,8.246114013671875,0.07161854453384876,0.01671060404330492,0.027027082036132924
1772048147939066000,8.256066162109375,0.0801432117730379,0.027052586370147763,0.027653664385701993
1772048147949018000,8.26601806640625,0.08836918832659721,0.015360175815038382,0.021750591521488966
1772048147958970400,8.275970458984375,0.08627776900529861,0.015532902033440767,0.021892614357662387
1772048147968922000,8.285922119140626,0.07550795318782329,0.02828965388443321,0.03301892459576484
1772048147978874000,8.2958740234375,0.0768581987529993,0.023074074660614133,0.025810319807648193
1772048147988826400,8.305826416015625,0.08688684081435204,0.016398688549920916,0.026596889908344017
1772048147998778000,8.315778076171876,0.07536591436862945,0.018764540898427367,0.03002843754289206
1772048148008730000,8.325730224609375,0.07297405079603195,0.01015252416934818,0.025737466917280107
1772048148018682400,8.335682373046875,0.08449906889498233,0.020388854164630172,0.022830529962014404
1772048148028634400,8.34563427734375,0.08494622814059256,0.030910723103024063,0.019657763411104676
1772048148038585000,8.355585205078125,0.07940496062636375,0.02208067970909178,0.02741794451724272
1772048148048537300,8.365537353515625,0.08224632153213024,0.023637919088453054,0.02069025054728845
1772048148058489300,8.3754892578125,0.07416472188532353,0.021585114744491873,0.02435605902886018
1772048148068441000,8.385441162109375,0.08239537461400032,0.015732223997823893,0.023444289362628476
1772048148078393300,8.395393310546876,0.08120236543715,0.02384122310820967,0.023141582372295667
1772048148088345300,8.405345458984375,0.0807534526258707,0.02443370910864323,0.02676895168975461
1772048148098297000,8.415297119140625,0.0756640205323696,0.02882704869676381,0.025203768749244043
1772048148108249000,8.4252490234375,0.07985562700331211,0.024732399794273077,0.02246945983096957
1772048148118201300,8.435201416015625,0.08434709320366382,0.03768726803325116,0.026067438657162708
1772048148128153300,8.4451533203125,0.08509878835380077,0.024855587782524526,0.01722733509351965
1772048148138104300,8.455104248046876,0.08464812197685241,0.009039557958766818,0.027156202008249235
1772048148148056300,8.465056396484375,0.07821136692762375,0.022142748627252875,0.020337991627072914
1772048148158008300,8.47500830078125,0.0837467892229557,0.025016915824078022,0.020260113218426704
1772048148167960300,8.484960205078124,0.07985504248142242,0.019529058997519312,0.018516687634179834
1772048148177912300,8.494912353515625,0.08927928890883922,0.029193105530180036,0.02290770511776209
1772048148187864300,8.5048642578125,0.08419453299045562,0.026267390809208153,0.018736990737798623
1772048148197816300,8.51481640625,0.07431728209853172,0.03139054250922054,0.013793741632357704
1772048148207768300,8.524768310546875,0.08419687107801437,0.03142835376895964,0.02574681698422646
1772048148217720300,8.53472021484375,0.07117547694146632,0.027035854431055484,0.03020128705888055
1772048148227672300,8.54467236328125,0.08584230019748211,0.013483166429400444,0.011485237502766539
1772048148237624300,8.554624267578125,0.09032441404759883,0.02672777486257255,0.02190210827179253
1772048148247575300,8.5645751953125,0.07581190457046032,0.022764241526462135,0.01895982144193258
1772048148257527300,8.57452734375,0.0967617536187172,0.017810710772313176,0.018523674497392492
1772048148267479300,8.584479248046875,0.08403905016779899,0.029750849010795354,0.019545713304798117
1772048148277431300,8.594431396484374,0.062491819748282426,0.033616036538966,0.02375733965046238
1772048148287383300,8.60438330078125,0.07057283487319946,0.022070450576022266,0.032709673700213895
1772048148297335300,8.614335205078126,0.08568857094049454,0.02559383892919868,0.023653580165177115
1772048148307287300,8.624287353515625,0.08643442087173461,0.030745887930132446,0.018875114858633604
1772048148317239300,8.6342392578125,0.08000526460707187,0.02220584045872092,0.019555727808736264
1772048148327191300,8.64419140625,0.08479717505872249,0.021207075212337074,0.018859448073687963
1772048148337143300,8.654143310546875,0.07552431980073451,0.024194055133871732,0.026281720728660002
1772048148347094300,8.66409423828125,0.06490472610890866,0.017608721926808357,0.02766057590038981
1772048148357046300,8.67404638671875,0.07283902623951434,0.0198847405673936,0.028566918189544228
1772048148366998300,8.683998291015625,0.07687865701913833,0.016924794783256945,0.028581891996390184
1772048148376950300,8.6939501953125,0.08270809382498263,0.02131133930440992,0.025214322109299244
1772048148386902300,8.70390234375,0.09781856919527053,0.018264007497765123,0.022788015127694232
1772048148396854500,8.7138544921875,0.07701894227266311,0.020649441329576072,0.027486840468412262
1772048148406806300,8.72380615234375,0.07746902412772178,0.025698906738869844,0.02585216792168794
1772048148416758300,8.73375830078125,0.07402443663179874,0.022953845814429222,0.019635846123530063
1772048148426710300,8.743710205078125,0.08554711664319038,0.01964413674455136,0.028247141333401667
1772048148436662300,8.753662353515624,0.07477671630382537,0.0159293905377388,0.019038827795162794
1772048148446614300,8.7636142578125,0.08046411429047584,0.02862469452507794,0.02028323836568743
1772048148456565500,8.7735654296875,0.09004150545299053,0.023212021826580165,0.025059106431412508
1772048148466517200,8.783517333984374,0.07148527354300022,0.027745756266079842,0.022053398976521567
1772048148476469200,8.79346923828125,0.07627601495087147,0.02063767782654613,0.023816043001180513
1772048148486421200,8.803421142578125,0.08241057218313216,0.024388408662192523,0.024998546767036896
1772048148496373200,8.813373291015624,0.07956628866791725,0.01036572852861136,0.02801782837284263
1772048148506325200,8.8233251953125,0.08345335923433303,0.022747180793806908,0.02151373229200253
1772048148516277200,8.83327734375,0.07702011131644249,0.02674187645316124,0.019315053203946445
1772048148526229500,8.8432294921875,0.06715045920908451,0.017266045968979595,0.023469919277518056
1772048148536181200,8.85318115234375,0.07957681006193161,0.0287398818699643,0.017572520385554524
1772048148546133200,8.86313330078125,0.0777817433387041,0.024972565225698053,0.020491716317483224
1772048148556085200,8.873085205078125,0.07089958260953426,0.018951551370508968,0.030087878395838194
1772048148566036200,8.8830361328125,0.06820435217618942,0.0269461668536067,0.018966730673331766
1772048148575988200,8.89298828125,0.0732937842696905,0.025542802861705422,0.01633381803660886
1772048148585940500,8.9029404296875,0.07284428693652152,0.018066767892614004,0.02676140313753858
1772048148595892200,8.912892333984376,0.07703647792935371,0.014255721704475581,0.026762574464606587
1772048148605844200,8.92284423828125,0.0984340707451105,0.024595621672086416,0.03168810981684364
1772048148615796200,8.932796142578125,0.07777882072925567,0.02596175892613828,0.020780780658242293
1772048148625748500,8.94274853515625,0.08391162439584732,0.021991138262115417,0.021517262256226966
1772048148635700200,8.9527001953125,0.08346154254078865,0.02233556778561324,0.029313964564027264
1772048148645652200,8.96265234375,0.09319032487273216,0.023619652779400348,0.013119380326528334
1772048148655604500,8.9726044921875,0.07597966235280036,0.016348711928352713,0.02473712391845183
1772048148665555200,8.98255517578125,0.07628010660409927,0.03083710987754166,0.01664037693486316
1772048148675507200,8.992507080078125,0.06790273888111115,0.026268011863715947,0.016946245138306403
1772048148685459500,9.00245947265625,0.06581015051603317,0.021407127829082308,0.02068345091374358
1772048148695411200,9.0124111328125,0.08242343166470527,0.021591727148368954,0.019278570818190927
1772048148705363200,9.02236328125,0.08511340140104293,0.01781282966416329,0.01719911364603322
1772048148715315500,9.0323154296875,0.07912614368498325,0.021919169004447757,0.01852437090042513
1772048148725267500,9.042267333984375,0.08675941504240035,0.02844513670708984,0.019517658537381792
1772048148735219200,9.05221923828125,0.07373743638396263,0.03079655867144465,0.023109282971313223
1772048148745171200,9.062171142578125,0.06580430529713631,0.019490480552799998,0.01648738061352633
1772048148755123500,9.07212353515625,0.07867606182992458,0.02269709457438439,0.025059330193698406
1772048148765075200,9.0820751953125,0.08795359326303005,0.031225232412293552,0.028283941096276976
1772048148775027200,9.092027099609375,0.08047288211882114,0.021901231488958,0.02892752252970822
1772048148784978400,9.101978515625,0.0849579185783863,0.027574089493602513,0.022646871357643976
1772048148794930200,9.11193017578125,0.09244155233204364,0.027978761304356156,0.021493278592440764
1772048148804882200,9.121882080078125,0.08106792540252208,0.017986505730636416,0.029095442425541112
1772048148814834400,9.13183447265625,0.08181435985565184,0.021923260657675563,0.022701631468895356
1772048148824786200,9.1417861328125,0.07732640078663826,0.02758461088761687,0.014986231361044338
1772048148834738200,9.15173828125,0.07358721425831317,0.027965390366129574,0.03002493041155394
1772048148844690400,9.1616904296875,0.0831669435083866,0.028469211702421306,0.029150723126600494
1772048148854642400,9.171642333984375,0.0806184280693531,0.024885763725079595,0.02266693689813837
1772048148864594200,9.18159423828125,0.07702478749155998,0.021512487899698316,0.019805791296379174
1772048148874546200,9.191546142578124,0.07837152592539787,0.023903365091606975,0.02447434936299687
1772048148884498400,9.20149853515625,0.0898901142835617,0.023871106789819893,0.027337586457142606
1772048148894449200,9.21144921875,0.08674304842948913,0.02492441523503512,0.023535789871250743
1772048148904401400,9.2214013671875,0.06804185509085654,0.02106697262190282,0.030440290296392048
1772048148914353400,9.231353515625,0.08166004607677459,0.019379202198050914,0.017150390549923757
1772048148924305200,9.24130517578125,0.07777122194468974,0.027411592408269642,0.02232058941219002
1772048148934257200,9.251257080078124,0.06968962229788303,0.024161321908049285,0.0266880228074966
1772048148944209400,9.26120947265625,0.06998889750540256,0.02491374771054834,0.024931822223355993
1772048148954161400,9.271161376953126,0.07912146750986576,0.02745283773411065,0.024012841931625735
1772048148964113200,9.281113037109375,0.07538403454720974,0.026745018258318303,0.02247024756554747
1772048148974065400,9.2910654296875,0.075538348326087,0.02464687693528831,0.02285002924692817
1772048148984017400,9.301017333984374,0.07179916179776191,0.0253448691368103,0.02641290251041064
1772048148993969200,9.31096923828125,0.06970072821378707,0.03009425562098622,0.025939476312382612
1772048149003920400,9.32092041015625,0.07583703901171684,0.026157171900384128,0.019956714391638524
1772048149013872400,9.330872314453124,0.08452420333623886,0.024856062706559896,0.02165624375194311
1772048149023824100,9.34082421875,0.07539747855067253,0.01898180037830025,0.02377191844837507
1772048149033776400,9.3507763671875,0.08228256188929081,0.027312333284877238,0.02217325792994816
1772048149043728400,9.360728271484374,0.08228022380173206,0.02872881248667836,0.02857183410996804
1772048149053680000,9.37068017578125,0.07958674693405628,0.027079255181364715,0.02329069481967017
1772048149063632100,9.380632080078126,0.08272913661301136,0.0278352611804381,0.021669610123592427
1772048149073584400,9.39058447265625,0.0827273830473423,0.02324373213909566,0.026141700336616485
1772048149083536400,9.400536376953125,0.08662146787643432,0.025832944914698598,0.02428483868986368
1772048149093488000,9.410488037109374,0.07509703429937362,0.02276292635221034,0.022615234110364688
1772048149103440400,9.4204404296875,0.07674246341884136,0.0175523155644536,0.019332613976811987
1772048149113391400,9.430391357421875,0.0801829592615366,0.01579586381856352,0.027002675963949875
1772048149123342600,9.440342529296874,0.07928221102952956,0.02560571203008294,0.02456582475544419
1772048149133294300,9.45029443359375,0.07703355531990527,0.020662154680676757,0.02312890098723583
1772048149143246300,9.460246337890625,0.07328910809457302,0.0243518029788509,0.024256943752651566
1772048149153198600,9.470198486328124,0.08720131359100342,0.022085575079917905,0.014302886456093983
1772048149163150600,9.480150634765625,0.08555646899342537,0.02699154036529362,0.019241558709472882
1772048149173102300,9.490102294921876,0.08032149094939231,0.01988156222961843,0.023026744370569938
1772048149183054300,9.500054443359375,0.06611234833300113,0.022082067948579788,0.020556315119448117
1772048149193006600,9.510006591796875,0.06985153486132621,0.020786036788672208,0.023623760415648575
1772048149202958300,9.519958251953126,0.08346855680346489,0.027218736717291175,0.023715409338031894
1772048149212910300,9.529910400390625,0.07718319292366504,0.017362053689360616,0.022129834346752614
1772048149222862600,9.539862548828125,0.07927461224496364,0.016886654729954896,0.019990034422639292
1772048149232814600,9.549814697265624,0.08032149094939231,0.029468196144513785,0.013937855960917659
1772048149242765300,9.559765380859375,0.07568447879850863,0.016539887118898332,0.012836065306543605
1772048149252717600,9.569717529296875,0.07613631421923638,0.023775391330383717,0.022223672942933627
1772048149262669600,9.579669677734374,0.07583703901171684,0.02079516994319856,0.02999015592569485
1772048149272621300,9.589621337890625,0.07777998977303505,0.014588972246833145,0.020398348078760318
1772048149282573600,9.599573486328126,0.0833200882434845,0.021205650440230966,0.020817948030587285
1772048149292525600,9.609525634765625,0.0753857881128788,0.02714457550253719,0.01818659944657702
1772048149302477300,9.619477294921875,0.08451134385466576,0.01765369357969612,0.019845917810790707
1772048149312429300,9.62942919921875,0.08825403751432895,0.025076062132790684,0.023817285110196096
1772048149322381600,9.639381591796875,0.06984861225187779,0.03359258259814232,0.025235801005456596
1772048149332333600,9.64933349609375,0.07972410957813263,0.009974208460375666,0.019737543799181002
1772048149342285300,9.659285400390624,0.11079670871198177,0.021964505983516572,0.01876276449987199
1772048149352237600,9.669237548828125,0.22293606420457363,0.0401461689600721,-0.02260425605862401
1772048149362188500,9.6791884765625,0.10558628058731555,0.015434227431938051,0.02057101264836965
1772048149372140300,9.689140380859374,-0.09746551797389984,0.0038845132831484075,0.07678298722547479
1772048149382092500,9.699092529296875,0.013435235634446143,0.030075770116224882,0.0314030229648808
1772048149392044500,9.70904443359375,0.06104512807130813,0.03454579166974872,0.019162175613618455
1772048149401996300,9.718996337890625,0.024868483796715735,0.026557532862201333,0.049061534283589565
1772048149411948500,9.728948486328125,0.15463701948225497,0.0071102338640019296,0.020077724122535435
1772048149421900500,9.738900634765624,0.14328794247210025,0.0173018479347229,-0.0008342998235450068
1772048149431852500,9.7488525390625,0.04289747696220875,0.029333646512031554,0.02421283974944381
1772048149441804300,9.75880419921875,0.11756547219455242,0.02998264847267419,0.025478025963227263
