time,seconds_elapsed,z,y,x
1772048139758629000,0.075629150390625,-0.0003647033590823412,0.006165243685245514,0.00044643180444836617
1772048139768581000,0.0855810546875,0.0002648676745593548,-0.0021057352423667908,0.001422214088961482
1772048139778533000,0.095533203125,0.0006961170583963394,0.000015824800357222557,0.00409075478091836
1772048139788485400,0.1054853515625,-0.0005393233150243759,0.008997336030006409,-0.00011437619104981422
1772048139798437000,0.11543701171875,0.0006925412453711033,0.0000214320607483387,0.0006077089346945286
1772048139808388400,0.125388427734375,-0.0007213307544589043,-0.0017226720228791237,0.0001680208370089531
1772048139818340000,0.135340087890625,0.00017207348719239235,0.0040911780670285225,-0.001399169210344553
1772048139828292000,0.1452919921875,-0.002022904111072421,0.005087200086563826,0.003514895448461175
1772048139838244000,0.155244140625,0.00176995899528265,-0.0008350992575287819,0.0009095687419176102
1772048139848196400,0.1651962890625,-0.0015512693207710981,-0.0022295303642749786,-0.0013458621688187122
1772048139858148000,0.175148193359375,-0.0023009153082966805,0.004637754522264004,0.0026398312766104937
1772048139868100000,0.18510009765625,-0.0008809177670627832,0.0017767202807590365,0.001501063583418727
1772048139878052400,0.19505224609375,-0.00094589963555336,-0.0014149134512990713,0.0003283466212451458
1772048139888003000,0.205003173828125,-0.00011579226702451706,0.00023518106900155544,-0.004225925542414188
1772048139897955000,0.214955078125,-0.00041828048415482044,-0.0006016197148710489,-0.0024201301857829094
1772048139907907300,0.2249072265625,-0.00016394862905144691,-0.0018005750607699156,-0.0006784228608012199
1772048139917859000,0.234859130859375,-0.0006766603328287601,-0.0004527950659394264,-0.002864998299628496
1772048139927811000,0.24481103515625,0.00041683344170451164,0.0032029261346906424,0.0009055053815245628
1772048139937763300,0.254763427734375,-0.00040300539694726467,0.0006698565557599068,0.0010449634864926338
1772048139947715300,0.26471533203125,-0.0008211217354983091,0.0005481499247252941,0.00013069994747638702
1772048139957666000,0.274666015625,-0.00012009916827082634,-0.0018041359726339579,0.001640047412365675
1772048139967618300,0.284618408203125,-0.0008367558475583792,0.00063478690572083,0.001598235685378313
1772048139977570000,0.294570068359375,-0.001247668405994773,-0.0029422722291201353,-0.0005159704014658928
1772048139987522000,0.30452197265625,-0.0016447457019239664,0.0007427437230944633,-0.0009391466155648232
1772048139997474300,0.314474365234375,-0.0002203495241701603,0.0013444351498037577,-0.002007551956921816
1772048140007426300,0.32442626953125,0.0011993814259767532,0.0003638593479990959,0.002006364520639181
1772048140017378000,0.3343779296875,-0.000746055506169796,0.00017783604562282562,0.00030120834708213806
1772048140027329300,0.344329345703125,-0.0006813406944274902,0.0014572185464203358,0.0005944222211837769
1772048140037281300,0.35428125,-0.0009801802225410938,-0.0002658942248672247,0.00036306167021393776
1772048140047233000,0.36423291015625,-0.0005333018489181995,0.0005847194697707891,0.000003002118319272995
1772048140057185300,0.374185302734375,-0.0020539555698633194,-0.00026052165776491165,0.0015066631603986025
1772048140067137300,0.38413720703125,-0.00013008806854486465,-0.0008647928480058908,0.002198019763454795
1772048140077089000,0.394089111328125,0.0017565805464982986,-0.000419022049754858,0.0011692787520587444
1772048140087041000,0.404041015625,-0.0013460021000355482,0.002565849106758833,0.0022481251507997513
1772048140096992300,0.4139921875,-0.0011448522564023733,0.0013906836975365877,0.0018314218614250422
1772048140106947600,0.423947509765625,-0.00021274574100971222,0.00017441785894334316,0.0026921555399894714
1772048140116899800,0.43389990234375,0.000693583395332098,-0.0005896014627069235,0.004034855403006077
1772048140126851600,0.4438515625,0.0029562050476670265,-0.0019518083427101374,0.00024251407012343407
1772048140136803600,0.453803466796875,0.0007864763028919697,-0.0009385962039232254,0.0015965255443006754
1772048140146755600,0.463755615234375,-0.002267903182655573,0.0004861948546022177,0.0019243606366217136
1772048140156707800,0.473707763671875,0.0012317807413637638,-0.00005874340422451496,-0.0005071149207651615
1772048140166658600,0.483658447265625,-0.00019966810941696167,0.0029016262851655483,0.0011001029051840305
1772048140176610800,0.49361083984375,-0.00004271930083632469,0.0023636675905436277,0.0014686065260320902
1772048140186562800,0.503562744140625,-0.00040890416130423546,0.0003769495524466038,-0.000006251968443393707
1772048140196514600,0.5135146484375,-0.0008173440583050251,0.0008731575217097998,0.000003023538738489151
1772048140206466600,0.523466552734375,-0.0028610536828637123,0.0002228135708719492,0.00018225423991680145
1772048140216418800,0.533418701171875,-0.003036842215806246,-0.0007392596453428268,0.0021049657370895147
1772048140226370600,0.54337060546875,0.0007637552917003632,0.0010213563218712807,0.00041439104825258255
1772048140236321800,0.55332177734375,-0.0007845044601708651,-0.0008676277939230204,0.0015462867449969053
1772048140246273800,0.563273681640625,-0.000784238101914525,0.00006048358045518398,-0.002946732100099325
1772048140256225500,0.5732255859375,0.002546657808125019,-0.00337784131988883,0.00007976824417710304
1772048140266177500,0.583177490234375,0.0017008380964398384,-0.0008102878928184509,0.0014222674071788788
1772048140276129800,0.5931298828125,-0.0007529915310442448,0.0007477062754333019,0.002539051463827491
1772048140286081500,0.60308154296875,-0.001464854460209608,-0.0014699078164994717,0.0002852184697985649
1772048140296033500,0.613033447265625,0.0002709580585360527,0.001753891701810062,-0.00019688066095113754
1772048140305984800,0.62298486328125,0.0004001213237643242,-0.0022720089182257652,-0.00009674578905105591
1772048140315936500,0.6329365234375,-0.0009373354259878397,-0.0013382809702306986,-0.00036002788692712784
1772048140325888500,0.642888427734375,0.00011727632954716682,0.0003693376202136278,0.001955324085429311
1772048140335840800,0.6528408203125,0.00008329050615429878,0.0007647676393389702,-0.00138144101947546
1772048140345792800,0.662792724609375,0.001361341681331396,0.0003567715175449848,-0.0023002317175269127
1772048140355744500,0.67274462890625,-0.0011780841741710901,-0.001863609068095684,0.001231280155479908
1772048140365696800,0.68269677734375,-0.0005596980918198824,0.0016959721688181162,-0.0016031223349273205
1772048140375647700,0.692647705078125,-0.001331348903477192,-0.0014122463762760162,-0.0032912995666265488
1772048140385599500,0.702599609375,0.000317414291203022,-0.004869562573730946,-0.0020966054871678352
1772048140395551700,0.7125517578125,0.0028826571069657803,0.0006749576423317194,-0.0022073504514992237
1772048140405503700,0.722503662109375,-0.002087866421788931,-0.0007575568743050098,-0.0029213442467153072
1772048140415455500,0.73245556640625,-0.0025559684727340937,-0.00034273299388587475,-0.0027513117529451847
1772048140425407700,0.74240771484375,-0.0015442336443811655,-0.0012846931349486113,-0.0014905715361237526
1772048140435359700,0.75235986328125,-0.002532290294766426,-0.0021357976365834475,-0.0010972432792186737
1772048140445311700,0.762311767578125,0.0012805573642253876,-0.0013144791591912508,-0.0024349489249289036
1772048140455262700,0.7722626953125,-0.00027709128335118294,-0.0019321772269904613,-0.000666310079395771
1772048140465214700,0.782214599609375,-0.0010217111557722092,-0.0013231122866272926,-0.0010242387652397156
1772048140475166500,0.79216650390625,-0.0014678540173918009,0.0017490889877080917,-0.0007715490646660328
1772048140485118700,0.80211865234375,-0.003079865360632539,-0.002935677533969283,-0.000715889036655426
1772048140495070700,0.81207080078125,0.0009070113301277161,-0.0008929693140089512,-0.0023799315094947815
1772048140505022700,0.822022705078125,0.0007581403478980064,0.0016455559525638819,0.000728776678442955
1772048140514974700,0.831974609375,-0.0021101476158946753,-0.0016390872187912464,0.00033977534621953964
1772048140524925700,0.84192578125,0.0015056258998811245,0.0009282003156840801,0.0007491027936339378
1772048140534877700,0.851877685546875,-0.0011391276493668556,0.00036011473275721073,-0.002200799062848091
1772048140544829700,0.86182958984375,0.00011628633365035057,-0.00026546185836195946,-0.00048545701429247856
1772048140554781700,0.87178173828125,-0.0009129524696618319,0.001855553942732513,-0.004202075302600861
1772048140564733700,0.881733642578125,-0.0003797875251621008,-0.0003295696806162596,-0.000633705873042345
1772048140574685700,0.891685791015625,-0.00014968356117606163,0.004749768413603306,-0.00013200193643569946
1772048140584637700,0.9016376953125,0.000056444667279720306,0.0016059065237641335,-0.00015517137944698334
1772048140594588700,0.911588623046875,0.0006433879025280476,-0.003070133738219738,0.001190065871924162
1772048140604540700,0.921540771484375,-0.0008482488337904215,-0.0029295189306139946,-0.00016788020730018616
1772048140614492700,0.93149267578125,-0.0022379024885594845,0.0025639489758759737,0.0009371135383844376
1772048140624444700,0.941444580078125,-0.0007979313377290964,-0.0019447829108685255,0.000782383605837822
1772048140634396700,0.951396728515625,-0.0006091070827096701,-0.0009934210684150457,0.0004311148077249527
1772048140644348700,0.9613486328125,0.0028527360409498215,-0.0011739830952137709,0.0008652098476886749
1772048140654300700,0.97130078125,-0.0014028449077159166,0.0020191697403788567,0.00034208549186587334
1772048140664251600,0.981251708984375,0.00012048333883285522,0.0013698909897357225,-0.00045526493340730667
1772048140674203600,0.99120361328125,0.00043802428990602493,-0.004552793689072132,-0.0007725530304014683
1772048140684155600,1.00115576171875,-0.0004522702656686306,0.0010025606025010347,0.001329480204731226
1772048140694107600,1.011107666015625,-0.00001784553751349449,0.0007981834933161736,-0.00031025195494294167
1772048140704059600,1.0210595703125,-0.0013201311230659485,0.0004969798028469086,-0.0021901773288846016
1772048140714011600,1.03101171875,0.0016063600778579712,0.0005779992789030075,-0.000042856670916080475
1772048140723963600,1.040963623046875,-0.0013124644756317139,-0.0015812916681170464,-0.0016748416237533092
1772048140733914600,1.05091455078125,0.0007763728499412537,-0.00216039945371449,-0.002272975631058216
1772048140743866600,1.06086669921875,0.0026949141174554825,-0.002185966121032834,-0.00366793991997838
1772048140753818600,1.070818603515625,-0.00040398724377155304,-0.0019466462545096874,0.00007466133683919907
1772048140763770600,1.0807705078125,-0.0009467394556850195,-0.003973844461143017,-0.0004470520652830601
1772048140773722600,1.09072265625,0.00059885298833251,-0.00029408535920083523,-0.0013851262629032135
1772048140783674600,1.100674560546875,-0.0018390046898275614,-0.0018999716266989708,0.00044313352555036545
1772048140793627000,1.110626953125,-0.002192856278270483,-0.0014314448926597834,-0.00297197001054883
1772048140803577600,1.12057763671875,-0.00019921408966183662,-0.0017419692594558,-0.0021591736003756523
1772048140813529900,1.13052978515625,0.002628674730658531,0.0009147804230451584,0.00070987269282341
1772048140823481600,1.140481689453125,-0.00010159797966480255,-0.002614440629258752,-0.001405476126819849
1772048140833433600,1.15043359375,-0.0000454094260931015,-0.0027905816677957773,-0.0025571491569280624
1772048140843385600,1.160385498046875,0.0008012093603610992,0.00014555337838828564,-0.0021238531917333603
1772048140853337900,1.170337890625,-0.0021254345774650574,-0.004194698762148619,0.001074193511158228
1772048140863289600,1.18028955078125,0.0024855625815689564,-0.0023469976149499416,-0.002628665417432785
1772048140873240800,1.19024072265625,-0.00031346315518021584,-0.001240997575223446,0.00248521426692605
1772048140883192800,1.20019287109375,-0.0005984213203191757,0.0010133683681488037,0.0002910359762609005
1772048140893144600,1.21014453125,-0.0003529705572873354,-0.0005299330223351717,0.001333483960479498
1772048140903096600,1.2200966796875,0.0008246791549026966,0.0006035084370523691,0.0015726357232779264
1772048140913048800,1.230048828125,0.0005532638169825077,0.0018558354349806905,0.003043810836970806
1772048140923000600,1.24000048828125,-0.000877120066434145,-0.00040039466693997383,0.0005803867243230343
1772048140932952600,1.24995263671875,0.0011243503540754318,-0.0018237133044749498,0.0015005820896476507
1772048140942903800,1.25990380859375,-0.001151054399088025,0.001041049137711525,0.0008912505581974983
1772048140952855600,1.26985546875,-0.001851007342338562,0.002925210166722536,0.0006481087766587734
1772048140962807600,1.2798076171875,0.0001000245101749897,-0.0005595360416918993,0.0006529027596116066
1772048140972759800,1.289759765625,-0.0013164558913558722,-0.00048809219151735306,0.0008739912882447243
1772048140982711600,1.299711669921875,0.0031294249929487705,0.00013162544928491116,-0.0008075283840298653
1772048140992663600,1.30966357421875,-0.0006559193134307861,-0.0018512459937483072,-0.0017997389659285545
1772048141002615800,1.31961572265625,-0.0010391480755060911,-0.00021739676594734192,-0.0017784340307116508
1772048141012567800,1.32956787109375,0.0008920547552406788,-0.0022145488765090704,-0.002241881098598242
1772048141022518500,1.3395185546875,0.00017992546781897545,-0.002094706753268838,-0.002535361796617508
1772048141032470800,1.349470703125,0.002437322400510311,-0.0017984970472753048,-0.0034978119656443596
1772048141042422800,1.3594228515625,0.0012080073356628418,-0.0010432242415845394,-0.0014738095924258232
1772048141052374500,1.36937451171875,0.0023982087150216103,-0.0024962923489511013,-0.002357721794396639
1772048141062326800,1.379326904296875,-0.00045803142711520195,-0.003063545562326908,0.0006492533721029758
1772048141072278800,1.38927880859375,-0.0008979528211057186,-0.0019268118776381016,0.0016205578576773405
1772048141082230500,1.39923046875,-0.00013948464766144753,-0.017079131677746773,0.00785741489380598
1772048141092181800,1.409181640625,-0.0008598819840699434,0.00029053748585283756,-0.0072258515283465385
1772048141102133800,1.4191337890625,0.0008775643073022366,-0.00045647937804460526,-0.002123767975717783
1772048141112082400,1.42908251953125,0.0015942417085170746,0.0001251986250281334,0.0004696594551205635
1772048141122034400,1.439034423828125,0.0002789064310491085,0.008579669520258904,0.006517165340483189
1772048141131986400,1.448986328125,0.0008854884654283524,0.01687515527009964,0.004918921738862991
1772048141141938400,1.4589384765625,-0.00016140006482601166,0.008912302553653717,0.00040326593443751335
1772048141151890400,1.468890380859375,0.0008938703685998917,-0.014949619770050049,-0.0013019563630223274
1772048141161841400,1.47884130859375,0.0007071830332279205,-0.006099403835833073,-0.00555768795311451
1772048141171793400,1.48879345703125,-0.0016312622465193272,0.00835468154400587,-0.00024112733080983162
1772048141181745400,1.498745361328125,0.0009022029116749763,-0.0006750326137989759,0.0026340214535593987
1772048141191697400,1.508697509765625,0.0003834618255496025,-0.007938675582408905,0.0014481316320598125
1772048141201649400,1.5186494140625,-0.0011430622544139624,0.007967319339513779,-0.004641984589397907
1772048141211601400,1.528601318359375,0.0014684181660413742,0.006837474647909403,0.00202274601906538
1772048141221553400,1.538553466796875,0.0023946654982864857,-0.00784879270941019,0.0026733563281595707
1772048141231504400,1.54850439453125,-0.00029608188197016716,-0.0037486643996089697,0.0010873842984437943
1772048141241456400,1.558456298828125,-0.0010228585451841354,0.00550741795450449,-0.0003957301378250122
1772048141251408400,1.568408447265625,0.004378616809844971,0.0019449366955086589,0.002624156652018428
1772048141261360400,1.5783603515625,0.0004523186944425106,-0.004462628625333309,-0.0021764575503766537
1772048141271312400,1.5883125,-0.0022780071012675762,0.002559598069638014,-0.0018377844244241714
1772048141281264400,1.598264404296875,0.0012687910348176956,0.00595486257225275,-0.0000585261732339859
1772048141291216400,1.60821630859375,-0.0001865143422037363,0.00209504971280694,0.000572484452277422
1772048141301168400,1.61816845703125,0.00009418278932571411,-0.004131686873733997,-0.0005242051556706429
1772048141311119400,1.628119384765625,-0.0031643114052712917,0.003799794940277934,0.0015218579210340977
1772048141321071400,1.6380712890625,0.0003183041699230671,0.0025696808006614447,0.0015159989707171917
1772048141331023400,1.6480234375,0.001400066539645195,-0.001577137503772974,0.000035789329558610916
1772048141340975600,1.6579755859375,0.0012224335223436356,0.0003925363998860121,0.000535398256033659
1772048141350927400,1.66792724609375,0.002919918391853571,0.000872188713401556,0.0028935133013874292
1772048141360879400,1.67787939453125,-0.0002279379405081272,-0.0029196201357990503,0.0026772646233439445
1772048141370831600,1.68783154296875,0.0006076432764530182,-0.0023423521779477596,-0.00027566635981202126
1772048141380782300,1.6977822265625,-0.0010254071094095707,0.00233469158411026,0.0028125355020165443
1772048141390734300,1.707734375,-0.0007467933464795351,0.0012110190000385046,0.001060121227055788
1772048141400686600,1.7176865234375,-0.00019711698405444622,-0.0023166039027273655,0.0036287398543208838
1772048141410638300,1.727638427734375,-0.0030230870470404625,0.0012909139040857553,0.0014132563956081867
1772048141420590300,1.73759033203125,-0.0007066696416586637,-0.0028705415315926075,0.0048860181123018265
1772048141430542600,1.74754248046875,-0.00003461912274360657,0.001391544472426176,0.006098352372646332
1772048141440493300,1.757493408203125,-0.0010314402170479298,0.001171301119029522,0.000723560806363821
1772048141450445300,1.7674453125,0.0007980284281075001,0.0005466451402753592,0.003459150902926922
1772048141460397600,1.7773974609375,0.00013490160927176476,-0.0009985207580029964,0.003972874954342842
1772048141470349300,1.787349365234375,-0.002260394860059023,0.001981917070224881,0.004336072131991386
1772048141480301300,1.79730126953125,0.0012765494175255299,0.0031694206409156322,0.004846067633479834
1772048141490253600,1.807253662109375,0.001075156033039093,0.0018884777091443539,0.0027099105063825846
1772048141500205600,1.81720556640625,0.0031628082506358624,-0.0018697751220315695,-0.00004326552152633667
1772048141510157300,1.8271572265625,-0.0006018229760229588,-0.0005258489400148392,0.002267451025545597
1772048141520108500,1.837108642578125,0.00045704981312155724,0.0007468757685273886,0.00178914749994874
1772048141530060500,1.847060546875,0.0001905183307826519,0.0041308156214654446,0.0022278372198343277
1772048141540012300,1.85701220703125,0.0006381957791745663,0.00385677651502192,0.0014126435853540897
1772048141549964500,1.866964599609375,-0.0000641371589154005,-0.00023994105868041515,0.003248833119869232
1772048141559916500,1.87691650390625,0.0007731607183814049,0.0006508864462375641,0.002664801897481084
1772048141569868300,1.886868408203125,-0.001088383374735713,0.0031528128311038017,0.0006740973331034184
1772048141579820300,1.8968203125,-0.0005016888026148081,0.0014766193926334381,-0.00012112222611904144
1772048141589771500,1.906771484375,0.0022528436966240406,0.00009878980927169323,-0.0004401174373924732
1772048141599723300,1.91672314453125,0.0003204541280865669,0.0014279736205935478,0.0014728312380611897
1772048141609675500,1.926675537109375,-0.00014158105477690697,-0.0016854805871844292,-0.0009323093108832836
1772048141619627500,1.93662744140625,0.0003958446905016899,0.0008775456808507442,-0.0010875719599425793
1772048141629579300,1.946579345703125,-0.0003043878823518753,-0.002819635206833482,0.0003367415629327297
1772048141639531300,1.95653125,0.0004972238093614578,-0.003014578716829419,0.0010619205422699451
1772048141649483500,1.9664833984375,-0.00002889474853873253,-0.001583239296451211,0.0007531847804784775
1772048141659434200,1.976434326171875,-0.00042890128679573536,-0.0020607442129403353,0.0009462642483413219
1772048141669386500,1.986386474609375,0.0005441661924123764,-0.00033082347363233566,0.0004435875453054905
1772048141679338500,1.99633837890625,-0.0015589320100843906,-0.0006810291670262814,0.0032963654957711697
1772048141689290500,2.00629052734375,0.000552875455468893,0.0025513051077723503,0.00235516089014709
1772048141699242200,2.0162421875,0.002671420108526945,-0.0019220064859837294,0.0020864480175077915
1772048141709194500,2.026194580078125,-0.00045069027692079544,-0.002470385516062379,0.0001482623629271984
1772048141719146500,2.036146484375,0.00014053145423531532,-0.00017527327872812748,0.0027605569921433926
1772048141729097500,2.046097412109375,-0.0006530869286507368,-0.0002385447733104229,0.0007345769554376602
1772048141739049500,2.056049560546875,0.0013139238581061363,0.0023447214625775814,0.0011481656692922115
1772048141749001500,2.06600146484375,0.000763935036957264,0.0008653360418975353,0.0009090122766792774
1772048141758953200,2.075953125,-0.0013407613150775433,-0.00019620009697973728,-0.0007000700570642948
1772048141768905500,2.085905517578125,0.0018342621624469757,0.0010293459054082632,0.002123934216797352
1772048141778857500,2.095857421875,-0.0012065349146723747,0.0006855318788439035,0.0005350923165678978
1772048141788809500,2.1058095703125,0.003330287989228964,0.0017863180255517364,-0.0001796223223209381
1772048141798760400,2.115760498046875,0.000022109132260084152,0.0015604819636791945,-0.0008400864899158478
1772048141808712400,2.12571240234375,0.0027828034944832325,-0.0007866725791245699,-0.002467500511556864
1772048141818664200,2.135664306640625,0.0012235227040946484,0.0018546506762504578,-0.00007784552872180939
1772048141828616400,2.145616455078125,-0.0004088429268449545,0.0015894693788141012,-0.001502831932157278
1772048141838568400,2.155568359375,-0.00012654787860810757,0.0004781321622431278,0.0003651091828942299
1772048141848520400,2.1655205078125,0.0008965781889855862,-0.0004066028632223606,-0.0011705048382282257
1772048141858472400,2.175472412109375,-0.00043660029768943787,-0.001097426749765873,0.000021259300410747528
1772048141868423400,2.18542333984375,0.0002692202106118202,0.001371430465951562,-0.0015075933188199997
1772048141878375400,2.19537548828125,-0.0012152260169386864,0.0009999193716794252,0.002430955646559596
1772048141888327400,2.205327392578125,-0.0006010157521814108,-0.0014331694692373276,0.001554597169160843
1772048141898279400,2.215279541015625,-0.0003163237124681473,0.0007037508767098188,0.0028566166292876005
1772048141908231400,2.2252314453125,0.0005304887890815735,-0.0020915421191602945,-0.0014830958098173141
1772048141918183400,2.235183349609375,0.0010748389177024364,-0.0003130834084004164,0.0019523818045854568
1772048141928135400,2.245135498046875,-0.0009727547876536846,0.00023145671002566814,-0.0005582268349826336
1772048141938086400,2.25508642578125,0.000727939885109663,0.0007939161732792854,0.0015033259987831116
1772048141948038400,2.265038330078125,0.00047805067151784897,-0.0012784916907548904,0.0011751935817301273
1772048141957990400,2.274990478515625,-0.00044366950169205666,-0.0011056521907448769,0.0004854351282119751
1772048141967942400,2.2849423828125,0.0018642442300915718,0.00032857153564691544,0.00116362189874053
1772048141977894400,2.294894287109375,0.00020882347598671913,0.0018979724263772368,-0.0003993869759142399
1772048141987846400,2.304846435546875,0.0020959260873496532,0.0022843657061457634,0.0008607311174273491
1772048141997798400,2.31479833984375,-0.001712394179776311,0.0012473305687308311,0.0004910845309495926
1772048142007750400,2.32475048828125,0.00017187977209687233,0.0005481422413140535,-0.0007566222921013832
1772048142017701400,2.334701416015625,0.001351660117506981,0.0006639896892011166,-0.0011715427972376347
1772048142027653400,2.3446533203125,0.0004890616983175278,-0.002146607032045722,-0.002613576129078865
1772048142037605600,2.354605712890625,0.0028443611226975918,0.0013136379420757294,-0.0013658846728503704
1772048142047557400,2.364557373046875,0.0004242332652211189,0.002264635171741247,-0.0001032976433634758
1772048142057509400,2.37450927734375,0.0010538045316934586,0.0007178711239248514,0.0008937898091971874
1772048142067461400,2.38446142578125,0.0010911575518548489,0.0008109486661851406,-0.001984621863812208
1772048142077413400,2.394413330078125,-0.0002838324289768934,0.0019406614592298865,0.0005504414439201355
1772048142087364400,2.4043642578125,0.0006898450665175915,-0.0006862797308713198,0.0007370021194219589
1772048142097316600,2.414316650390625,-0.000641202786937356,-0.00017788237892091274,0.000744192861020565
1772048142107271200,2.424271240234375,0.0016379645094275475,-0.002182379364967346,0.0008345409296452999
1772048142117223200,2.43422314453125,0.00025099003687500954,0.0007859801407903433,-0.0001950371079146862
1772048142127175400,2.444175537109375,0.0002267817035317421,0.0007029578555375338,0.00037572113797068596
1772048142137127400,2.45412744140625,-0.000762848649173975,0.00009895302355289459,0.00007451744750142097
1772048142147079200,2.4640791015625,-0.0002016283106058836,0.0012745214626193047,0.0002446351572871208
1772048142157030400,2.474030517578125,0.00043353578075766563,0.004151267930865288,-0.00014844723045825958
1772048142166982400,2.483982421875,-0.0019952941220253706,0.0008561541326344013,-0.0008841329254209995
1772048142176934100,2.49393408203125,-0.0008727717213332653,-0.0011638535652309656,-0.0005296659655869007
1772048142186886400,2.503886474609375,0.0006931722164154053,-0.0002602019812911749,0.0016461170744150877
1772048142196838400,2.51383837890625,-0.000024017412215471268,-0.0007081455551087856,0.00023091351613402367
1772048142206790100,2.5237900390625,0.000492533203214407,0.0013276543468236923,0.00038223015144467354
1772048142216742400,2.533742431640625,0.001341016497462988,0.0011761204805225134,0.003139134496450424
1772048142226693400,2.543693359375,0.000892298761755228,-0.002610583323985338,0.0024359971284866333
1772048142236645000,2.55364501953125,-0.0008456800132989883,0.0003495202399790287,0.00175396166741848
1772048142246597400,2.563597412109375,-0.002601548796519637,-0.00038406974636018276,0.002212297637015581
1772048142256549400,2.57354931640625,0.0015516509301960468,-0.00010763364844024181,0.0005954927764832973
1772048142266501000,2.583501220703125,-0.0012117973528802395,0.0018769388552755117,0.00034583592787384987
1772048142276453400,2.593453369140625,0.0005914289504289627,0.00024042627774178982,0.0009410521015524864
1772048142286405400,2.6034052734375,0.00025558890774846077,-0.000003100372850894928,0.001081288792192936
1772048142296356000,2.613356201171875,-0.0002845001872628927,-0.002651880495250225,0.00018620025366544724
1772048142306308400,2.623308349609375,-0.00043515744619071484,-0.0006390104535967112,0.0002378956414759159
1772048142316260400,2.63326025390625,0.0012820488773286343,0.0003226569388061762,-0.00015705078840255737
1772048142326212400,2.64321240234375,0.00028889579698443413,0.0005168276838958263,0.00039197178557515144
1772048142336164400,2.653164306640625,0.0015488374046981335,0.0003176233731210232,0.0012953162658959627
1772048142346116400,2.663116455078125,0.0006460277363657951,-0.0006762885022908449,-0.0004247911274433136
1772048142356068400,2.673068359375,-0.000005647540092468262,0.00201616738922894,-0.0012967102229595184
1772048142366020000,2.68302001953125,-0.0009281602688133717,-0.005193537101149559,-0.00038017798215150833
1772048142375971300,2.692971435546875,0.0005725310184061527,-0.0005596368573606014,0.0008110539056360722
1772048142385923300,2.70292333984375,-0.001986927352845669,-0.0034987640101462603,0.00035313190892338753
1772048142395875300,2.712875244140625,0.0016722558066248894,-0.00034398329444229603,-0.000021574553102254868
1772048142405827300,2.722827392578125,-0.0003198389895260334,-0.0012488882057368755,-0.00004565063863992691
1772048142415779300,2.732779296875,-0.0021433052606880665,0.0008297092281281948,0.0006249332800507545
1772048142425731000,2.74273095703125,0.0013053733855485916,-0.00011543813161551952,0.0005078893154859543
1772048142435683300,2.752683349609375,0.0013032425194978714,-0.0015724536497145891,0.0002623461186885834
1772048142445634300,2.76263427734375,-0.0007274404633790255,-0.0002692209091037512,-0.0004981332458555698
1772048142455586300,2.77258642578125,0.0026071034371852875,0.0012826030142605305,0.0008134739473462105
1772048142465538300,2.782538330078125,0.0007467726245522499,0.003016956616193056,0.0022619173396378756
1772048142475490300,2.792490234375,0.00007139472290873528,-0.0009439629502594471,-0.0016095200553536415
1772048142485442300,2.8024423828125,-0.0022167041897773743,0.000676881754770875,0.0014229482039809227
1772048142495394300,2.812394287109375,-0.0010467774700373411,0.00006009358912706375,0.0007853871211409569
1772048142505346300,2.82234619140625,0.0013060406781733036,0.0000018472783267498016,-0.0016554766334593296
1772048142515297500,2.832297607421875,0.000944117084145546,-0.00039043650031089783,0.0001101992093026638
1772048142525249300,2.842249267578125,-0.0006008204072713852,-0.0004302957095205784,-0.0005336133763194084
1772048142535201300,2.852201171875,0.00042689358815550804,-0.0009299046359956264,0.00003124307841062546
1772048142545153300,2.8621533203125,-0.0000570942647755146,0.00016487552784383297,-0.0003288025036454201
1772048142555105300,2.872105224609375,0.0004694126546382904,0.0011209503281861544,0.00011727679520845413
1772048142565057300,2.882057373046875,-0.0013636904768645763,-0.0011992193758487701,-0.002645146567374468
1772048142575009300,2.89200927734375,0.002534111961722374,-0.001207741443067789,-0.0019183699041604996
1772048142584960300,2.901960205078125,0.0014887726865708828,-0.0007403749041259289,0.001150703988969326
1772048142594912300,2.911912353515625,0.0017377780750393867,-0.00024529313668608665,-0.0012061935849487782
1772048142604864300,2.9218642578125,0.0018551675602793694,0.0012272002641111612,-0.0010628574527800083
1772048142614816300,2.931816162109375,-0.002064472995698452,0.001167545560747385,0.00003729434683918953
1772048142624768300,2.941768310546875,0.00005726423114538193,-0.0012482514139264822,-0.00008209841325879097
1772048142634720300,2.95172021484375,0.0008444944396615028,0.0016548606799915433,-0.00011139316484332085
1772048142644672500,2.961672607421875,-0.000023618340492248535,0.0011119293048977852,-0.0009413645602762699
1772048142654623200,2.971623291015625,0.0017798743210732937,-0.0013626799918711185,0.00024347566068172455
1772048142664575200,2.9815751953125,-0.0010697843972593546,-0.000024593202397227287,-0.0028084665536880493
1772048142674527500,2.991527587890625,-0.00018321792595088482,0.0016313603846356273,0.001546867424622178
1772048142684479200,3.001479248046875,-0.0009366767480969429,-0.005071659572422504,-0.0001977505162358284
1772048142694431200,3.01143115234375,-0.0007872735150158405,0.000009118812158703804,-0.0020347987301647663
1772048142704383500,3.021383544921875,-0.0012765817809849977,-0.0019396815914660692,-0.000015354249626398087
1772048142714335200,3.031335205078125,0.001545037142932415,0.0004715446848422289,-0.0014430745504796505
1772048142724286200,3.0412861328125,0.003077681176364422,-0.0012284910771995783,-0.0020892121829092503
1772048142734238500,3.051238525390625,-0.0009628669358789921,-0.00001302408054471016,0.00004877382889389992
1772048142744190200,3.061190185546875,-0.0019009651150554419,-0.0019358412828296423,-0.002877633087337017
1772048142754142200,3.07114208984375,0.0010602036491036415,0.0005377025809139013,-0.0002898401580750942
1772048142764094500,3.081094482421875,-0.00025112484581768513,-0.00019871583208441734,0.0008439379744231701
1772048142774046200,3.091046142578125,0.0015086920466274023,0.002539280103519559,-0.00002025812864303589
1772048142783998200,3.100998291015625,-0.002184963086619973,0.002827009651809931,0.0030804872512817383
1772048142793950200,3.1109501953125,0.0006153506692498922,-0.0003357604146003723,0.00004581548273563385
1772048142803901200,3.120901123046875,0.0009362709242850542,0.0024182479828596115,0.001070522703230381
1772048142813853200,3.130853271484375,0.001205516280606389,-0.0017751653213053942,-0.00034041982144117355
1772048142823805400,3.140805419921875,0.0011505226138979197,-0.001239702571183443,0.0007124976254999638
1772048142833757400,3.15075732421875,-0.0006577637977898121,-0.0008543431758880615,0.0005540396086871624
1772048142843709200,3.160709228515625,-0.000390875618904829,-0.0008831152226775885,-0.0009883437305688858
1772048142853661200,3.1706611328125,0.0019460481125861406,-0.0004245189484208822,-0.0006019189022481441
1772048142863613400,3.180613525390625,0.0011711136903613806,0.00031392346136271954,0.001256060553714633
1772048142873564200,3.190564208984375,0.00021876743994653225,0.0000452105887234211,-0.001856109593063593
1772048142883516400,3.200516357421875,-0.0005814668256789446,-0.003706070128828287,0.0008702948689460754
1772048142893468400,3.210468505859375,0.0002997731789946556,-0.0004799165762960911,0.0015589883551001549
1772048142903420200,3.220420166015625,-0.0019057842437177896,-0.0011180555447936058,0.00008876901119947433
1772048142913372200,3.2303720703125,0.0022010761313140392,0.00005986052565276623,0.00016706576570868492
1772048142923324400,3.240324462890625,-0.00042353151366114616,0.0014841590309515595,0.0014414212200790644
1772048142933276200,3.250276123046875,-0.00012632273137569427,0.0003994535654783249,-0.0018872637301683426
1772048142943227400,3.260227294921875,-0.0010128288995474577,-0.0022255752701312304,0.00121642230078578
1772048142953179400,3.270179443359375,-0.0016085782554000616,-0.0010159674566239119,0.003507539862766862
1772048142963131100,3.280131103515625,-0.0007306421175599098,0.00231377175077796,-0.0016461033374071121
1772048142973083100,3.290083251953125,0.0006238415371626616,-0.0023241229355335236,-0.0012836470268666744
1772048142983035400,3.300035400390625,-0.00028397119604051113,0.002376494463533163,0.001728967297822237
1772048142992987400,3.3099873046875,0.0004188369493931532,0.0038241888396441936,0.0012898121494799852
1772048143002939100,3.319939208984375,-0.000826152740046382,0.00037741241976618767,-0.0009948108345270157
1772048143012890400,3.329890380859375,0.0002889130264520645,0.00045357877388596535,-0.001219049096107483
1772048143022842400,3.33984228515625,0.0026941972319036722,0.00035372585989534855,0.0011832376476377249
1772048143032794000,3.349794189453125,-0.0011772399302572012,0.0009353603236377239,-0.0038786325603723526
1772048143042746400,3.359746337890625,0.0008621243759989738,0.00056478101760149,0.00031099142506718636
1772048143052698400,3.369698486328125,-0.0006060765590518713,0.00018474808894097805,0.0002665165811777115
1772048143062650000,3.379650146484375,-0.0015364845748990774,0.002331365132704377,0.0006377687677741051
1772048143072602400,3.389602294921875,0.0005932454951107502,0.0006122947670519352,0.0033826888538897038
1772048143082553300,3.39955322265625,-0.0009676630143076181,0.00011545838788151741,0.003056868677958846
1772048143092505300,3.40950537109375,0.0006725776474922895,-0.0006680437363684177,-0.00019538355991244316
1772048143102457300,3.419457275390625,-0.002573949284851551,0.0007089038845151663,0.0012349660973995924
1772048143112406000,3.429406005859375,-0.0009560789912939072,0.0016466028755530715,-0.00001938268542289734
1772048143122358000,3.43935791015625,0.0008045921567827463,0.0022832981776446104,-0.0013331160880625248
1772048143132310300,3.449310302734375,-0.000027911970391869545,-0.002806002739816904,-0.0009136679582297802
1772048143142262000,3.459261962890625,-0.000204841373488307,0.0037355427630245686,-0.000453118234872818
1772048143152214000,3.469214111328125,0.0007981050293892622,0.0016851751133799553,0.0011612900998443365
1772048143162165200,3.479165283203125,0.0013193453196436167,0.0016229106113314629,-0.00013117631897330284
1772048143172117000,3.489116943359375,-0.000662046717479825,0.0005517872050404549,0.0002999892458319664
1772048143182069000,3.499069091796875,-0.0003772699274122715,0.0008135945536196232,-0.0003171861171722412
1772048143192021200,3.509021240234375,0.00024724146351218224,0.002746516838669777,0.003261303063482046
1772048143201973200,3.51897314453125,-0.001514188013970852,-0.0013435857836157084,-0.00032704323530197144
1772048143211925000,3.528925048828125,0.003949287347495556,-0.0007867186795920134,-0.0014237333089113235
1772048143221877000,3.538876953125,-0.0011117621324956417,-0.0007333238609135151,0.0008495384827256203
1772048143231828000,3.548827880859375,-0.000036377692595124245,0.001235817326232791,-0.0014162790030241013
1772048143241780000,3.558780029296875,0.0015059288125485182,0.0011275096330791712,-0.001583140343427658
1772048143251732200,3.568732177734375,-0.0012174197472631931,0.003697193693369627,0.002186830621212721
1772048143261684200,3.578684326171875,0.002505476353690028,0.0014987863833084702,-0.0005861995741724968
1772048143271636000,3.588635986328125,0.0003448536153882742,-0.001000590156763792,0.0007645557634532452
1772048143281588000,3.598587890625,-0.00048526423051953316,0.0009232829324901104,0.0001293211244046688
1772048143291540200,3.608540283203125,0.00026867655105888844,0.0018703030655160546,-0.0017444789409637451
1772048143301491000,3.618490966796875,-0.0007191204931586981,-0.0007779572624713182,0.0012553848791867495
1772048143311443200,3.628443115234375,0.0005152546800673008,-0.0009566552471369505,0.0004053041338920593
1772048143321395200,3.638395263671875,-0.0005746316164731979,0.001791896764189005,-0.0011866842396557331
1772048143331347000,3.648346923828125,0.0015255371108651161,-0.001278461655601859,0.0003334484063088894
1772048143341299000,3.658298828125,0.00024495553225278854,-0.001438069622963667,-0.0007345140911638737
1772048143351251200,3.668251220703125,0.0003442913293838501,0.0028235206846147776,-0.0013670148327946663
1772048143361203200,3.678203125,0.001813485287129879,0.002230581594631076,0.0007594586350023746
1772048143371154200,3.688154296875,-0.0007354263216257095,-0.0004775871057063341,-0.0012727994471788406
1772048143381106200,3.698106201171875,0.00045143021270632744,-0.0009437191765755415,-0.0014872895553708076
1772048143391058000,3.708057861328125,-0.0005816100165247917,0.0028558128979057074,-0.003464686218649149
1772048143401010000,3.718010009765625,-0.002027818001806736,0.00002576434053480625,-0.0017503085546195507
1772048143410962200,3.727962158203125,-0.0001481589861214161,0.0008132611401379108,-0.0017567002214491367
1772048143420914200,3.7379140625,-0.0002762258518487215,-0.0005748637486249208,0.0005160639993846416
1772048143430866000,3.747865966796875,0.0005488214083015919,-0.0010616898071020842,-0.0004637129604816437
1772048143440817200,3.757817138671875,-0.0005658285226672888,-0.0013285831082612276,-0.0015218625776469707
1772048143450769200,3.76776904296875,0.0010512429289519787,0.0013907707761973143,0.0019540952052921057
1772048143460721000,3.777720947265625,0.0015992121770977974,0.001075951149687171,-0.0002418537624180317
1772048143470673200,3.787673095703125,-0.0021864715963602066,-0.002147805178537965,-0.00001655006781220436
1772048143480625200,3.797625244140625,0.00009417906403541565,-0.0038861106149852276,-0.00043187476694583893
1772048143490577000,3.807576904296875,-0.0016310166101902723,0.00004737847484648228,0.000979068223387003
1772048143500529200,3.817529052734375,0.0008778031915426254,0.001123991096392274,-0.000030897557735443115
1772048143510480100,3.827480224609375,0.0017864741384983063,-0.0017311838455498219,-0.0010247891768813133
1772048143520431900,3.837431884765625,-0.0007112929597496986,-0.002002040622755885,-0.0017563975416123867
1772048143530384100,3.847384033203125,-0.0002881167456507683,-0.0003524788189679384,-0.00007061660289764404
1772048143540336000,3.857336181640625,-0.0010423283092677593,0.0004306272603571415,-0.0012106862850487232
1772048143550288100,3.8672880859375,-0.00014564208686351776,-0.002000572392717004,-0.002656516619026661
1772048143560240000,3.877240234375,0.0007553780451416969,-0.00091188820078969,0.0014619685243815184
1772048143570192100,3.887192138671875,-0.0019506597891449928,0.002848228672519326,0.00023771310225129128
1772048143580142800,3.897142822265625,0.000988729763776064,-0.0008312724530696869,0.0003677438944578171
1772048143590095000,3.90709521484375,-0.0019428781233727932,-0.0009737513028085232,-0.0002897903323173523
1772048143600047000,3.917047119140625,-0.0006144901271909475,0.000651064794510603,0.0019450222607702017
1772048143609999000,3.9269990234375,-0.0008951874915510416,0.0004089833237230778,0.000009702984243631363
1772048143619951000,3.936951171875,-0.00009540794417262077,-0.0002588985953480005,0.00001975707709789276
1772048143629903000,3.946903076171875,0.0029930598102509975,0.00010701967403292656,-0.000312605407088995
1772048143639855000,3.956855224609375,-0.0016569653525948524,-0.00033053476363420486,0.0012663654051721096
1772048143649807000,3.96680712890625,0.00024825986474752426,-0.0026866334956139326,0.00006314925849437714
1772048143659758000,3.976758056640625,0.0016509927809238434,-0.0005017463117837906,0.0021674109157174826
1772048143669710000,3.9867099609375,-0.000010553747415542603,-0.0009704628027975559,-0.0012683332897722721
1772048143679662000,3.996662109375,-0.00026112678460776806,0.0015417353715747595,-0.00005769077688455582
1772048143689614000,4.006614013671875,-0.002679543336853385,-0.0022356922272592783,-0.004473744425922632
1772048143699566000,4.016566162109375,0.00029508909210562706,-0.00047114002518355846,-0.0002574389800429344
1772048143709518000,4.02651806640625,0.00017151841893792152,-0.00008418248035013676,0.0011127572506666183
1772048143719470000,4.036469970703125,0.00023367814719676971,0.00043907412327826023,0.0006159949116408825
1772048143729421000,4.046421142578125,0.0003087790682911873,-0.0008443030528724194,0.00007004709914326668
1772048143739373000,4.056373046875,-0.0006535050924867392,-0.0005837935023009777,-0.0016333293169736862
1772048143749325000,4.066324951171875,-0.00012513389810919762,0.0020420835353434086,-0.0005510207265615463
1772048143759277000,4.076277099609375,0.00023823650553822517,0.0036920153070241213,-0.001860826276242733
1772048143769229000,4.08622900390625,-0.0010600544046610594,-0.0005972720682621002,-0.001575069036334753
1772048143779181000,4.09618115234375,0.0003828844055533409,-0.002766018733382225,-0.0005470183677971363
1772048143789133000,4.106133056640625,-0.0014738717582076788,0.000056399498134851456,0.002747045364230871
1772048143799084300,4.116084228515625,0.0028134402818977833,-0.0002942974679172039,-0.0004906966350972652
1772048143809036000,4.1260361328125,-0.0008326936513185501,0.0004005210939794779,0.0003162412904202938
1772048143818988000,4.135988037109375,-0.001996466424316168,0.0007360465824604034,-0.0018567931838333607
1772048143828940000,4.14593994140625,0.00006055925041437149,0.001772548770532012,0.00008305301889777184
1772048143838892000,4.15589208984375,-0.005830604117363691,0.0005373451858758926,0.001672903774306178
1772048143848844000,4.165843994140625,0.0029924483969807625,-0.0013297973200678825,-0.0002022278495132923
1772048143858796000,4.175796142578125,-0.00007942458614706993,-0.0006885025650262833,0.0004444615915417671
1772048143868748300,4.185748291015625,-0.0016972948797047138,-0.00035321060568094254,-0.0027907462790608406
1772048143878699000,4.195698974609375,0.000758123118430376,-0.0011757658794522285,0.00221238168887794
1772048143888651000,4.205651123046875,0.0016966210678219795,0.002407783642411232,-0.0008427966386079788
1772048143898603300,4.215603271484375,0.0019462332129478455,0.00020028185099363327,0.00010448182001709938
1772048143908555000,4.225554931640625,-0.0014112137723714113,-0.002017066115513444,-0.0024180645123124123
1772048143918507000,4.235507080078125,0.0010404312051832676,-0.0010901016648858786,-0.0010706116445362568
1772048143928459300,4.245459228515625,-0.001471994910389185,-0.0007071394938975573,-0.0006234669126570225
1772048143938411000,4.255410888671875,0.0006247726269066334,-0.0026044179685413837,-0.004108606372028589
1772048143948362200,4.2653623046875,0.0006271693855524063,-0.002558345440775156,-0.001798846758902073
1772048143958314200,4.275314208984375,-0.001054712338373065,0.00020930543541908264,0.0009567933157086372
1772048143968266000,4.285265869140625,0.0014228266663849354,0.002002145629376173,-0.003302400466054678
1772048143978218000,4.295218017578125,-8.833594620227814e-7,0.0026273245457559824,-0.0011267145164310932
1772048143988170200,4.305170166015625,-0.0007984999101608992,-0.0010715401731431484,0.0005353642627596855
1772048143998122000,4.3151220703125,0.001737274695187807,0.000612637959420681,0.002278480678796768
1772048144008074000,4.325073974609375,-0.00018366309814155102,-0.0008209419902414083,-0.00019026966765522957
1772048144018025200,4.335025146484375,-0.00010139751248061657,0.0033479398116469383,0.0001984178088605404
1772048144027977000,4.34497705078125,-0.0021363189443945885,-0.0007474694866687059,-0.0008468730375170708
1772048144037929000,4.354928955078125,0.00014522206038236618,0.00010441616177558899,-0.002191927284002304
1772048144047881200,4.364881103515625,0.0013452423736453056,0.0006136125884950161,0.0017721881158649921
1772048144057833200,4.374833251953125,-0.001165364170446992,-0.0007802580948919058,0.00047001661732792854
1772048144067785000,4.384784912109375,-0.0014822804369032383,-0.0004055511672049761,0.0003991764970123768
1772048144077737200,4.3947373046875,0.00010862993076443672,0.0007025906816124916,-0.0004389542154967785
1772048144087688000,4.40468798828125,0.0035779299214482307,0.0021809113677591085,0.001825797837227583
1772048144097640000,4.414639892578125,0.0014532697387039661,0.0006033338140696287,-0.00031863339245319366
1772048144107591400,4.42459130859375,-0.00046873348765075207,0.0016859087627381086,-0.000510647427290678
1772048144117543400,4.43454345703125,0.0015997323207557201,0.0003763830754905939,-0.0017656064592301846
1772048144127495400,4.444495361328125,-0.00147781684063375,-0.00033041974529623985,-0.0008500115945935249
1772048144137447400,4.454447509765625,0.0013051298446953297,0.0019997037015855312,-0.0012603760696947575
1772048144147399400,4.4643994140625,0.002547228243201971,0.00021858164109289646,-0.001098455861210823
1772048144157351400,4.474351318359375,-0.0006491316016763449,-0.0003711017780005932,-0.0008384273387491703
1772048144167302400,4.484302490234375,-0.001027300488203764,0.000005469191819429398,-0.0009316382929682732
1772048144177254400,4.49425439453125,-0.0013843630440533161,-0.0034441803582012653,0.0011521689593791962
1772048144187206400,4.504206298828125,-0.0017404276877641678,-0.002248421311378479,-0.0002302778884768486
1772048144197158700,4.51415869140625,0.0009611435234546661,-0.0022274255752563477,0.0022805079352110624
1772048144207110400,4.5241103515625,-0.0007768354844301939,-0.001348316203802824,-0.0013632290065288544
1772048144217062400,4.5340625,0.001054428517818451,-0.00281168008223176,0.000973076093941927
1772048144227014700,4.5440146484375,-0.0007088505662977695,0.0017567062750458717,-0.00007461151108145714
1772048144236965400,4.55396533203125,0.0008488427847623825,-0.0003655406180769205,-0.0006112740375101566
1772048144246917400,4.56391748046875,-0.0014281601179391146,-0.0017048444133251905,-0.0018147565424442291
1772048144256869600,4.57386962890625,-0.0013946234248578548,0.0004278451669961214,0.001376275671645999
1772048144266821400,4.5838212890625,-0.00012695882469415665,0.0009306499268859625,-0.00015557464212179184
1772048144276773400,4.5937734375,0.0014184890314936638,0.0012272833846509457,-0.00038687465712428093
1772048144286725600,4.6037255859375,-0.0035919821821153164,0.00062141427770257,-0.0001269499771296978
1772048144296677400,4.613677490234375,-0.0009021379519253969,-0.00045316643081605434,-0.001915419939905405
1772048144306628400,4.62362841796875,-0.0031525089871138334,-0.0011751495767384768,0.0006798305548727512
1772048144316580600,4.63358056640625,0.0019600014202296734,-0.000629879767075181,-0.00013992050662636757
1772048144326532400,4.643532470703125,0.00022175628691911697,-0.0031814544927328825,-0.003400428220629692
1772048144336484400,4.653484375,0.000900560524314642,0.0008841352537274361,-0.0013350369408726692
1772048144346436600,4.6634365234375,-0.0008480711840093136,0.0012814789079129696,-0.0012125312350690365
1772048144356388600,4.673388671875,0.0008949828334152699,-0.001393269980326295,0.00042997533455491066
1772048144366340400,4.68334033203125,0.00010615447536110878,0.0006847947370260954,-0.0015402310527861118
1772048144376291600,4.69329150390625,-0.003485057270154357,0.001556003000587225,0.001069908495992422
1772048144386243300,4.703243408203125,0.0008071595802903175,-0.0008086177986115217,0.00011995900422334671
1772048144396195300,4.7131953125,-0.0013720744755119085,0.0013332189992070198,-0.0023580072447657585
1772048144406147600,4.723147705078125,0.0008695083670318127,0.0015247003175318241,-0.00036463094875216484
1772048144416099600,4.733099609375,-0.00010079308412969112,0.0016173820476979017,0.000259550753980875
1772048144426051300,4.74305126953125,-0.0011253110133111477,-0.0019115728791803122,-0.0011862795799970627
1772048144436003300,4.75300341796875,0.0012733531184494495,-0.002960855606943369,0.0005931900814175606
1772048144445955600,4.76295556640625,-0.0021765055134892464,0.001612058375030756,0.002367121633142233
1772048144455906300,4.77290625,0.0009291805326938629,0.0014974984806030989,0.002213801257312298
1772048144465858600,4.782858642578125,0.0009470237419009209,-0.001435174373909831,0.0032961098477244377
1772048144475810600,4.792810546875,-0.00010972400195896626,0.0018116518622264266,0.001749531365931034
1772048144485762300,4.80276220703125,0.0013683303259313107,-0.00008425256237387657,-0.0036476310342550278
1772048144495714300,4.81271435546875,0.0019090771675109863,-0.000616271048784256,-0.0008124210871756077
1772048144505666600,4.82266650390625,-0.0018278704956173897,-0.004967077169567347,0.0001891939900815487
1772048144515618600,4.83261865234375,-0.0004987826105207205,0.0002803807146847248,-0.00015172595158219337
1772048144525570300,4.8425703125,-0.002589630428701639,0.0014226105995476246,0.0011553531512618065
1772048144535521500,4.852521484375,0.001443500630557537,0.001863098586909473,-0.0013142535462975502
1772048144545473500,4.8624736328125,0.002511960919946432,0.00018344284035265446,-0.0005174358375370502
1772048144555425300,4.87242529296875,0.0015077772550284863,-0.0010373748373240232,-0.000027005095034837723
1772048144565377500,4.88237744140625,-0.0004722829908132553,-0.001051223138347268,0.002324832370504737
1772048144575329500,4.89232958984375,0.00020582834258675575,-0.00037545408122241497,-0.0007832124829292297
1772048144585281300,4.90228125,-0.0010266825556755066,0.00019499496556818485,-0.0005672303959727287
1772048144595233500,4.912233642578125,0.0016057086177170277,0.0015758189838379622,-0.001516616903245449
1772048144605184500,4.9221845703125,-0.0016201783437281847,0.000810692785307765,0.000009374693036079407
1772048144615136500,4.932136474609375,0.0005764877423644066,-0.00031500053592026234,0.001463225344195962
1772048144625088500,4.942088623046875,-0.001978549174964428,0.00031323940493166447,-0.0016955500468611717
1772048144635040500,4.95204052734375,0.00031916284933686256,0.0009581958875060081,0.001101410947740078
1772048144644992300,4.9619921875,-0.0009588883258402348,-0.00179018615745008,0.00111392792314291
1772048144654944500,4.971944580078125,0.0036742924712598324,-0.0015041586011648178,0.002194503787904978
1772048144664896500,4.981896484375,-0.001819009892642498,-0.0010903035290539265,0.001374516636133194
1772048144674847500,4.991847412109375,0.0008069099858403206,0.0008450215682387352,-0.0009984569624066353
1772048144684799500,5.001799560546875,-0.0009989796672016382,0.0006767096929252148,0.0011403276585042477
1772048144694751500,5.01175146484375,-0.0013225674629211426,-0.003854467300698161,-0.000815823208540678
1772048144704703500,5.021703369140625,0.0029555344954133034,-0.0013026262167841196,0.0009756856597959995
1772048144714655500,5.031655517578125,-0.00035950634628534317,-0.0004161163233220577,0.0007577892392873764
1772048144724607500,5.041607421875,0.000043163541704416275,0.0017341200727969408,-0.0007237270474433899
1772048144734559500,5.0515595703125,-0.0022776664700359106,0.0003826604224741459,-0.0007588034495711327
1772048144744511500,5.061511474609375,0.00009600911289453506,0.0036429022438824177,-0.0012661358341574669
1772048144754462500,5.07146240234375,0.0014368193224072456,0.002033728174865246,0.0004990226589143276
1772048144764414500,5.08141455078125,0.00002427864819765091,-0.0011511461343616247,-0.00012176018208265305
1772048144774366500,5.091366455078125,-0.0018434268422424793,-0.0008127239998430014,-0.000007685273885726929
1772048144784318500,5.101318359375,0.001318278256803751,-0.00040339608676731586,-0.00039996905252337456
1772048144794270500,5.1112705078125,-0.0018517482094466686,-0.0005231392569839954,0.000626829918473959
1772048144804222500,5.121222412109375,0.0016452483832836151,-0.002813990693539381,-0.002609177026897669
1772048144814174500,5.131174560546875,0.001577502116560936,0.001320044742897153,0.001270262524485588
1772048144824126500,5.14112646484375,0.001558859832584858,-0.00009968644008040428,-0.0004789019003510475
1772048144834077400,5.151077392578125,-0.0015262195374816656,-0.002245028270408511,-0.002406877465546131
1772048144844029400,5.161029541015625,-0.000053491443395614624,0.001961434492841363,-0.00026463065296411514
1772048144853981400,5.1709814453125,0.0018117683939635754,-0.0008196097332984209,-0.0010550101287662983
1772048144863933400,5.180933349609375,-0.0014535333029925823,-0.001328007085248828,0.0011546146124601364
1772048144873885400,5.190885498046875,0.0007168804295361042,-0.0005774269811809063,-0.0007668775506317616
1772048144883837400,5.20083740234375,-0.0018208459950983524,0.0014047638978809118,0.0011631152592599392
1772048144893789400,5.21078955078125,-0.00143281533382833,0.0015824506990611553,-0.0005828817375004292
1772048144903740400,5.220740478515625,0.0008146264590322971,0.0019033616408705711,0.0023362089414149523
1772048144913692400,5.2306923828125,-0.0011019178200513124,0.0016227529849857092,-0.0003702780231833458
1772048144923644400,5.24064453125,0.00046881474554538727,0.0016629666788503528,-0.001178015023469925
1772048144933596400,5.250596435546875,-0.00010764878243207932,0.0005512095522135496,-0.0012801080010831356
1772048144943548400,5.26054833984375,-0.0005481354892253876,0.00009447755292057991,0.00015080813318490982
1772048144953500400,5.27050048828125,-0.0018626735545694828,-0.0001871488057076931,-0.0009987587109208107
1772048144963452700,5.28045263671875,-0.0012248463463038206,-0.003983750939369202,-0.00005759764462709427
1772048144973404400,5.290404296875,-0.0016673640348017216,0.0008866854477673769,0.0005299211479723454
1772048144983355600,5.300355712890625,-0.00014749797992408276,0.001048073172569275,-0.0011340221390128136
1772048144993307400,5.310307373046875,0.00006621936336159706,0.002853317651897669,0.00036303745582699776
1772048145003259400,5.32025927734375,-0.0029551370535045862,-0.00040585873648524284,-0.000007940921932458878
1772048145013211400,5.33021142578125,0.0000601867213845253,-0.00006890296936035156,-0.0013320716097950935
1772048145023163600,5.34016357421875,0.0005555343814194202,-0.003147250972688198,-0.0015688263811171055
1772048145033115400,5.350115478515625,0.0029815095476806164,-0.0021666246466338634,-0.0010757907293736935
1772048145043067400,5.3600673828125,0.002026233822107315,0.00023714452981948853,-0.0008997553959488869
1772048145053019600,5.37001953125,-0.0014456617645919323,0.0007381103932857513,0.0016865134239196777
1772048145062970400,5.379970458984375,0.0023216460831463337,0.0001796456053853035,0.002055893884971738
1772048145072922400,5.38992236328125,0.00023085856810212135,0.0015973837580531836,-0.00007112231105566025
1772048145082874600,5.39987451171875,-0.00022187898866832256,0.0008213385008275509,0.0018199884798377752
1772048145092826400,5.409826416015625,-0.00010136887431144714,-0.0007389697711914778,0.0010307892225682735
1772048145102778400,5.4197783203125,-0.0010686288587749004,-0.003105721203610301,0.0001026778481900692
1772048145112730600,5.429730712890625,-0.0006507912185043097,0.0027997433207929134,0.001396632520481944
1772048145122682400,5.439682373046875,0.0015146252699196339,-0.0002405212726444006,0.0011992924846708775
1772048145132634400,5.44963427734375,0.0009924895130097866,-0.0007795551791787148,0.0005367593839764595
1772048145142585600,5.459585693359375,0.000855602789670229,-0.002035235520452261,0.000733034685254097
1772048145152537300,5.469537353515625,-0.0006029421929270029,0.0010987501591444016,0.00011271191760897636
1772048145162489300,5.4794892578125,0.0003896178677678108,-0.0018203405197709799,-0.0004380298778414726
1772048145172441600,5.489441650390625,0.0005910894833505154,-0.002190069295465946,-0.000001426786184310913
1772048145182393300,5.499393310546875,-0.0004158515948802233,0.00038920226506888866,0.001375427469611168
1772048145192345300,5.509345458984375,0.0005341493524610996,-0.0006724430713802576,0.0010511376895010471
1772048145202297300,5.51929736328125,-0.0005843783728778362,-0.00023781508207321167,-0.0021742163226008415
1772048145212248300,5.529248291015625,-0.0005233883857727051,-0.0011743749491870403,0.0009683044627308846
1772048145222200300,5.539200439453125,0.0006622509099543095,0.0006051494274288416,0.0015776355285197496
1772048145232152600,5.549152587890625,0.00017079152166843414,-0.0003908162470906973,0.0016011286061257124
1772048145242104600,5.5591044921875,-0.00017914758063852787,-0.0007423537317663431,0.0020088586024940014
1772048145252056300,5.569056396484375,-0.001721212174743414,-0.0020214084070175886,-0.00008912011981010437
1772048145262008300,5.57900830078125,0.00020212261006236076,-0.0006032751407474279,-0.000736800953745842
1772048145271960600,5.588960693359375,-0.00021747569553554058,-0.000004019355401396751,-0.00025120051577687263
1772048145281912300,5.598912353515625,-0.0010353324469178915,0.0009267553687095642,-0.0012749196030199528
1772048145291863600,5.608863525390625,-0.0005877967923879623,-0.0016457284800708294,-0.0008858842775225639
1772048145301815600,5.618815673828125,-0.001050920458510518,-0.001201246865093708,0.0003314465284347534
1772048145311767300,5.628767333984375,-0.0010093154851347208,-0.0005752702709287405,0.0010286946780979633
1772048145321719300,5.63871923828125,0.0011446494609117508,-0.0010037727188318968,-0.000037635210901498795
1772048145331671600,5.648671630859375,-0.0034064287319779396,0.0010599594097584486,0.0005859746597707272
1772048145341623300,5.658623291015625,-0.0007571161258965731,0.0014730158727616072,-0.000668640248477459
1772048145351575300,5.6685751953125,-0.0028568506240844727,-0.0014668861404061317,0.0013356513809412718
1772048145361527600,5.678527587890625,0.0024417745880782604,-0.00001812633126974106,-0.0004406771622598171
1772048145371478300,5.688478271484375,-0.0009328897576779127,0.0005533581133931875,0.0015710059087723494
1772048145381430300,5.69843017578125,0.00140856159850955,0.0014431204181164503,-0.0013531451113522053
1772048145391382500,5.708382568359375,0.00040521007031202316,-0.0004979749210178852,0.0010522766970098019
1772048145401334500,5.71833447265625,-0.0002906741574406624,0.00004158145748078823,0.00046265264973044395
1772048145411286300,5.728286376953125,0.0011483384296298027,-0.000853770412504673,0.00007592234760522842
1772048145421238500,5.738238525390625,0.0002939961850643158,-0.003020518459379673,0.0012791387271136045
1772048145431190500,5.7481904296875,-0.0007208073511719704,0.0013988022692501545,0.003649571444839239
1772048145441142300,5.758142333984375,-0.00014796131290495396,-0.0007495696190744638,-0.00009989272803068161
1772048145451093500,5.768093505859375,-0.00024160160683095455,-0.001185127766802907,0.00007372768595814705
1772048145461045500,5.77804541015625,0.0001179249957203865,-0.00010841176845133305,-0.0009294850751757622
1772048145470997200,5.787997314453125,-0.0010927706025540829,-0.0010936332400888205,-0.0015356889925897121
1772048145480949500,5.797949462890625,-0.0001558705698698759,-0.002510967431589961,-0.0007516541518270969
1772048145490901500,5.807901611328125,-0.0013764554169028997,0.0002807218115776777,-0.001030992716550827
1772048145500853500,5.817853515625,0.0016086818650364876,0.0014575726818293333,-0.0014208797365427017
1772048145510805200,5.82780517578125,-0.00013700895942747593,-0.0007820539176464081,-0.0013083838857710361
1772048145520757500,5.837757568359375,-0.000892281299456954,0.000950598856434226,-0.0009336774237453938
1772048145530708200,5.847708251953125,0.002219986170530319,0.001491697272285819,-0.00018721353262662888
1772048145540660500,5.857660400390625,-0.0007038984913378954,-0.0014625473413616419,-0.0005012000910937786
1772048145550612500,5.867612548828125,-0.0007882139179855585,-0.0008884207345545292,-0.0021647722460329533
1772048145560564500,5.877564453125,-0.0008476024959236383,0.0005145322065800428,-0.004622603300958872
1772048145570516200,5.88751611328125,-0.0027028140611946583,-0.0013699026312679052,-0.0009255236946046352
1772048145580468500,5.897468505859375,0.0013707568868994713,-0.0007981217931956053,-0.0009058164432644844
1772048145590420500,5.90742041015625,-0.0003360593691468239,0.0006434316746890545,-0.00099598104134202
1772048145600372200,5.917372314453125,-0.00008385814726352692,-0.0018175954464823008,0.0012360140681266785
1772048145610323500,5.927323486328125,0.00007665622979402542,-0.0020826358813792467,-0.0011991579085588455
1772048145620275500,5.937275390625,0.0011730799451470375,-0.0015872877556830645,-0.0012399046681821346
1772048145630227200,5.947227294921875,0.0008844267576932907,0.0009639097843319178,0.001032837200909853
1772048145640179500,5.957179443359375,-0.001845579594373703,0.0004696270916610956,0.0008101970888674259
1772048145650131500,5.96713134765625,0.0008576973341405392,-0.00019923574291169643,-0.0005590906366705894
1772048145660083500,5.97708349609375,-0.0033650107216089964,-0.0021641161292791367,0.00021668802946805954
1772048145670035500,5.987035400390625,-0.0033600805327296257,-0.0006875747349113226,0.0002497783862054348
1772048145679987500,5.996987548828125,0.0027263076044619083,-0.0013043626677244902,-0.00009190523996949196
1772048145689938400,6.0069384765625,-0.0019461761694401503,-0.0024992418475449085,-0.0019156434573233128
1772048145699890400,6.016890380859375,-0.0007967560086399317,0.0019040284678339958,0.0013310164213180542
1772048145709842400,6.026842529296875,-0.001112579833716154,0.0009180784691125154,0.000586269423365593
1772048145719794400,6.03679443359375,0.0006224694661796093,-0.0022441588807851076,-0.0019408040679991245
1772048145729746400,6.046746337890625,-0.000315613579005003,-0.0026473207399249077,-0.002316996455192566
1772048145739698400,6.056698486328125,-0.00017766188830137253,-0.0018385183066129684,-0.001210719347000122
1772048145749650400,6.066650390625,-0.000608119647949934,-0.0033131169620901346,0.0013550692237913609
1772048145759602400,6.0766025390625,-0.0006451376248151064,-0.0015897855628281832,0.0012618587352335453
1772048145769554400,6.086554443359375,0.0004276665858924389,-0.001026000129058957,-0.0006542042829096317
1772048145779505400,6.09650537109375,-0.0007547768764197826,-0.0010118854697793722,-0.0017082835547626019
1772048145789457400,6.10645751953125,0.00006581936031579971,-0.0014812464360147715,-0.0013040127232670784
1772048145799409400,6.116409423828125,0.00003732368350028992,0.00004075001925230026,0.00013223011046648026
1772048145809361400,6.126361328125,-0.0019695903174579144,-0.0009645884856581688,0.0010110978037118912
1772048145819313400,6.1363134765625,-0.0001786143984645605,0.001871944172307849,0.002105390653014183
1772048145829265400,6.146265380859375,-0.0006662055384367704,0.0016794600524008274,-0.00014391588047146797
1772048145839217400,6.156217529296875,0.0007679066620767117,-0.0014652006793767214,0.0021160426549613476
1772048145849169400,6.16616943359375,0.0014706254005432129,0.00034267036244273186,0.0014952400233596563
1772048145859120400,6.176120361328125,0.00034011341631412506,-0.0006805162411183119,-0.00016204500570893288
1772048145869072400,6.186072265625,-0.0011601587757468224,-0.0010360898450016975,0.0007245289161801338
1772048145879024400,6.1960244140625,0.0006787539459764957,-0.0020137359388172626,-0.0019346377812325954
1772048145888976400,6.205976318359375,-0.00024290126748383045,0.0018262449884787202,0.000820530578494072
1772048145898928400,6.215928466796875,-0.0011166844051331282,-0.002575427759438753,-0.0012444844469428062
1772048145908880400,6.22588037109375,0.00008535012602806091,0.00159266940318048,-0.0005880948156118393
1772048145918832400,6.235832275390625,0.000578833743929863,-0.00037460774183273315,0.0006492100656032562
1772048145928784400,6.245784423828125,-0.0003255307674407959,-0.004037434235215187,-0.0002709939144551754
1772048145938735400,6.2557353515625,-0.0005481711123138666,-0.001753774005919695,-0.0014814003370702267
1772048145948687400,6.265687255859375,0.0018689963035285473,0.0003583200741559267,-0.00043221190571784973
1772048145958639400,6.275639404296875,-0.00021759024821221828,0.0006241037044674158,0.00018670689314603806
1772048145968591400,6.28559130859375,-0.0023969707544893026,-0.0004767170175909996,-0.00003581307828426361
1772048145978543600,6.295543701171875,0.0005974876694381237,-0.0018841973505914211,0.0011860453523695469
1772048145988495400,6.305495361328125,-0.0009031242225319147,-0.0006459171418100595,0.0007619601674377918
1772048145998447400,6.315447265625,-0.0007662377320230007,-0.0008579047862440348,-0.00043619563803076744
1772048146008399400,6.3253994140625,0.00008228188380599022,-0.000772351399064064,-0.0012761345133185387
1772048146018350300,6.335350341796875,0.0016234535723924637,0.0015131733380258083,-0.00016479706391692162
1772048146028302300,6.34530224609375,0.0005226745270192623,-0.0002686711959540844,0.001123569905757904
1772048146038254600,6.355254638671875,0.0007807346992194653,0.0012842179276049137,-0.0005097468383610249
1772048146048206300,6.365206298828125,0.003000794444233179,-0.0018989569507539272,0.00031463801860809326
1772048146058158300,6.375158447265625,0.0004707914777100086,0.00014608423225581646,-0.0016228118911385536
1772048146068110600,6.385110595703125,0.000500362366437912,-0.001490643247961998,0.0015087448991835117
1772048146078062600,6.3950625,-0.0006578466854989529,-0.00030180811882019043,0.0005002059042453766
1772048146088014300,6.405014404296875,0.0002971263602375984,0.0008197573479264975,-0.000509435310959816
1772048146097966300,6.41496630859375,0.0007298900745809078,-0.0008215485140681267,0.000555562786757946
1772048146107917800,6.424917724609375,-0.0009095240384340286,-0.0002882457338273525,0.001459493301808834
1772048146117869600,6.43486962890625,-0.00007915031164884567,-0.0013665594160556793,-0.0016026091761887074
1772048146127821600,6.444821533203125,-0.0004215105436742306,-0.0014319440815597773,-0.0002538575790822506
1772048146137773800,6.45477392578125,-0.00042417366057634354,0.0030208611860871315,0.0007746550254523754
1772048146147725600,6.4647255859375,0.0005794134922325611,-0.0015669381245970726,-0.0018198802135884762
1772048146157677600,6.474677490234375,0.0010555866174399853,0.0009838375262916088,0.0012632613070309162
1772048146167629800,6.4846298828125,0.0035382378846406937,-0.002238357439637184,-0.000718369148671627
1772048146177581800,6.494581787109375,-0.0010586443822830915,-0.0027635330334305763,-0.0016475459560751915
1772048146187532500,6.504532470703125,-0.0009827320463955402,-0.0035360141191631556,0.001245125662535429
1772048146197484800,6.51448486328125,0.0006841407157480717,0.0018329184968024492,-0.0013493257574737072
1772048146207436500,6.5244365234375,-0.0007432110141962767,-0.0011766701936721802,-0.0007233191281557083
1772048146217388500,6.534388427734375,0.00026665953919291496,-0.0007494990713894367,0.0023547622840851545
1772048146227340800,6.5443408203125,-0.0007981755770742893,-0.0027806079015135765,0.0009217038750648499
1772048146237292800,6.554292724609375,-0.0002687391825020313,-0.00104236276820302,0.0004444653168320656
1772048146247244500,6.56424462890625,0.0017500966787338257,-0.0007173563353717327,0.0007472936995327473
1772048146257196500,6.574196533203125,-0.0008110655471682549,-0.003824466373771429,0.0011635455302894115
1772048146267148800,6.584148681640625,0.0002864748239517212,0.0017360314959660172,-0.001583919394761324
1772048146277099500,6.594099609375,-0.001148436451330781,-0.0009532284457236528,-0.0008840407244861126
1772048146287051800,6.6040517578125,0.0008028331212699413,-0.0015911886002868414,0.0006930455565452576
1772048146297003800,6.614003662109375,-0.0009679028298705816,0.0016272414941340685,0.0005012978799641132
1772048146306955500,6.62395556640625,-0.0022738920524716377,0.0008053923957049847,0.0012838011607527733
1772048146316907500,6.633907470703125,-0.0011915834620594978,-0.00211875862441957,-0.0018091942183673382
1772048146326859800,6.64385986328125,-0.002204481977969408,-0.0002933517098426819,0.00002430751919746399
1772048146336811800,6.653811767578125,0.002790276426821947,0.0009953519329428673,0.0009417664259672165
1772048146346763500,6.663763427734375,0.0008012992329895496,0.0001802239567041397,0.0005609444342553616
1772048146356714800,6.67371484375,0.0005448367446660995,-0.0017076910007745028,-0.002467069309204817
1772048146366666500,6.68366650390625,0.002239687368273735,0.0011454294435679913,-0.0007766196504235268
1772048146376618500,6.693618408203125,-0.003282110905274749,-0.0005842936225235462,-0.0019358936697244644
1772048146386570800,6.70357080078125,0.00034738006070256233,0.003194414544850588,0.0008060759864747524
1772048146396522800,6.713522705078125,0.00047601107507944107,-0.0015558656305074692,0.0005562715232372284
1772048146406474500,6.723474609375,0.001607729122042656,0.002119288546964526,0.00034697679802775383
1772048146416426800,6.7334267578125,0.00030011730268597603,0.0023547119926661253,0.0005208812654018402
1772048146426378800,6.743378662109375,0.000548449344933033,0.0003137919120490551,-0.00034227827563881874
1772048146436330500,6.75333056640625,-0.0003391825594007969,-0.0015916996635496616,-0.0022160783410072327
1772048146446281700,6.76328173828125,-0.0003616225440055132,-0.00006440328434109688,0.002688924316316843
1772048146456233700,6.773233642578125,-0.0005533702205866575,0.002928989939391613,-0.0016323206946253777
1772048146466185500,6.783185546875,0.0018249196000397205,-0.0007539195939898491,-0.001256356481462717
1772048146476137700,6.7931376953125,-0.0029173714574426413,-0.0036234757862985134,-0.0008283862844109535
1772048146486089700,6.80308984375,0.0000841161236166954,0.0022955709137022495,0.002485074335709214
1772048146496041700,6.813041748046875,-0.0012171042617410421,0.0009807681199163198,0.0017942504491657019
1772048146505993700,6.82299365234375,-0.001185898669064045,-0.0004482793156057596,0.0002697133459150791
1772048146515945700,6.83294580078125,0.0004836372099816799,0.0006257733330130577,-0.00007836194708943367
1772048146525897700,6.842897705078125,-0.0018218057230114937,0.0001724830362945795,-0.0006970674730837345
1772048146535848700,6.8528486328125,0.0010381629690527916,-0.0014914600178599358,0.00008164066821336746
1772048146545800700,6.86280078125,-0.003341132774949074,0.00010729278437793255,-0.0004084566608071327
1772048146555752700,6.872752685546875,0.0009036795236170292,0.0026788413524627686,0.001265073660761118
1772048146565704700,6.88270458984375,-0.001983555033802986,-0.0008075102232396603,-0.002422589808702469
1772048146575656700,6.89265673828125,0.0005025058053433895,0.00025349296629428864,-0.0009964671917259693
1772048146585608700,6.902608642578125,0.0021648379042744637,-0.000586578156799078,0.00017846841365098953
1772048146595560700,6.912560791015625,-0.00010444177314639091,-0.0022830115631222725,-0.001524356659501791
1772048146605512700,6.9225126953125,0.0003992253914475441,-0.0014379990752786398,0.001487988280132413
1772048146615463700,6.932463623046875,0.0003736591897904873,0.0012054548133164644,0.0021535123232752085
1772048146625415700,6.942415771484375,0.0025471854023635387,-0.0019947513937950134,0.0023691176902502775
1772048146635367700,6.95236767578125,-0.0001673747319728136,0.0005293926224112511,0.0012591122649610043
1772048146645319700,6.962319580078125,0.0005147191695868969,-0.0010309165809303522,-0.0022073625586926937
1772048146655271700,6.972271728515625,0.0024311295710504055,-0.0007576763164252043,-0.001086438074707985
1772048146665223700,6.9822236328125,-0.0022416100837290287,0.00037233810871839523,0.00044296402484178543
1772048146675175700,6.99217578125,-0.00013718055561184883,0.0021569225937128067,0.0010080868378281593
1772048146685127700,7.002127685546875,0.00015573902055621147,-0.00005824770778417587,-0.0007619690150022507
1772048146695079700,7.01207958984375,0.0011259284801781178,0.000625652028247714,0.0024601896293461323
1772048146705031700,7.02203173828125,0.0015152008272707462,-0.001865300117060542,-0.00007631909102201462
1772048146714982700,7.031982666015625,-0.000842495821416378,0.0017613924574106932,-0.00001719733700156212
1772048146724934700,7.0419345703125,0.0009951922111213207,0.0029427516274154186,0.0023799301125109196
1772048146734886700,7.05188671875,0.00005349889397621155,0.0006732058245688677,0.002105358289554715
1772048146744838700,7.061838623046875,-0.00012795906513929367,0.0005369160789996386,0.0023788860999047756
1772048146754790700,7.071790771484375,0.0036289626732468605,-0.001995750004425645,0.00024702586233615875
1772048146764742700,7.08174267578125,0.0014221472665667534,0.00012183794751763344,0.0011325902305543423
1772048146774694700,7.091694580078125,-0.0001840053591877222,-0.00026591820642352104,0.00011419737711548805
1772048146784646700,7.101646728515625,-0.00013682665303349495,0.0008863511029630899,0.0006449422799050808
1772048146794597600,7.11159765625,-0.00048623327165842056,0.0010006006341427565,0.00039726821705698967
1772048146804549600,7.121549560546875,0.0004929001443088055,-0.0010980190709233284,0.00023714639246463776
1772048146814502000,7.131501953125,-0.0007433390710502863,-0.0018706023693084717,-0.002163160592317581
1772048146824453600,7.14145361328125,-0.0014421106316149235,-0.0007335504051297903,0.0011100051924586296
1772048146834405600,7.151405517578125,0.003271418157964945,-0.001586294500157237,-0.00030067097395658493
1772048146844357600,7.161357666015625,0.0004242029972374439,-0.001369653968140483,-0.0016350834630429745
1772048146854309600,7.1713095703125,0.00035629235208034515,0.0005906990263611078,-0.0009844731539487839
1772048146864261600,7.18126171875,-0.0015902218874543905,0.0004277289845049381,0.0012678778730332851
1772048146874213600,7.191213623046875,0.0004316498525440693,-0.0018631222192198038,0.0001637311652302742
1772048146884166000,7.201165771484375,-0.0004916691686958075,0.0005763943772763014,-0.0010055052116513252
1772048146894116600,7.21111669921875,-0.0002983235754072666,0.0002498908434063196,-0.0016164346598088741
1772048146904068600,7.221068603515625,0.0018668570555746555,-0.00014025135897099972,-0.0015138546004891396
1772048146914020900,7.231020751953125,-0.0010136179625988007,-0.0003359937109053135,0.0009250682778656483
1772048146923972600,7.24097265625,-0.0011473186314105988,0.0014724915381520987,-0.0012771072797477245
1772048146933924600,7.250924560546875,-0.003028841922059655,-0.004479939583688974,0.00041692936792969704
1772048146943876900,7.260876953125,-0.0012662597000598907,-0.002318033017218113,-0.0006445897743105888
1772048146953828600,7.27082861328125,-0.0021467008627951145,-0.0013379896990954876,0.0018446668982505798
1772048146963780600,7.280780517578125,-0.0005800384096801281,-0.002517853630706668,-0.0022149626165628433
1772048146973732600,7.290732666015625,0.0007813693955540657,0.0005586300976574421,0.00025618448853492737
1772048146983683600,7.30068359375,-0.0013169702142477036,-0.0008888542652130127,0.001100937370210886
1772048146993635600,7.310635498046875,-0.0007097695488482714,0.00037082075141370296,0.001191751565784216
1772048147003587800,7.320587890625,0.00004546577110886574,-0.005425681360065937,-0.0016013351269066334
1772048147013539600,7.33053955078125,-0.0010272555518895388,-0.0030330976005643606,-0.0025835083797574043
1772048147023491600,7.34049169921875,-0.0003678442444652319,-0.0026224921457469463,0.0008984231390058994
1772048147033443600,7.350443603515625,-0.0004738380666822195,-0.0011476334184408188,-0.0015255860053002834
1772048147043395800,7.360395751953125,-0.0007141504902392626,-0.001884956145659089,-0.0004946961998939514
1772048147053347600,7.37034765625,-0.00043185544200241566,-0.002409599022939801,0.0007969369180500507
1772048147063299600,7.380299560546875,0.0006326469592750072,-0.0009329959284514189,-0.002997226547449827
1772048147073250800,7.390250732421875,0.0000651269219815731,-0.0012797398958355188,-0.0012928033247590065
1772048147083202600,7.40020263671875,-0.002112126676365733,-0.0003484482876956463,-0.0005861492827534676
1772048147093154600,7.410154541015625,-0.002235963474959135,-0.0023663253523409367,-0.0005608489736914635
1772048147103106800,7.42010693359375,-0.0007354589179158211,-0.0005400616209954023,0.001141897402703762
1772048147113059300,7.430059326171875,-0.0018534541595727205,-0.001197596313431859,-0.0016022236086428165
1772048147123011000,7.440010986328125,0.0006048073992133141,0.001697481144219637,0.002374928444623947
1772048147132963000,7.449963134765625,0.0001012035645544529,-0.0004887075629085302,-0.00047012651339173317
1772048147142915300,7.459915283203125,-0.0005624168552458286,-0.0021435758098959923,0.0000950363464653492
1772048147152867300,7.469867431640625,-0.0013714851811528206,-0.00032250629737973213,0.0014021156821399927
1772048147162818300,7.479818359375,-0.0033259401097893715,0.0013739399146288633,-0.00013107014819979668
1772048147172770300,7.489770263671875,0.0011260663159191608,0.0006247926503419876,0.000511284451931715
1772048147182722300,7.499722412109375,-0.0003968020901083946,0.0006825982127338648,0.0005597919225692749
1772048147192674000,7.509674072265625,0.0011603482998907566,0.0014162990264594555,0.0028067007660865784
1772048147202626300,7.519626220703125,0.0006256662309169769,0.0002696563024073839,-0.0009067468345165253
1772048147212578300,7.529578369140625,0.000951637513935566,-0.0022198667284101248,0.00045066652819514275
1772048147222530000,7.539530029296875,0.0004377742297947407,-0.0007693336810916662,0.002393315779045224
1772048147232482300,7.549482421875,0.001392517238855362,0.00032309512607753277,0.00046891579404473305
1772048147242434300,7.559434326171875,0.0014708591625094414,0.0010934211313724518,0.0011499705724418163
1772048147252385000,7.569385009765625,-0.0016255981754511595,-0.0011833151802420616,0.00023197894915938377
1772048147262337300,7.579337158203125,0.0011166520416736603,-0.000012310920283198357,-0.0006980267353355885
1772048147272289300,7.589289306640625,-0.001976076979190111,0.0008902344852685928,-0.00030387891456484795
1772048147282241000,7.599240966796875,0.0002935677766799927,-0.0020549618639051914,-0.0012497911229729652
1772048147292193300,7.609193359375,0.0008211401291191578,-0.00033935345709323883,0.00023465463891625404
1772048147302145300,7.619145263671875,0.0006032469682395458,0.001391395227983594,0.00009497813880443573
1772048147312097300,7.62909716796875,0.0011358791962265968,0.0008867261931300163,0.0016044576186686754
1772048147322049000,7.639049072265625,-0.0007634158246219158,-0.0009449594654142857,-0.00024870410561561584
1772048147332001300,7.649001220703125,-0.0010731415823101997,0.0007006078958511353,-0.0019744327291846275
1772048147341953300,7.658953369140625,0.000797884538769722,0.00320796063169837,0.0008384408429265022
1772048147351904300,7.668904296875,0.0003070640377700329,-0.0012831941712647676,-0.0023445691913366318
1772048147361856300,7.678856201171875,0.0019376403652131557,-0.0016816616989672184,0.0008220472373068333
1772048147371808300,7.688808349609375,0.00003401283174753189,0.0007657832466065884,-0.0016014296561479568
1772048147381760000,7.698760009765625,-0.0028827486094087362,0.0007549249567091465,0.00007215654477477074
1772048147391712300,7.708712158203125,0.001191355288028717,0.0020713256672024727,-0.001104162074625492
1772048147401664300,7.718664306640625,-0.0014398116618394852,-0.0008525382727384567,0.0024068003986030817
1772048147411616300,7.7286162109375,-0.0015101190656423569,-0.002640318125486374,-0.0003399839624762535
1772048147421568300,7.738568359375,-0.0009521655738353729,0.000040279701352119446,0.0007564788684248924
1772048147431520300,7.748520263671875,0.0019272440113127232,0.0005201813764870167,0.0005016145296394825
1772048147441472300,7.75847216796875,0.0001636166125535965,0.0014517572708427906,0.0017178789712488651
1772048147451423200,7.76842333984375,-0.0008451887406408787,-0.0020178090780973434,0.0033045904710888863
1772048147461375200,7.778375244140625,-0.00008165091276168823,-0.002378240693360567,-0.0012459098361432552
1772048147471327200,7.7883271484375,-0.0008387877605855465,0.002150997519493103,0.0016478809993714094
1772048147481279200,7.798279296875,-0.00041479128412902355,-0.0011978412512689829,-0.0011734147556126118
1772048147491231200,7.808231201171875,0.0009673894383013248,-0.0015128932427614927,-0.0024906140752136707
1772048147501183200,7.818183349609375,-0.0002773827873170376,0.0003496070858091116,0.0010088956914842129
1772048147511135000,7.828135009765625,0.002522930968552828,-0.0015199319459497929,0.00044430559501051903
1772048147521087200,7.838087158203125,-0.0002896443475037813,-0.001535497372969985,-0.002944646868854761
1772048147531039200,7.848039306640625,-0.0006134847644716501,-0.000506718410179019,-0.0008625872433185577
1772048147540990200,7.857990234375,0.0008171945810317993,0.0011251179967075586,0.0004743938334286213
1772048147550942200,7.867942138671875,-0.0017631424125283957,-0.0019961067009717226,-0.0019216518849134445
1772048147560894200,7.877894287109375,-0.00034533231519162655,0.0000660168007016182,-0.00004419917240738869
1772048147570846200,7.88784619140625,-0.0006310895550996065,-0.0006738095544278622,-0.0014234501868486404
1772048147580798200,7.897798095703125,-0.00028061564080417156,-0.001654244726523757,-0.0024291547015309334
1772048147590750200,7.907750244140625,-0.0003330798353999853,-0.0008640845771878958,-0.004084043204784393
1772048147600702200,7.9177021484375,0.00039097899571061134,0.0019416005816310644,-0.0016015232540667057
1772048147610654200,7.927654296875,0.00259474478662014,-0.0008730941917747259,-0.0002715406008064747
1772048147620606200,7.937606201171875,-0.0003196229226887226,0.0009210340213030577,0.00004401477053761482
1772048147630558200,7.94755810546875,0.002654328942298889,-0.001553841633722186,-0.0011357655748724937
1772048147640509200,7.95750927734375,0.0003632926382124424,-0.0018412626814097166,-0.0001563969999551773
1772048147650461200,7.967461181640625,-0.0005922496784478426,-0.0021155683789402246,-0.0017465702258050442
1772048147660413200,7.9774130859375,0.00271132355555892,0.00032524485141038895,-0.001610967330634594
1772048147670365200,7.987365234375,-0.0007454594597220421,-0.0016822461038827896,0.0008042533881962299
1772048147680317200,7.997317138671875,-0.001244894927367568,-0.0024462647270411253,-0.0000687367282807827
1772048147690269200,8.007269287109375,0.0013460945338010788,-0.00009762286208570004,-0.0012498488649725914
1772048147700221200,8.01722119140625,-0.000280516454949975,-0.001245938241481781,-0.00271851709112525
1772048147710173200,8.027173095703125,0.0018843673169612885,-0.0011135791428387165,0.00098008057102561
1772048147720125200,8.037125244140626,-0.002547244541347027,0.002925189910456538,0.0007523726671934128
1772048147730077200,8.0470771484375,-0.0012082073371857405,0.000565362861379981,-0.0018261000514030457
1772048147740028200,8.057028076171875,-0.0016691789496690035,0.000935317249968648,-0.000507221557199955
1772048147749980200,8.066980224609376,-0.0018771719187498093,0.00002238573506474495,-0.00041214656084775925
1772048147759932200,8.07693212890625,-0.00003507314249873161,-0.003687698394060135,0.00012853462249040604
1772048147769884200,8.08688427734375,-0.0032090283930301666,-0.0011100247502326965,-0.0013359375298023224
1772048147779836200,8.096836181640626,0.0015749474987387657,-0.0018832478672266006,0.002148018917068839
1772048147789788200,8.1067880859375,-0.0024067447520792484,0.000639032106846571,-0.0008331234566867352
1772048147799740400,8.116740478515625,0.0012593893334269524,0.0018108268268406391,0.0023868924472481012
1772048147809692200,8.126692138671874,0.0020207869820296764,0.00037698098458349705,0.0009927274659276009
1772048147819644200,8.13664404296875,-0.0008826521225273609,-0.0008411628659814596,-0.0005527394823729992
1772048147829596200,8.14659619140625,0.0016667922027409077,0.00017403415404260159,0.00031625013798475266
1772048147839547100,8.156547119140624,-0.00022086896933615208,-0.0013690371997654438,0.0002754288725554943
1772048147849499100,8.1664990234375,-0.0005204745102673769,-0.0025450894609093666,0.0010322993621230125
1772048147859451400,8.176451416015626,0.00012430967763066292,0.0005790719296783209,-0.0011402107775211334
1772048147869403100,8.186403076171874,-0.0006104563362896442,-0.0012947283685207367,-0.0005308794789016247
1772048147879355100,8.196355224609375,0.0007619019597768784,-0.0018253396265208721,0.003321947529911995
1772048147889307100,8.20630712890625,-0.0008679528255015612,-0.0002775103785097599,0.0014926223084330559
1772048147899259400,8.21625927734375,-0.0023430390283465385,0.0013488887343555689,-0.0004867478273808956
1772048147909211100,8.226211181640625,0.0024365363642573357,-0.0022258723620325327,-0.002608222421258688
1772048147919163100,8.2361630859375,0.0015765195712447166,-0.00009188707917928696,0.0008884654380381107
1772048147929114000,8.246114013671875,0.002037779428064823,0.0021851155906915665,0.0011334759183228016
1772048147939066000,8.256066162109375,-0.0012254116591066122,-0.0003854483366012573,0.0022160622756928205
1772048147949018000,8.26601806640625,0.0006009843200445175,0.000023347092792391777,-0.00125483563169837
1772048147958970400,8.275970458984375,-0.001097600208595395,0.0019588107243180275,0.00045954762026667595
1772048147968922000,8.285922119140626,0.0013027070090174675,-0.001390114426612854,-0.001359124667942524
1772048147978874000,8.2958740234375,-0.0014227402862161398,-0.00020532775670289993,0.0011740014888346195
1772048147988826400,8.305826416015625,-0.0019103651866316795,-0.00025646016001701355,-0.00022495724260807037
1772048147998778000,8.315778076171876,-0.00023202085867524147,-0.0010728614870458841,-0.0004511945880949497
1772048148008730000,8.325730224609375,-0.0011279082391411066,0.00010665273293852806,-0.001165454275906086
1772048148018682400,8.335682373046875,0.00090355658903718,-0.0006238545756787062,-0.0005820388905704021
1772048148028634400,8.34563427734375,0.00034748855978250504,-0.0005551448557525873,0.002212416147813201
1772048148038585000,8.355585205078125,0.0029665138572454453,0.0021069846116006374,0.0017180484719574451
1772048148048537300,8.365537353515625,-0.0008647097274661064,0.0008683484047651291,0.0008434662595391273
1772048148058489300,8.3754892578125,-0.0006532357074320316,-0.0016860619653016329,0.0027719163335859776
1772048148068441000,8.385441162109375,-0.0016473939176648855,-0.00038750446401536465,-0.003585582133382559
1772048148078393300,8.395393310546876,0.0005561364814639091,0.0014692568220198154,-0.000984744168817997
1772048148088345300,8.405345458984375,-0.0006007407791912556,-0.0008897713851183653,0.00037506595253944397
1772048148098297000,8.415297119140625,0.0006060963496565819,0.002706961240619421,0.00041566556319594383
1772048148108249000,8.4252490234375,-0.0004884630907326937,-0.00006965035572648048,-0.002042964566498995
1772048148118201300,8.435201416015625,-0.0018232297152280807,-0.0012600249610841274,-0.003142174333333969
1772048148128153300,8.4451533203125,0.00024684565141797066,0.000998601783066988,-0.0018175183795392513
1772048148138104300,8.455104248046876,0.0005428344011306763,0.0017231234814971685,-0.0004329816438257694
1772048148148056300,8.465056396484375,0.0005699987523257732,0.0015321748796850443,0.0011236360296607018
1772048148158008300,8.47500830078125,0.001336734276264906,0.0024347633589059114,0.0015459142159670591
1772048148167960300,8.484960205078124,-0.001063572708517313,0.00026375451125204563,0.0015962477773427963
1772048148177912300,8.494912353515625,-0.0000702887773513794,0.00011974829249083996,-0.00040255533531308174
1772048148187864300,8.5048642578125,-0.000020487699657678604,0.0007629017345607281,0.00021476531401276588
1772048148197816300,8.51481640625,0.00032316427677869797,0.003181676845997572,-0.00003362772986292839
1772048148207768300,8.524768310546875,0.0008344915695488453,0.000769119244068861,-0.0007769162766635418
1772048148217720300,8.53472021484375,-0.00023127300664782524,-0.0014743064530193806,-0.0004882495850324631
1772048148227672300,8.54467236328125,-0.001098930835723877,0.0022919359616935253,0.0015557263977825642
1772048148237624300,8.554624267578125,0.0005782628431916237,-0.0021558513399213552,0.0032650339417159557
1772048148247575300,8.5645751953125,-0.00043613510206341743,-0.0001646059099584818,0.00008974689990282059
1772048148257527300,8.57452734375,-0.0016287160106003284,-0.0015610961709171534,0.0009092995896935463
1772048148267479300,8.584479248046875,-0.0022510967683047056,0.0013220419641584158,0.0023463412653654814
1772048148277431300,8.594431396484374,-0.0005493138451129198,-0.0016926501411944628,0.002835111925378442
1772048148287383300,8.60438330078125,-0.0008121680002659559,-0.001126196002587676,-0.0011907885782420635
1772048148297335300,8.614335205078126,0.0019706315360963345,0.0010722202714532614,0.00004647811874747276
1772048148307287300,8.624287353515625,-0.0004917271435260773,0.0013411995023488998,0.0007458245381712914
1772048148317239300,8.6342392578125,-0.0018662209622561932,-0.0013268855400383472,-0.002457734663039446
1772048148327191300,8.64419140625,-0.0006339764222502708,0.0023794355802237988,-0.0008574412204325199
1772048148337143300,8.654143310546875,0.00308273546397686,0.00006788643077015877,-0.002615972887724638
1772048148347094300,8.66409423828125,0.0029849973507225513,-0.00044583738781511784,-0.0012151501141488552
1772048148357046300,8.67404638671875,-0.0024742870591580868,-0.0018530990928411484,-0.0007674251683056355
1772048148366998300,8.683998291015625,0.002339376602321863,0.00036131939850747585,0.001531681977212429
1772048148376950300,8.6939501953125,-0.0008571648504585028,-0.001628037542104721,-0.0002966388128697872
1772048148386902300,8.70390234375,-0.000923477578908205,-0.0016895565204322338,0.0011585126630961895
1772048148396854500,8.7138544921875,-0.0009944969788193703,-0.0018081313464790583,-0.001711432822048664
1772048148406806300,8.72380615234375,-0.001202223589643836,-0.0005785499233752489,0.0011602537706494331
1772048148416758300,8.73375830078125,0.002234420273452997,-0.000680338591337204,0.0011218632571399212
1772048148426710300,8.743710205078125,0.00018298719078302383,-0.0016031237319111824,-0.0006043980829417706
1772048148436662300,8.753662353515624,0.0013646595180034637,-0.00037454417906701565,-0.0014121336862444878
1772048148446614300,8.7636142578125,-0.000049745431169867516,0.000015608733519911766,0.00043902965262532234
1772048148456565500,8.7735654296875,-0.0005904077552258968,0.000970104243606329,0.0008653826080262661
1772048148466517200,8.783517333984374,-0.00008334196172654629,0.0002925961744040251,0.002416141564026475
1772048148476469200,8.79346923828125,0.00023074611090123653,-0.00016376213170588017,-0.0017960327677428722
1772048148486421200,8.803421142578125,-0.00030028820037841797,-0.0012825557496398687,0.0026149610057473183
1772048148496373200,8.813373291015624,-0.000698319636285305,0.0018210220150649548,0.000376090407371521
1772048148506325200,8.8233251953125,0.00029184366576373577,-0.0008312198333442211,-0.00041540106758475304
1772048148516277200,8.83327734375,-0.0001336799468845129,0.0028294064104557037,-0.0003612409345805645
1772048148526229500,8.8432294921875,0.0010399750899523497,0.0009492149110883474,-0.005732836667448282
1772048148536181200,8.85318115234375,-0.0008682406041771173,0.00029906840063631535,0.00048166606575250626
1772048148546133200,8.86313330078125,0.0002942292485386133,0.0014713918790221214,0.0008475841023027897
1772048148556085200,8.873085205078125,0.0002935968805104494,-0.0013453953433781862,-0.0008810828439891338
1772048148566036200,8.8830361328125,-0.001261689467355609,0.0009760821703821421,-0.00009252084419131279
1772048148575988200,8.89298828125,-0.003151278244331479,-0.0014322430361062288,-0.00010223453864455223
1772048148585940500,8.9029404296875,0.00021149520762264729,-0.0019100143108516932,0.00048818858340382576
1772048148595892200,8.912892333984376,-0.001648034667596221,0.0021368772722780704,0.00005448935553431511
1772048148605844200,8.92284423828125,0.0004353560507297516,0.0016905313823372126,0.002058517886325717
1772048148615796200,8.932796142578125,0.0008935618679970503,0.0008918868843466043,0.0004817824810743332
1772048148625748500,8.94274853515625,0.003079750807955861,-0.0013715338427573442,0.0008905776776373386
1772048148635700200,8.9527001953125,-0.0010021592024713755,0.0023862046655267477,0.0008616778068244457
1772048148645652200,8.96265234375,-0.0019182867836207151,0.0000615313183516264,0.0004278486594557762
1772048148655604500,8.9726044921875,0.0017974285874515772,-0.001251723850145936,0.0012802169658243656
1772048148665555200,8.98255517578125,0.0006237730849534273,0.0018993285484611988,-0.0011238185688853264
1772048148675507200,8.992507080078125,-0.00023864442482590675,0.0016560980584472418,0.0004757409915328026
1772048148685459500,9.00245947265625,0.002435435773804784,-0.0028811292722821236,0.00013778544962406158
1772048148695411200,9.0124111328125,-0.0007625054568052292,-0.0019966764375567436,0.0017507232259958982
1772048148705363200,9.02236328125,-0.001464514760300517,0.0019173716427758336,0.003106804797425866
1772048148715315500,9.0323154296875,-0.0003773369826376438,0.00016940105706453323,0.001058005727827549
1772048148725267500,9.042267333984375,0.0006024397443979979,-0.0003914607223123312,-0.0010357717983424664
1772048148735219200,9.05221923828125,0.002781500807031989,0.00040954467840492725,0.0005375705659389496
1772048148745171200,9.062171142578125,0.0008738788310438395,-0.002215799642726779,0.0015144178178161383
1772048148755123500,9.07212353515625,0.0028037556912750006,-0.0003267028369009495,-0.0016601667739450932
1772048148765075200,9.0820751953125,0.0008071840275079012,-0.0009717205539345741,-0.0008558924309909344
1772048148775027200,9.092027099609375,0.0013867500238120556,-0.0021847907919436693,0.00007669534534215927
1772048148784978400,9.101978515625,-0.0018135705031454563,-0.0002417487557977438,-0.0002466123551130295
1772048148794930200,9.11193017578125,-0.0016502137295901775,0.0010385343339294195,-0.0007225163280963898
1772048148804882200,9.121882080078125,0.0020097685046494007,-0.000025398563593626022,0.00040879426524043083
1772048148814834400,9.13183447265625,-0.00014632637612521648,0.00012702145613729954,-0.0030529415234923363
1772048148824786200,9.1417861328125,0.0013208091259002686,0.0003158396575599909,0.0001034364104270935
1772048148834738200,9.15173828125,0.0018065497279167175,-0.0027401214465498924,-0.000688429456204176
1772048148844690400,9.1616904296875,0.0006579281762242317,-0.0008287709206342697,0.0009153261780738831
1772048148854642400,9.171642333984375,-0.0010178608354181051,0.0016898452304303646,0.0012251697480678558
1772048148864594200,9.18159423828125,-0.0017459690570831299,-0.0018260602373629808,0.00025284988805651665
1772048148874546200,9.191546142578124,0.0005720495246350765,-0.00003353389911353588,-0.000403835903853178
1772048148884498400,9.20149853515625,0.00025140494108200073,-0.0011478003580123186,0.002469714730978012
1772048148894449200,9.21144921875,0.0006241453811526299,-0.000305678928270936,0.0021484731696546078
1772048148904401400,9.2214013671875,0.000008422881364822388,-0.0012164798099547625,-0.002614589873701334
1772048148914353400,9.231353515625,0.0006820103153586388,0.0008754683658480644,-0.0008550281636416912
1772048148924305200,9.24130517578125,0.001591745764017105,0.0012208803091198206,0.0005063801072537899
1772048148934257200,9.251257080078124,0.0025114337913691998,0.0011189712677150965,-0.0005432483740150928
1772048148944209400,9.26120947265625,-0.0016380376182496548,-0.0011875925119966269,0.0021388211753219366
1772048148954161400,9.271161376953126,-0.0006095652934163809,-0.00016123405657708645,-0.0008693933486938477
1772048148964113200,9.281113037109375,-0.0008162267040461302,0.0015642279759049416,-0.0022118929773569107
1772048148974065400,9.2910654296875,-0.0012275471817702055,-0.0009496102575212717,-0.0012324159033596516
1772048148984017400,9.301017333984374,-0.000046967994421720505,0.0015463042072951794,0.0010738815180957317
1772048148993969200,9.31096923828125,-0.0009406665340065956,-0.0008710385300219059,0.0003983159549534321
1772048149003920400,9.32092041015625,0.0010692211799323559,-0.0011533335782587528,-0.0024720393121242523
1772048149013872400,9.330872314453124,-0.0011776702012866735,-0.0009825779125094414,-0.0023237247951328754
1772048149023824100,9.34082421875,0.000689738430082798,-0.0004187864251434803,-0.0008478011004626751
1772048149033776400,9.3507763671875,-0.0014481607358902693,0.000007271533831954002,0.00045433035120368004
1772048149043728400,9.360728271484374,0.00018994975835084915,0.000548425829038024,-0.00016565388068556786
1772048149053680000,9.37068017578125,0.001328838523477316,-0.0020390620920807123,-0.0010376367717981339
1772048149063632100,9.380632080078126,-0.0009540230967104435,0.00223877327516675,0.002170140855014324
1772048149073584400,9.39058447265625,-0.0005598468706011772,-0.001034698449075222,-0.001425866037607193
1772048149083536400,9.400536376953125,-0.0009028620552271605,0.000991967273876071,0.0002010590396821499
1772048149093488000,9.410488037109374,-0.0029229996725916862,0.0020713992416858673,-0.0014724773354828358
1772048149103440400,9.4204404296875,-0.001926178578287363,0.00042503303848206997,0.0006079836748540401
1772048149113391400,9.430391357421875,-0.0009583819191902876,0.001195402815937996,0.0008890032768249512
1772048149123342600,9.440342529296874,0.0005372492596507072,0.0018910205690190196,-0.0000010249204933643341
1772048149133294300,9.45029443359375,0.0016707987524569035,0.0006033284589648247,0.0013324432075023651
1772048149143246300,9.460246337890625,-0.0009327074512839317,-0.001752237556502223,0.0026072985492646694
1772048149153198600,9.470198486328124,0.0018067415803670883,0.0006143308710306883,0.0016589774750173092
1772048149163150600,9.480150634765625,-0.0027358122169971466,-0.0019068836700171232,0.0005351235158741474
1772048149173102300,9.490102294921876,-0.00006764661520719528,0.0014901768881827593,-0.0022139926441013813
1772048149183054300,9.500054443359375,-0.0017004306428134441,0.000851816963404417,-0.001450996845960617
1772048149193006600,9.510006591796875,-0.00034733093343675137,0.003897763090208173,0.0016115473117679358
1772048149202958300,9.519958251953126,-0.00019739498384296894,0.0007091602310538292,-0.00017996132373809814
1772048149212910300,9.529910400390625,0.00018985802307724953,0.0009130919352173805,0.0017480019014328718
1772048149222862600,9.539862548828125,0.0005475208163261414,0.0001421067863702774,0.0021245728712528944
1772048149232814600,9.549814697265624,-0.00014131935313344002,0.0006659140344709158,-0.0012304717674851418
1772048149242765300,9.559765380859375,0.0008573662489652634,0.003185530658811331,-0.0032560722902417183
1772048149252717600,9.569717529296875,0.0016055712476372719,-0.001660502515733242,-0.00015268567949533463
1772048149262669600,9.579669677734374,-0.00060272216796875,0.0002657619770616293,0.000212167389690876
1772048149272621300,9.589621337890625,0.00146143464371562,-0.000737383496016264,0.0017341352067887783
1772048149282573600,9.599573486328126,-0.0005878675729036331,-0.00031154416501522064,-0.001092543825507164
1772048149292525600,9.609525634765625,0.0023646154440939426,-0.0008261117618530989,0.001516836928203702
1772048149302477300,9.619477294921875,-0.0007547449786216021,0.0006162561476230621,0.001146125141531229
1772048149312429300,9.62942919921875,0.00042218761518597603,-0.0003590374253690243,0.0014155227690935135
1772048149322381600,9.639381591796875,0.00033909687772393227,-0.001004587858915329,0.00010285060852766037
1772048149332333600,9.64933349609375,0.000963469035923481,0.007996231317520142,0.004329404328018427
1772048149342285300,9.659285400390624,-0.00032576732337474823,0.047490112483501434,0.030281908810138702
1772048149352237600,9.669237548828125,-0.0005157762207090855,0.04648671671748161,0.01994290016591549
1772048149362188500,9.6791884765625,-0.0015999493189156055,-0.007356808986514807,0.0018022467847913504
1772048149372140300,9.689140380859374,0.0007364405319094658,-0.014910907484591007,-0.004912305157631636
1772048149382092500,9.699092529296875,-0.00038315216079354286,-0.0046518780291080475,-0.007795443292707205
1772048149392044500,9.70904443359375,0.0005629612132906914,-0.020476706326007843,-0.009803649969398975
1772048149401996300,9.718996337890625,0.0005456507205963135,-0.023438939824700356,-0.010320569388568401
1772048149411948500,9.728948486328125,-0.0017501974944025278,-0.01003313809633255,-0.010532420128583908
1772048149421900500,9.738900634765624,-0.00122182653285563,-0.014723763801157475,-0.006706257350742817
1772048149431852500,9.7488525390625,-0.001587064005434513,-0.00968892965465784,-0.0016757762059569359
1772048149441804300,9.75880419921875,0.0017805029638111591,0.004998935852199793,0.0031506705563515425
