time,seconds_elapsed,z,y,x
1772094411309908500,0.080908447265625,0.5067413153916597,0.1783613016799092,-0.066233947152365
1772094411319857400,0.090857421875,0.5490794049054384,0.22040420763939617,0.08667539002075791
1772094411329807600,0.1008076171875,0.528024341917038,0.22962569803632796,0.20901541967336087
1772094411339756500,0.110756591796875,0.43619127687215803,0.19067308624237775,0.2063779838418588
1772094411349706500,0.12070654296875,0.3250876941680908,0.1763973811957985,0.13010190495890564
1772094411359656400,0.130656494140625,0.20182547163665293,0.18889343628399072,0.07353751163138077
1772094411369605400,0.14060546875,0.1055628997117281,0.17247830805592237,0.051117480432707814
1772094411379555600,0.1505556640625,0.10464110869169235,0.13352781515382228,-0.0027989282698370516
1772094411389504500,0.16050439453125,0.14076046982109547,0.14855302339345217,-0.015368404787266626
1772094411399454500,0.170454345703125,0.15441197855472563,0.17197138144709168,-0.0009636802332708611
1772094411409404400,0.180404296875,0.24665537796616552,0.18403240611888466,-0.05525030135454144
1772094411419353600,0.190353515625,0.3434621397703886,0.20530286542363463,-0.06678220128542743
1772094411429303300,0.20030322265625,0.3215115892469883,0.2580047472372651,-0.013142561414360534
1772094411439252500,0.21025244140625,0.32629180926084517,0.30239472777955234,0.021862835707329213
1772094411449202200,0.2202021484375,0.33717619136869903,0.34396102920323607,-0.005346127392974449
1772094411459152400,0.23015234375,0.2730564781576395,0.34600773259997364,-0.07407935885654296
1772094411469101300,0.240101318359375,0.19828268446326255,0.29967575114443895,-0.0672415350260213
1772094411479051300,0.25005126953125,0.22765666298568246,0.28163119508363305,-0.061636764688370746
1772094411489000400,0.26000048828125,0.348276846575737,0.2779969302345067,0.02791083803414367
1772094411498950400,0.269950439453125,0.4492845672011375,0.2712718597631901,0.1456326241684146
1772094411508900400,0.279900390625,0.5815782374501228,0.23445859808549283,0.17571548161255196
1772094411518849300,0.289849365234375,0.6721972505301237,0.07235584583245218,0.13469252981794996
1772094411528799200,0.29979931640625,0.6006465105354786,-0.1533552360434085,0.12203567641116678
1772094411538748400,0.30974853515625,0.6257055484682321,-0.30017405605539677,0.08538109416021034
1772094411548698400,0.319698486328125,0.6995943760216236,-0.337420156192407,-0.0016615034714341163
1772094411558648300,0.3296484375,0.4366606479495764,-0.34946335294656455,0.02178045465350151
1772094411568597200,0.33959716796875,0.025406243935227394,-0.5212809320714324,0.09541662262007594
1772094411578547500,0.34954736328125,-0.19357728325128554,-0.4889812753606587,0.24462465758984908
1772094411588496400,0.359496337890625,-0.36091713244020934,-0.31872451581172645,0.3421080948129296
1772094411598446300,0.3694462890625,-0.5812544123232364,-0.24451171700097618,0.32597244111336765
1772094411608396300,0.379396240234375,-0.7112585103303194,-0.2721876594338566,0.2939504323001951
1772094411618345500,0.389345458984375,-0.5662801305532456,-0.30288236516602335,0.23831468899175523
1772094411628295400,0.39929541015625,-0.42941140747368334,-0.3692559947837144,0.20750359033830462
1772094411638244400,0.409244384765625,-0.3422293831050396,-0.4248368660997599,0.20401476184185593
1772094411648194300,0.4191943359375,-0.26132395478785037,-0.3934661608021706,0.22965565478317437
1772094411658144500,0.42914453125,-0.28239830699861046,-0.3631668110631406,0.2400556509075686
1772094411668093400,0.439093505859375,-0.3690799806296825,-0.4265511226717382,0.27287728566583247
1772094411678043400,0.44904345703125,-0.7010130106478929,-0.5138746744029223,0.47611339128538965
1772094411687992300,0.458992431640625,-0.9174550366580486,-0.5744234703246504,0.5947000962864607
1772094411697942500,0.468942626953125,-1.0517197147190571,-0.5039751386139542,0.5199260103311389
1772094411707892500,0.478892578125,-1.379360015979409,-0.3735867905296385,0.2895550468854606
1772094411717841400,0.48884130859375,-1.5656483112663029,-0.2527930039383471,0.09350896236784756
1772094411727791400,0.498791259765625,-1.6238298666000366,-0.1991289260290563,-0.07215564708523452
1772094411737740500,0.508740478515625,-1.3892337597399949,-0.15000161476656793,-0.23935915654338896
1772094411747690500,0.5186904296875,-1.0376496883124113,-0.09330160322748124,-0.3351034036826342
1772094411757640400,0.528640380859375,-0.573179826939106,-0.08260835977755486,-0.312370324479416
1772094411767589400,0.53858935546875,-0.08511690853238105,-0.11968297580517828,-0.2686328164964914
1772094411777539600,0.54853955078125,0.3083785514295101,-0.1832785190116614,-0.2381038227200508
1772094411787488500,0.558488525390625,0.6036164662569761,-0.2298399983741343,-0.1285971538186073
1772094411797438500,0.5684384765625,0.6399883408427238,-0.32760486462078986,-0.00647423751540482
1772094411807388400,0.578388427734375,0.5896545763999224,-0.33639088620990515,0.0258721078813076
1772094411817337600,0.588337646484375,0.5490636228144169,-0.15324008523114024,-0.04575235493667423
1772094411827287600,0.59828759765625,0.4568576328039169,-0.04233765112236142,-0.06914345965720713
1772094411837236500,0.608236572265625,0.3333890740454197,-0.04550634428635239,0.09386128293685614
1772094411847186400,0.6181865234375,0.3723749305218458,-0.1556694312699139,0.2064536428939551
1772094411857136400,0.628136474609375,0.4040589395523071,-0.1307072778403759,0.10323920600451529
1772094411867085600,0.63808544921875,0.5700234087347984,0.03730557523928583,-0.22044936195537446
1772094411877035300,0.64803515625,0.6164122349441051,-0.14520298231318593,-0.1756546730697155
1772094411886984400,0.657984375,0.4854617959976196,-0.12654372842013836,0.04617174939252436
1772094411896934400,0.667934326171875,0.43606852727532386,-0.04023848688602447,0.07420381178669631
1772094411906884400,0.67788427734375,0.38493922854065893,-0.14131255074590443,0.09104527566805481
1772094411916833300,0.687833251953125,0.42392216240763664,-0.19733283639252186,0.07927256641834973
1772094411926783200,0.697783203125,0.5795633904963732,0.0282956817664206,0.21844613237418234
1772094411936732400,0.707732421875,0.7212953356981276,-0.007989391318708657,0.3377385014265776
1772094411946682400,0.717682373046875,0.6457932277292012,-0.03998356227688491,0.4629884637091309
1772094411956632300,0.72763232421875,0.2850496982902288,0.06903890330418944,0.4424059136033058
1772094411966581200,0.737581298828125,-0.00601882189810276,0.1196021656539291,0.3600054974880069
1772094411976531500,0.747531494140625,-0.29524317552447316,0.11910020748116075,0.26584172447323795
1772094411986480400,0.75748046875,-0.5673708483994007,0.11419584963098167,0.2019697754781693
1772094411996430300,0.767430419921875,-0.6586936258345842,0.08638400585874914,0.16514752677641809
1772094412006380300,0.77738037109375,-0.44989422353208064,0.035405586836859584,0.15479937043711542
1772094412016329200,0.7873291015625,-0.1691968752324581,-0.04224010903201997,0.16866262222528455
1772094412026279400,0.797279541015625,0.06090367377400398,-0.14650456643104554,0.2559108436979353
1772094412036228400,0.807228271484375,0.2820323962956667,-0.16722849776893853,0.3703982966866344
1772094412046178300,0.81717822265625,0.4635048157334327,-0.10951806707829237,0.4235790480583906
1772094412056128500,0.82712841796875,0.597891074347496,-0.0797799314185977,0.39617015906386077
1772094412066077400,0.837077392578125,0.6069482410281897,-0.10096388148367404,0.2863697679128498
1772094412076027400,0.84702734375,0.5129951150894164,-0.13406550222709773,0.12247881706878543
1772094412085976300,0.856976318359375,0.4437257640302181,-0.14329685643091797,0.004909947340749204
1772094412095926500,0.866926513671875,0.5367354716390371,-0.1420516056101769,-0.05879252683892846
1772094412105876500,0.87687646484375,0.7388701553553343,-0.11166581969670951,-0.06126600428037345
1772094412115825400,0.886825439453125,1.0153343961298464,-0.05029650117233395,-0.006909048736095428
1772094412125775400,0.896775390625,1.3014268814712762,0.026664500368013978,0.057675688170827924
1772094412135724500,0.906724609375,1.6079495759010314,0.09718998896814882,0.10550042893476784
1772094412145674500,0.916674560546875,1.939716017180681,0.1427070738442242,0.17213252682555466
1772094412155624400,0.92662451171875,2.25240483302474,0.15029592153802512,0.2230202353566885
1772094412165573400,0.936573486328125,2.5763912879526614,0.13773849165141583,0.2312051127148792
1772094412175523600,0.946523681640625,2.951381953930855,0.11988609716184437,0.20085571328904478
1772094412185472500,0.956472412109375,3.339248468095064,0.14085560075864195,0.15907514806017278
1772094412195422500,0.96642236328125,3.644670507806539,0.10553973803184925,0.10426540724709629
1772094412205371400,0.976371337890625,3.7874282889246937,0.09270363733433186,-0.00658069356456399
1772094412215321600,0.986321533203125,3.7818577953159807,0.19504406786821782,-0.13422303087636828
1772094412225271600,0.996271484375,3.6541818479955195,0.3333461847517639,-0.13521927537210285
1772094412235220500,1.006220458984375,3.5916777532875535,0.41013899011835453,-0.098903843681328
1772094412245170400,1.01617041015625,3.6931267879396676,0.48531435035094617,-0.14042418707143514
1772094412255119600,1.02611962890625,3.6993186283171173,0.5761681951001286,-0.19407032746523617
1772094412265069600,1.036069580078125,3.451056984198093,0.5637878753460943,-0.15512768907602875
1772094412275019500,1.04601953125,3.1949054636120793,0.4735040855698287,-0.0678828651368618
1772094412284968400,1.055968505859375,2.948663927143812,0.45629415370225906,0.04403185128699988
1772094412294918700,1.065918701171875,2.5303584355741737,0.49847990219853816,0.06227792126927524
1772094412304867600,1.07586767578125,1.9742045622378586,0.4160555937509984,0.006053893211483955
1772094412314817500,1.085817626953125,1.1988006197333336,0.22815211835242807,-0.08298318443931639
1772094412324767200,1.095767333984375,0.20887305206060408,0.08323905889652669,-0.3410664037402719
1772094412334716700,1.105716552734375,-1.187632159987092,-0.03129515584334731,-0.8407497634444385
1772094412344666400,1.115666259765625,-3.427672016957402,-0.3080534841936082,-1.2860283829398453
1772094412354615600,1.125615478515625,-6.178436705997586,-0.6857583775665611,-1.4735739848114549
1772094412364565200,1.135565185546875,-9.392903194648026,-1.0681599773883819,-1.307414139187336
1772094412374515500,1.145515380859375,-12.598438773345947,-1.4950313449904322,-0.7756222614303231
1772094412384464400,1.15546435546875,-15.13245456238389,-1.773995878148079,-0.2923305760134011
1772094412394414300,1.165414306640625,-16.668611990749834,-1.596657782036066,-0.5930638733867556
1772094412404363500,1.175363525390625,-16.68975531654358,-0.9056257749155163,-1.4422805825337768
1772094412414313500,1.1853134765625,-15.436493623304367,-0.3558900980584323,-2.225742743809521
1772094412424263400,1.195263427734375,-13.378214355063438,-0.6027911213487387,-2.535367495907843
1772094412434212400,1.20521240234375,-10.427664760303497,-0.9699890876241027,-2.475098028384149
1772094412444162300,1.215162353515625,-7.820237113574147,-1.2013636020891367,-2.088032455339283
1772094412454111200,1.225111328125,-5.557169432237744,-1.7580977595314382,-1.3025582235887645
1772094412464061400,1.2350615234375,-3.6657705789804456,-2.276434674040228,-0.3142349493075162
1772094412474011400,1.245011474609375,-2.8248247815072536,-2.637277426069975,0.43575259319394827
1772094412483960300,1.254960205078125,-2.6873499092280864,-2.6458108611375093,0.6457857750751078
1772094412493910500,1.26491064453125,-2.7693109840780497,-2.159050257501006,0.41641748586595057
1772094412503859500,1.274859375,-2.51400935831964,-1.5222922768816352,0.2546913849055767
1772094412513809400,1.284809326171875,-2.1210738703280687,-1.0019240026757121,0.13868497872129082
1772094412523759400,1.29475927734375,-1.1963047112643719,-0.29668109937310216,0.10447992678061127
1772094412533708300,1.304708251953125,0.2106494140833616,0.43249534496366976,0.3706976449593901
1772094412543658500,1.314658447265625,1.8896219067126512,0.972085913772881,0.6968623207092285
1772094412553607400,1.324607421875,3.1286236039310693,0.8699810455605387,0.800779499040544
1772094412563557400,1.334557373046875,4.071854886880517,0.7146069439753889,0.6300657895043492
1772094412573507600,1.344507568359375,4.44296783464253,0.9640363166995346,0.6616318712435663
1772094412583456500,1.35445654296875,4.5484611762493845,1.0678161323867739,0.8202721350178122
1772094412593406500,1.364406494140625,4.582646938967705,1.075820282883197,0.7996855663239956
1772094412603355400,1.37435546875,4.4315836863189935,1.0748504149377345,0.5617806271769106
1772094412613305300,1.384305419921875,4.257971917253732,1.0623201653189958,0.43776846306100486
1772094412623254500,1.394254638671875,4.304604489091038,1.1530964147873222,0.5562547033622861
1772094412633204500,1.40420458984375,4.557241279554367,1.4598817056760192,0.8494165425680578
1772094412643154400,1.414154541015625,5.094856456637382,1.6386575795061886,1.3241415482349692
1772094412653103400,1.424103271484375,5.756487304967641,1.6718137069158254,1.8042594989866017
1772094412663053600,1.434053466796875,6.453784509962797,1.7483467653676867,2.130972748529911
1772094412673002500,1.44400244140625,7.18247287852168,1.7644499050371347,2.2656921846210953
1772094412682952400,1.453952392578125,7.8169906789988275,1.748844924148172,2.3434815267443656
1772094412692902400,1.46390234375,8.313771156868338,1.7102121188931165,2.38431681047976
1772094412702851600,1.4738515625,8.55090408872962,1.6503043242886661,2.31583364136219
1772094412712801500,1.483801513671875,8.419122459656,1.5226428438849746,2.136568814971298
1772094412722750500,1.49375048828125,8.271720652124285,1.3466452025964855,1.8052363811947405
1772094412732700400,1.503700439453125,8.112410380133985,1.2884503493897617,1.3876153647579252
1772094412742650600,1.513650634765625,7.761292757174372,1.531414325492084,1.204977043345943
1772094412752599600,1.523599609375,7.252566989967226,1.7989219373509286,1.0649328320354223
1772094412762549500,1.533549560546875,6.820519973292947,1.8703063808679579,0.8711731048893183
1772094412772498400,1.54349853515625,6.4236687731623645,2.010565915429592,0.5726875133775174
1772094412782448600,1.55344873046875,6.132939275670052,2.1748447696126996,0.1308913474367
1772094412792398300,1.5633984375,5.889122336000204,2.326194730248302,-0.363111135353148
1772094412802347500,1.573347412109375,5.611959007045626,2.3087448521450162,-0.6689155985109507
1772094412812297500,1.58329736328125,5.560353907492757,2.2935173262663184,-0.7889746410869062
1772094412822246700,1.59324658203125,5.4965732169777155,2.229497127906978,-0.8609650146078318
1772094412832196400,1.6031962890625,4.91759259480536,1.7817459077529607,-0.7940477796327322
1772094412842146300,1.613146240234375,3.8496716868698595,1.193972030533105,-0.7078562276061624
1772094412852095500,1.623095458984375,2.678385681527853,0.717005237288773,-0.723792851602286
1772094412862045400,1.63304541015625,1.1092448519706726,0.19254224111512303,-0.6875356163721531
1772094412871994400,1.642994384765625,-0.8171417280375957,-0.10705123857334256,-0.5962853561839089
1772094412881944300,1.6529443359375,-2.6357863107293844,-0.39098055453151465,-0.4481636368798092
1772094412891894300,1.662894287109375,-3.9423412027388807,-0.7891809773139655,-0.40125297875348476
1772094412901843500,1.672843505859375,-5.205788189905881,-0.5015940156310796,-0.7267811466980725
1772094412911793400,1.68279345703125,-5.914359068587422,-0.1557343131996691,-1.3179527765974401
1772094412921742300,1.692742431640625,-6.641854427969455,-0.2823689347736537,-1.301598000254482
1772094412931692300,1.7026923828125,-7.797204613032936,-0.7404640004180372,-0.4966340551361441
1772094412941641200,1.71264111328125,-9.145024412366748,-0.7786589987777173,0.02521532447300851
1772094412951591400,1.72259130859375,-10.244725775444508,-0.6886635244235396,-0.12041574705913662
1772094412961541400,1.732541259765625,-10.820229661417006,-0.7893772305384278,-0.42635494251251216
1772094412971490300,1.742490234375,-10.924176358103752,-0.18910627531707286,-0.9242668355647474
1772094412981440500,1.7524404296875,-9.920161812889575,0.10152487636730075,-1.4469778004392981
1772094412991389400,1.762389404296875,-8.542500417521595,-0.5101870719313621,-1.222440730778873
1772094413001339400,1.77233935546875,-7.147937571713328,-0.7321688310857862,-0.856162290501222
1772094413011289300,1.782289306640625,-5.735292541247606,-0.5934262038931251,-0.733022379175201
1772094413021238300,1.79223828125,-4.681625199592113,-0.8003291979897766,-0.49457851084582505
1772094413031188500,1.8021884765625,-3.7785330348074435,-0.9826273276619613,0.017274959927797318
1772094413041137400,1.812137451171875,-3.070234543326497,-1.045050319957733,0.6352186422228813
1772094413051087400,1.82208740234375,-2.608216751280427,-1.1490228817380963,1.086436807835102
1772094413061037600,1.83203759765625,-2.051626240092516,-1.2773065856933592,1.0747340220164507
1772094413070986500,1.841986572265625,-1.4348369885295629,-1.4857554209925234,0.7413132376585155
1772094413080936400,1.8519365234375,-0.5555278503924608,-1.804511866312474,0.44399336545784024
1772094413090885400,1.861885498046875,0.3055652475744486,-2.24272573505342,0.21946475309850647
1772094413100835300,1.87183544921875,1.0939929223030804,-2.6217566163331267,-0.03359324018526822
1772094413110785300,1.881785400390625,1.7438655283004045,-2.9857816516608,-0.38294454759210345
1772094413120734200,1.891734130859375,2.2189999915510414,-3.2909196137338874,-0.7641255195777863
1772094413130684400,1.901684326171875,2.6348651042312383,-3.3607305243238805,-1.1446238430615514
1772094413140633300,1.91163330078125,2.993423690846562,-3.1338094821363685,-1.3758718816027045
1772094413150583300,1.921583251953125,3.302791837835312,-2.6593060102656483,-1.382953218165785
1772094413160533500,1.931533447265625,3.666068100622296,-2.20307586171031,-1.2947180314823985
1772094413170482400,1.941482421875,4.197646920150518,-1.6399673469305038,-1.191666603134945
1772094413180432400,1.951432373046875,4.56930171970427,-1.1197581357438116,-0.9850190451040863
1772094413190381300,1.96138134765625,4.727168222627044,-0.7473655965000391,-0.7309680769938975
1772094413200331300,1.971331298828125,4.683669272640347,-0.42362822096236047,-0.5548120302733034
1772094413210280400,1.981280517578125,4.284611502376198,-0.1402390032302588,-0.4781086202232167
1772094413220230400,1.99123046875,3.6482267389833924,0.07246054831594229,-0.4017920175336301
1772094413230180400,2.001180419921875,2.7829455416768787,0.11289901475347577,-0.22008396270908415
1772094413240129300,2.01112939453125,1.9610604185044764,0.11789704223647712,0.04318191992677748
1772094413250079500,2.02107958984375,1.3881810358166693,0.16616053974386302,0.1150283914649859
1772094413260028400,2.0310283203125,1.1136404565811158,0.22158738954197615,0.08031697917105629
1772094413269978400,2.040978271484375,0.9634300213694572,0.2906734199235216,0.11247393034235574
1772094413279928300,2.05092822265625,0.9202882142573594,0.4894033732302487,0.2206548579322174
1772094413289877500,2.06087744140625,0.9317167862445116,0.7410979144074022,0.36170134162046014
1772094413299827500,2.070827392578125,0.692866529071331,0.9260535728510468,0.5954935482190922
1772094413309776400,2.0807763671875,0.2485340313196182,1.0910688515499234,0.8515045278232544
1772094413319726300,2.090726318359375,-0.1942810476064682,1.2076213473096489,0.9651987846076487
1772094413329676300,2.10067626953125,-0.6135556764692067,1.328273241212219,0.9390558238957076
1772094413339625500,2.11062548828125,-0.8580214354366064,1.2898555400125682,0.8211017177097499
1772094413349575200,2.1205751953125,-0.894117415690422,1.2125767777599394,0.5435052580349147
1772094413359524400,2.1305244140625,-0.6495937890559434,1.1902877159971743,0.24702223851718008
1772094413369474300,2.140474365234375,-0.2531231126755476,1.0905918086227029,0.1883749288352206
1772094413379424300,2.15042431640625,0.07666881366074085,0.9615774523053318,0.33307503966018553
1772094413389373200,2.160373291015625,0.594466945117712,0.8967126198153942,0.31805852618366476
1772094413399323100,2.1703232421875,1.1871791555225848,0.9063441523179412,0.07102576627247036
1772094413409272300,2.180272216796875,1.7690636824429034,0.7793889204874634,-0.11580038048448041
1772094413419222300,2.19022216796875,2.2989292683124543,0.5814243620626628,-0.10972272280491888
1772094413429171200,2.200171142578125,2.7272815221220252,0.529195066196844,-0.052084261371940374
1772094413439121200,2.21012109375,3.0406466297924517,0.538206274843961,0.03254295481420122
1772094413449071400,2.2200712890625,3.1238515672236677,0.4317428095633164,0.23474223733246324
1772094413459020300,2.230020263671875,3.1753117053478954,0.3384931191861629,0.3337889600832015
1772094413468970200,2.23997021484375,3.215865249532461,0.26496548962797967,0.2228409515333362
1772094413478919200,2.249919189453125,3.268290433296561,0.11048162401397713,0.03050366753893904
1772094413488869400,2.259869384765625,3.307078721374273,-0.000879431449342519,-0.07070534781222232
1772094413498819300,2.2698193359375,2.915506338429451,-0.0832673077434767,0.03618248949348926
1772094413508768300,2.279768310546875,2.0359920331090686,-0.16525299644488842,0.28540958111118525
1772094413518718200,2.28971826171875,0.7562912457555532,-0.2724444106739014,0.4307660734856501
1772094413528667100,2.299667236328125,-0.9829571441382169,-0.37176713735442607,0.4117740074416622
1772094413538617300,2.309617431640625,-2.921006104889512,-0.42009540719371286,0.7184585779022425
1772094413548567300,2.3195673828125,-4.585816801175475,-0.2863787549369037,1.1517203771937639
1772094413558516200,2.32951611328125,-6.000741467010974,0.020857384991832078,1.3328142456427217
1772094413568466400,2.339466552734375,-7.2063055895298715,0.10111879805075004,1.4351133212529121
1772094413578415400,2.349415283203125,-8.332201716572046,-0.03336886597801931,1.4274347494490445
1772094413588365300,2.359365234375,-9.224894067895413,-0.14323793845106847,1.1486362205080687
1772094413598314200,2.369314208984375,-9.708304776582121,-0.33090379656832664,0.5055710660358891
1772094413608264200,2.37926416015625,-9.5762454996109,-0.7493973945885897,-0.2021257332248613
1772094413618214400,2.38921435546875,-9.092062052986025,-1.2924506710723043,-0.8319947215154767
1772094413628163300,2.399163330078125,-8.426537119826675,-1.8782281137779353,-1.454217688564956
1772094413638113300,2.40911328125,-7.55172529310882,-2.49789584338665,-2.157979121138155
1772094413648062200,2.419062255859375,-6.679478348442911,-2.8411007935255763,-2.8573876191988585
1772094413658012400,2.429012451171875,-5.842610760194063,-3.1807448363125324,-3.036024522949755
1772094413667962400,2.43896240234375,-4.614790382203459,-3.9083556387677785,-3.0362323204815387
1772094413677911300,2.448911376953125,-3.184219818946719,-4.027223717993498,-3.0831060075983405
1772094413687861200,2.458861328125,-1.7245155156642198,-3.456417342187464,-3.2482337336957454
1772094413697810400,2.468810546875,-1.2293600086480378,-2.7935058063969014,-2.994753770406544
1772094413707760400,2.478760498046875,-1.2333370955854654,-1.8993027582496405,-2.394011106020212
1772094413717710300,2.48871044921875,-1.418379774725437,-0.7153869884371757,-1.6327970169097183
1772094413727659300,2.4986591796875,-1.739412640544772,0.4768520077582448,-0.5309107840735465
1772094413737609500,2.508609375,-2.0900345889419314,1.6129086596131323,0.595944762585312
1772094413747558400,2.518558349609375,-1.9841823508948087,2.258539244126528,1.4434006726048887
1772094413757508400,2.52850830078125,-1.5428911205351352,2.9225904514715073,1.6965613408118485
1772094413767457300,2.538457275390625,-1.3093226031571625,3.2434830320373176,1.9420212253831326
1772094413777407500,2.548407470703125,-0.934873204448819,2.7991730383783575,2.2675845742389558
1772094413787357400,2.558357421875,-0.11756313410699366,2.526413497340679,2.144325420447439
1772094413797306400,2.568306396484375,1.0619839191019533,1.9771466070391237,1.8445038310915232
1772094413807256300,2.57825634765625,2.3296055616050957,1.428117324885726,1.4766906555272639
1772094413817205500,2.58820556640625,3.848376386362314,1.1442287062641232,1.0181398089393974
1772094413827155500,2.598155517578125,5.301915737274289,1.1267761247470973,0.6264868350390345
1772094413837105200,2.608105224609375,6.618494010648131,1.1837969657383858,0.575912539838627
1772094413847054300,2.618054443359375,7.646794855856895,1.1854417372707278,0.7835494011677802
1772094413857004300,2.62800439453125,8.203549617695808,1.166127015143633,1.1192672834869473
1772094413866953500,2.637953369140625,8.394722762414812,1.1061022430960088,1.369835524047911
1772094413876903200,2.647903076171875,8.289809266522527,1.004621059739962,1.4116696095623076
1772094413886853000,2.65785302734375,8.23055219091177,0.9432555406078695,1.350960143186152
1772094413896802300,2.66780224609375,8.248536760413646,0.9977620606906712,1.288456048478186
1772094413906752300,2.677752197265625,8.330071718806028,1.0717129936948417,1.2968189492844044
1772094413916701400,2.687701416015625,8.224774776554106,1.106075282023847,1.2474850095339118
1772094413926651100,2.697651123046875,7.982289377748966,0.9675934977244586,1.0868091482788325
1772094413936600300,2.707600341796875,7.636130253979563,0.7624664272591472,0.9427487601295113
1772094413946550300,2.71755029296875,7.26076724755764,0.498821920569241,0.7979758397966623
1772094413956500200,2.727500244140625,6.881714154446125,0.35689291842542586,0.5026647136025131
1772094413966449200,2.73744921875,6.4935670697748655,0.4060923816086724,-0.0010787534137256442
1772094413976399400,2.7473994140625,6.070341072937846,0.4341307641457766,-0.449868358438462
1772094413986348300,2.757348388671875,5.324588172331452,0.32642599356714636,-0.7376419287346303
1772094413996298200,2.76729833984375,4.560307681387663,0.14550952751170843,-0.5963239711612462
1772094414006248200,2.777248291015625,3.9248523077994584,0.12951452439185232,-0.6488359564259648
1772094414016197000,2.787197021484375,3.3089947841286658,0.1380557043744251,-1.0233860390298068
1772094414026147300,2.797147216796875,2.404137947759032,-0.39119536632597446,-1.1737401204958557
1772094414036096300,2.80709619140625,1.064194580888748,-1.3690195314899085,-1.5678250707834958
1772094414046046200,2.817046142578125,-0.5254208814203739,-2.3184607749953865,-2.3197573906771836
1772094414055996400,2.826996337890625,-2.322962470328808,-2.9428409200787544,-3.2000577318087218
1772094414065945300,2.8369453125,-3.6772891673386097,-2.959548309251666,-4.0578398055315015
1772094414075895300,2.846895263671875,-4.276073391133546,-2.9224247395157814,-4.15919677798599
1772094414085843500,2.856843505859375,-4.306889969679713,-2.36711228543967,-3.522927457666397
1772094414095793700,2.866793701171875,-3.4505618941575285,-2.1498238717332483,-2.3096626976422963
1772094414105742600,2.87674267578125,-2.542083944681287,-1.9407310394421218,-1.1830913016870617
1772094414115692500,2.886692626953125,-2.000084853425622,-1.7164269017547369,-0.47168501691650594
1772094414125642500,2.896642578125,-2.406948329004645,-1.4978791356369852,-0.020288791323639453
1772094414135591700,2.906591796875,-3.92332027592659,-1.2616796852335332,0.42146384600270537
1772094414145541600,2.916541748046875,-6.163287067660689,-0.8978946692068129,0.9162159233171492
1772094414155490600,2.926490478515625,-8.738735521805285,-0.5602011759657413,1.3574977282613514
1772094414165440500,2.9364404296875,-10.70895656736493,-0.20384572541788218,1.462267431768775
1772094414175390700,2.946390625,-11.405887861657142,0.27590032328143715,1.1317109508007763
1772094414185339600,2.956339599609375,-10.566468835359812,0.6090855453178287,0.7798995003581046
1772094414195289600,2.96628955078125,-8.24078775372207,0.6678397859729827,0.6693753249771892
1772094414205238500,2.976238525390625,-5.490065734779835,0.5346306083142757,0.7384963536068797
1772094414215188700,2.986188720703125,-3.2364468497902155,0.06039426294714212,0.7668119091175496
1772094414225137700,2.9961376953125,-1.9974650263160465,-0.19852664928697047,0.42935960422120983
1772094414235087600,3.006087646484375,-1.4870955835551023,-0.27544271570704876,0.43738830463699996
1772094414245037600,3.01603759765625,-1.3802584261238575,-0.4122176230233162,0.6455068120032549
1772094414254986800,3.02598681640625,-1.2002005496591328,-0.38420638422146436,0.8069549728050828
1772094414264936700,3.035936767578125,-0.6390718105196952,-0.15135266404934228,0.9267572641409934
1772094414274885600,3.0458857421875,0.14918635286092757,-0.05701097718439996,1.0777453326616435
1772094414284835600,3.055835693359375,1.1855272966623305,-0.049669163054227826,1.1098746012415737
1772094414294785800,3.065785888671875,2.2721564121991396,-0.0052558747015893454,1.0020832118254155
1772094414304734700,3.075734619140625,3.279157279747724,0.019440540463849902,0.9180738992087543
1772094414314684700,3.0856845703125,4.004723716893792,-0.018061214934661982,0.8309716620780527
1772094414324633600,3.095633544921875,4.498072466748953,-0.08569478148557245,0.7509804259963333
1772094414334583800,3.105583740234375,4.61919066298902,-0.16872195119708774,0.7234246028117836
1772094414344532700,3.11553271484375,4.555522200676799,-0.1868077891163528,0.7280573771789669
1772094414354482700,3.125482666015625,4.410564279165864,-0.1490345598326996,0.6363124288089573
1772094414364432600,3.1354326171875,4.226427608954906,-0.10645239589735865,0.5070647386597469
1772094414374381600,3.145381591796875,3.9784108795076607,-0.032048787222243844,0.4638102649534121
1772094414384331800,3.155331787109375,3.770145145690441,0.1291013404810801,0.43684089988730845
1772094414394280700,3.16528076171875,3.523598488795757,0.2645557397833094,0.4032293933929875
1772094414404230700,3.175230712890625,3.243540022921562,0.33404330017045136,0.324632022822462
1772094414414180900,3.185180908203125,2.9608944631636143,0.4188181172668934,0.2550047617036849
1772094414424129800,3.1951298828125,2.80310336356461,0.45303884170074016,0.25504734047008676
1772094414434079700,3.205079833984375,2.785560108089447,0.46660983254406596,0.2024563534187153
1772094414444028700,3.215028564453125,2.968327243512869,0.4906085843015462,0.04525755715705454
1772094414453978600,3.224978515625,3.2833243362993,0.41757856553457673,-0.17407025342248378
1772094414463928600,3.234928466796875,3.5512837835788726,0.3167599377404898,-0.3963663392230868
1772094414473877800,3.244877685546875,3.7873984783083197,0.39277996863629666,-0.5486969449264928
1772094414483827700,3.25482763671875,3.8172202005982396,0.5791653676221147,-0.6229196440767496
1772094414493776600,3.264776611328125,3.6327468457788226,0.6514831099338829,-0.6792209386218339
1772094414503726800,3.274726806640625,3.4317724380135535,0.7960551739323883,-0.9589991993151604
1772094414513675800,3.28467578125,3.076452687188983,0.9896112682651728,-1.1386785247910767
1772094414523625700,3.294625732421875,2.531605805286765,0.9641964756973087,-1.0692540562354027
1772094414533575400,3.304575439453125,1.7126549820005892,0.9031644993685185,-1.2915982920266686
1772094414543524900,3.31452490234375,0.8621469909340143,0.878387200986594,-1.396594936157763
1772094414553474600,3.324474609375,0.09917232189178467,0.7915937375441193,-1.2356982717588543
1772094414563423700,3.334423828125,-0.8305009758263826,0.6561858807973563,-0.8133484732344746
1772094414573373400,3.34437353515625,-1.6213064856022597,0.6716405664954334,-0.40583544770553703
1772094414583323600,3.35432373046875,-2.20844703335464,0.8575251763522624,-0.24032040279097855
1772094414593272600,3.3642724609375,-2.7834453078925607,0.8434667673181742,0.08184942203587851
1772094414603222500,3.374222412109375,-3.1739860097020864,0.6924195890214294,0.40625071397554124
1772094414613171500,3.38417138671875,-3.346180313184857,0.5348220392331481,0.44041744319982823
1772094414623121700,3.39412158203125,-3.4102427432507274,0.23026048880852756,0.3327531872946769
1772094414633070600,3.404070556640625,-3.508451188546419,-0.06615611440949141,0.2280953283975832
1772094414643020500,3.4140205078125,-3.574540156003833,-0.3471712234213948,0.3675017715275287
1772094414652970500,3.423970458984375,-3.4188661946892736,-0.6156685039047152,0.4665405667001381
1772094414662919700,3.433919677734375,-3.0240573140412566,-0.7728026008997112,0.3657666913632303
1772094414672869600,3.44386962890625,-2.690424494367838,-0.9326822702758014,0.4059929763548076
1772094414682818600,3.453818603515625,-2.6036539734095334,-1.019278238384798,0.5506238944010808
1772094414692768500,3.4637685546875,-3.023064795872569,-0.9505239241756498,0.8028788824725895
1772094414702718700,3.47371875,-4.034470620381832,-0.8595989869516343,1.271529171335697
1772094414712667600,3.483667724609375,-5.2460167399197815,-0.7569608155801891,1.2941495839446782
1772094414722617600,3.49361767578125,-6.4677738723486655,-0.48664581815041597,1.0108796086780727
1772094414732566500,3.50356640625,-7.61056677365601,-0.1946003426887095,0.7536833282794803
1772094414742516700,3.513516845703125,-8.724992243134976,-0.1249860141167417,0.5849276209432631
1772094414752465700,3.523465576171875,-9.688848965483903,-0.1870413786765188,0.1817852117139846
1772094414762415600,3.53341552734375,-10.306740040808915,-0.15840532250721007,-0.5483345778875053
1772094414772365600,3.543365478515625,-10.253117171692848,-0.11997029571342281,-1.246957916919887
1772094414782314500,3.553314453125,-9.42989875409007,0.02401100845085457,-1.9602588928632436
1772094414792264700,3.5632646484375,-7.94626821629703,0.013614391593635082,-2.1098774996615943
1772094414802213600,3.573213623046875,-6.00481558458209,-0.40452922394517804,-1.9125939092382787
1772094414812163600,3.58316357421875,-3.9508471652776,-1.0434486569147556,-1.868724956895411
1772094414822113800,3.59311376953125,-2.195681075283885,-1.7171821040362119,-2.0870845069646835
1772094414832062700,3.603062744140625,-1.1411387043595314,-2.2128215951770542,-2.409859101884812
1772094414842012700,3.6130126953125,-0.8561357678204774,-2.578978966358304,-2.5371289526224134
1772094414851961600,3.622961669921875,-1.0229285045206546,-2.903075895923376,-2.436142859306931
1772094414861911600,3.63291162109375,-1.2160030989468098,-2.7066408851534125,-2.11742981473729
1772094414871860700,3.64286083984375,-0.9664151746600865,-2.1301666928440333,-1.5797062088437377
1772094414881810700,3.652810791015625,-0.280937002274394,-1.1904802428945898,-0.9433025946199893
1772094414891760600,3.6627607421875,0.4926327105402946,-0.2871051695153117,-0.07179726210162043
1772094414901709600,3.67270947265625,1.342125387084484,0.5025281546760351,1.0066418249778448
1772094414911659800,3.68265966796875,2.201263259330392,1.1184261564876883,1.9216171736493706
1772094414921608700,3.692608642578125,2.9750661963790654,1.460215759935975,2.6150767001777884
1772094414931558700,3.70255859375,3.7137218322008847,1.667285561966896,2.9773186514809726
1772094414941508900,3.7125087890625,4.331892893511057,1.7014698633804917,3.080665628708899
1772094414951457800,3.722457763671875,4.8670045633405445,1.5445707441851495,2.9118165440008044
1772094414961407700,3.73240771484375,5.263612602365017,1.3744345422759652,2.6675457230836153
1772094414971356700,3.742356689453125,5.7098044642478225,1.3445327404871583,2.513295364831388
1772094414981306600,3.752306640625,6.056461600667238,1.4300515078186988,2.434306291529536
1772094414991255800,3.762255859375,6.252867969864607,1.594863592095673,2.414413404188305
1772094415001205800,3.772205810546875,6.383311628332733,1.694879963596165,2.3484919022522863
1772094415011155700,3.78215576171875,6.51996700092256,1.759733836300671,2.297153636942059
1772094415021104600,3.792104736328125,6.571877805423736,1.9087375260710715,2.3274463377445933
1772094415031054800,3.802054931640625,6.678688074848055,1.9538617391720412,2.4060578099057075
1772094415041003800,3.812003662109375,6.821058317953348,1.9830669369988143,2.373450840811431
1772094415050953700,3.82195361328125,7.001912313231825,2.022970346711576,2.21742251310125
1772094415060902700,3.831902587890625,7.139039394986629,1.9573564494200049,2.0521923495426773
1772094415070852900,3.841852783203125,7.161391512048244,1.7525512313202023,1.7235678595505655
1772094415080802600,3.851802490234375,7.142035069671273,1.5487703878320753,1.3378887724280357
1772094415090752000,3.861751953125,6.897487477639317,1.4464081838577985,0.9278229936763643
1772094415100702000,3.871701904296875,6.341511883479356,1.2607418198615312,0.6681197719581424
1772094415110651100,3.881651123046875,5.765076854136586,1.0613400682404637,0.46487917282655833
1772094415120600800,3.891600830078125,5.217165323966741,0.9628031216427684,0.09537379725850187
1772094415130551000,3.901551025390625,4.6903895208060735,0.8264525772184133,-0.3885933306014165
1772094415140500000,3.9115,4.375544988232851,0.8213078347411006,-0.958881564284861
1772094415150450000,3.921449951171875,4.199464783227444,0.8730363414779305,-1.3649405916132031
1772094415160398800,3.93139892578125,4.0680812135607,0.8195868561673909,-1.5270688436336814
1772094415170349000,3.94134912109375,3.7081022387534377,0.7093911820884794,-1.5106487469695506
1772094415180299000,3.951299072265625,2.8250615128725767,0.5229448466956615,-1.3391082312203944
1772094415190248000,3.961248046875,1.4925719691395758,0.2379330692630261,-0.9770835028644651
1772094415200198000,3.971197998046875,-0.21584055298566818,-0.06607778847627341,-0.3836591256022453
1772094415210147000,3.98114697265625,-1.9302058460354803,-0.44911607876643533,0.2043446148507297
1772094415220097000,3.991096923828125,-3.345488823789358,-0.7116922255724668,0.35372378687001765
1772094415230046000,4.0010458984375,-4.332463971397281,-0.913253347184509,0.09047142130285502
1772094415239996000,4.010995849609375,-4.659712058469653,-1.265542498141527,-0.5975449277909473
1772094415249946000,4.020946044921875,-4.454627877297997,-1.6956497789248823,-1.328344699013233
1772094415259895000,4.03089501953125,-4.208836422684788,-2.1551380524933337,-1.9154837854608893
1772094415269845000,4.040844970703125,-4.445509335818887,-2.372244679892063,-2.2014975064776836
1772094415279794000,4.0507939453125,-5.534173756575584,-2.1765127028249203,-1.65992511620149
1772094415289744100,4.060744140625,-7.509173853105306,-1.8015347501978276,-0.7827950756691395
1772094415299693000,4.070693115234375,-9.679527010387181,-1.16774102621153,-0.3591836231784895
1772094415309643000,4.08064306640625,-11.290957998663187,-0.17240710598323494,-0.41346579645350573
1772094415319593000,4.090593017578125,-11.971422142279147,0.7855677552528679,-0.6221221370235085
1772094415329542000,4.1005419921875,-11.25577562612295,1.2332127385534346,-0.4391748227275908
1772094415339492000,4.1104921875,-9.488065111854672,1.059695369773358,0.047942266196385024
1772094415349441000,4.12044091796875,-7.4164336100876325,0.5592935596015304,0.4166622544072568
1772094415359391000,4.130390869140625,-5.508652361828088,-0.03087460147687234,0.3762967070754617
1772094415369340000,4.14033984375,-3.881875335860252,-0.5013365337386727,0.25854188632126895
1772094415379290000,4.1502900390625,-2.69739491790235,-0.9271274126276373,0.4133437044437974
1772094415389240000,4.160239990234375,-1.816971096521616,-1.1547056766148656,0.6467460714746266
1772094415399189000,4.17018896484375,-1.0369459239572285,-1.1083312442570925,0.747413088903576
1772094415409139000,4.180138916015625,-0.20295242983996867,-0.9429264547839761,0.8046664234764873
1772094415419088100,4.190088134765625,0.6709586486458778,-0.7874007428336888,0.795671362246573
1772094415429038000,4.2000380859375,1.5561059914171695,-0.7367589353550225,0.7271215576335788
1772094415438988000,4.209988037109375,2.3959312604278327,-0.7154763472210616,0.6087780137386173
1772094415448937000,4.21993701171875,3.0440877101570365,-0.7432150526918471,0.4781228314116597
1772094415458887200,4.22988720703125,3.4011773932635783,-0.7938726422615349,0.3243438169982284
1772094415468836000,4.239836181640625,3.474125140574574,-0.788030857430771,0.17865000069448722
1772094415478786000,4.2497861328125,3.4167870503276583,-0.732467887097597,0.12975879974281415
1772094415488735000,4.25973486328125,3.3916894339501855,-0.6215156955629587,0.04679411907456815
1772094415498685200,4.269685302734375,3.379592168921232,-0.473154139620997,-0.053745691778138274
1772094415508635100,4.27963525390625,3.397846787536144,-0.30753377116844055,-0.09139701171517371
1772094415518584000,4.289583984375,3.3798090265423055,-0.15428192243427039,-0.17622823517397046
1772094415528534000,4.299533935546875,3.267272196164727,-0.03323671836517751,-0.31002869325671345
1772094415538483200,4.309483154296875,3.0967338431954383,0.0467053813451901,-0.3850882450899109
1772094415548433200,4.31943310546875,2.927302574685216,0.10260251553617417,-0.48783513753283764
1772094415558383000,4.329383056640625,2.8560896883428093,0.18702640030309556,-0.654200259938091
1772094415568332000,4.33933203125,2.955416324013471,0.32461828655805436,-0.8353501694232225
1772094415578282200,4.3492822265625,3.171024821808934,0.5155115914223716,-1.0392459445279092
1772094415588231200,4.359231201171875,3.326228827524185,0.608431026931852,-1.2306067938387393
1772094415598181000,4.36918115234375,3.2635131358921528,0.7314965578474104,-1.2749886641398072
1772094415608130000,4.379130126953125,2.995339753600955,0.91662720753178,-1.1506714526627213
1772094415618080300,4.389080322265625,2.5364000538259743,1.0633741313513367,-1.1033251065328717
1772094415628030000,4.399030029296875,1.9983733733326194,1.1238640366926789,-1.076995098816231
1772094415637979100,4.408979248046875,1.422734462803602,1.1783089627813548,-1.0614211706526577
1772094415647928800,4.4189287109375,0.9127215783953666,1.2505125406615436,-1.0115088464923203
1772094415657878000,4.4288779296875,0.25613515397310255,1.2345466175056994,-0.9499502159409224
1772094415667828000,4.438827880859375,-0.48724283419549463,1.2113513276182115,-0.8216087173838168
1772094415677777200,4.448777099609375,-1.2542360912293196,1.2671167617209256,-0.7131669012349099
1772094415687726800,4.458726806640625,-1.9898674107939003,1.270790627928078,-0.6056653616108
1772094415697677000,4.468677001953125,-2.60339912186563,1.1616963392198085,-0.4144374910298735
1772094415707626000,4.4786259765625,-2.9188918892145157,1.0420932237178087,-0.327910569569096
1772094415717576000,4.488575927734375,-2.897643349480629,0.9062578622739762,-0.2964230877577327
1772094415727525000,4.498525146484375,-2.5780431468129157,0.6099713151764125,-0.19233637981209903
1772094415737474800,4.508474853515625,-2.058738702446222,0.23086923182401806,-0.0201711471601855
1772094415747425000,4.518425048828125,-1.5308090530753136,-0.13147457241844385,0.11489795175204053
1772094415757374000,4.5283740234375,-1.1268863071233033,-0.39528186845462765,0.14651227481346576
1772094415767324000,4.538323974609375,-0.8057827141553163,-0.6035134442739188,0.14709798401324078
1772094415777272800,4.54827294921875,-0.4320183751016855,-0.737206898318231,0.11937007393110542
1772094415787223000,4.55822314453125,-0.04114449581503868,-0.7893750385813415,0.08855013438407332
1772094415797172000,4.568171875,0.3388350644916296,-0.8180797395400703,0.09723132562553509
1772094415807122000,4.578121826171875,0.6820727478563785,-0.8282627684455365,0.17156276411358265
1772094415817071900,4.58807177734375,0.9352882149904966,-0.7988559836320579,0.28853708374826237
1772094415827021000,4.59802099609375,1.0280606067121028,-0.7971111127261072,0.3388226434014737
1772094415836971000,4.607970947265625,1.147379644575715,-0.8828682919234037,0.36531324850730595
1772094415846920000,4.617919921875,1.4385375966131686,-0.8850124643452465,0.35131592201068995
1772094415856870000,4.627869873046875,1.8281056539982556,-0.9319268487986176,0.33789179229214783
1772094415866819000,4.637819091796875,2.24570913477838,-0.9290156375270336,0.43215595694147046
1772094415876769000,4.64776904296875,2.6041011326551438,-0.8463273443810642,0.5200262558352202
1772094415886719000,4.657718994140625,2.806225879499316,-0.8076379135679453,0.709382414260134
1772094415896668000,4.66766796875,2.939769842070341,-0.7702456098932773,0.8679889218952507
1772094415906618000,4.6776181640625,2.8749428573727607,-0.703822003654018,0.9173543527625501
1772094415916567000,4.687567138671875,2.931318824589252,-0.6603625088948756,0.9086335053641349
1772094415926517000,4.69751708984375,3.087246468403935,-0.5779499639503658,0.7962978966470807
1772094415936467000,4.707467041015625,3.2354730363219972,-0.6360252093654125,0.7364658706925808
1772094415946416000,4.717416015625,3.3942870492279527,-0.7189196195427328,0.6647817866418511
1772094415956366000,4.727365966796875,3.4107354952037334,-0.6927095849439502,0.5254572679080068
1772094415966315000,4.73731494140625,3.459970358493924,-0.7645574081890285,0.41877347440756857
1772094415976265000,4.747264892578125,3.4512042837142944,-0.736945909294486,0.3738786130830645
1772094415986214000,4.7572138671875,3.257704741874337,-0.7131338757481426,0.36789544702023264
1772094415996164000,4.7671640625,2.6978771484613415,-0.8146927274502813,0.28105103884181004
1772094416006114000,4.777114013671875,1.8913620283782482,-0.822307513302937,0.13204144905358553
1772094416016063000,4.78706298828125,0.9359995781302451,-0.6860617444273084,-0.1463599337959662
1772094416026013200,4.79701318359375,-0.18923253204524515,-0.5950662992503494,-0.3764984401926398
1772094416035962000,4.806962158203125,-1.3085744151383638,-0.6183168995216488,-0.5927766539432108
1772094416045912000,4.816912109375,-2.5240648883879184,-0.6528757333360612,-0.9072606826409697
1772094416055861000,4.826861083984375,-3.926134748825431,-0.7184842238001525,-1.1984168080475182
1772094416065811000,4.83681103515625,-5.555878807905316,-0.6168406894892454,-1.3295736562862992
1772094416075761200,4.84676123046875,-7.461968449816108,-0.2504508977916092,-1.2628006520874797
1772094416085713700,4.856713623046875,-9.53991512607932,0.2301816514186561,-1.1499682728294283
1772094416095663900,4.866663818359375,-11.92408288347721,0.6519314382232725,-0.9860497033260762
1772094416105612800,4.87661279296875,-14.473759182983637,0.9841710499726235,-0.7529577904839069
1772094416115562800,4.886562744140625,-16.54351495400667,1.2072834936574102,-0.5069608764264733
1772094416125511700,4.89651171875,-17.68083322329521,1.2227172096326946,-0.390733228706941
1772094416135462000,4.9064619140625,-17.3701084010005,1.1129416606619953,-0.4353535108737647
1772094416145411800,4.916411865234375,-15.614206982469558,0.8686209361884742,-0.6310612302824854
1772094416155360800,4.92636083984375,-13.133634029805659,0.1945011200979352,-0.4786561345707625
1772094416165310700,4.936310791015625,-10.448520501327515,-0.5852267500203102,-0.2595041189495474
1772094416175259600,4.946259765625,-8.043569483619928,-1.128698690307513,-0.2907162361519411
1772094416185209900,4.9562099609375,-6.107732938221097,-1.5443030331596732,-0.3380220310756937
1772094416195158800,4.96615869140625,-4.771441079595685,-1.7493915982455015,-0.3258736569140106
1772094416205108700,4.976108642578125,-3.988955069875717,-1.8845568784080444,-0.30254816477559504
1772094416215058700,4.98605859375,-3.301498290893435,-1.772206948904693,-0.20300353897269813
1772094416225007900,4.9960078125,-2.4733032539218662,-1.41793583035022,-0.10112053335011005
1772094416234957600,5.00595751953125,-1.4010294114738702,-1.0344792415827513,0.01015117246247828
1772094416244906800,5.01590673828125,-0.259866157194972,-0.5421697716474533,0.12446312275379895
1772094416254856700,5.025856689453125,1.0302110627442598,-0.020123335096240043,0.2311274809014052
1772094416264806000,5.035805908203125,2.3726555987805127,0.5507330173313617,0.4143060466699302
1772094416274755800,5.045755859375,3.7526498210102317,1.161422344584018,0.630373467214033
1772094416284705500,5.05570556640625,5.022369897097349,1.6974749485254286,0.8738453197732567
1772094416294654700,5.06565478515625,6.051670859259366,2.1478807748414575,1.036267074847594
1772094416304604700,5.075604736328125,6.837441297477484,2.467460957634449,1.1212238243822008
1772094416314553900,5.085553955078125,7.4780544922202825,2.567432320949435,1.0971685566645115
1772094416324503600,5.095503662109375,8.04097420642972,2.5691683509618044,0.9913980786167085
1772094416334452700,5.10545263671875,8.598248023706674,2.580565358766913,0.8173874464269727
1772094416344402700,5.115402587890625,8.985676146453619,2.5356799228578804,0.7344402100838721
1772094416354352600,5.1253525390625,9.28118411039412,2.437296267125755,0.7688964603066444
1772094416364301600,5.135301513671875,9.400407871189714,2.324810144022107,0.8185179117616266
1772094416374251500,5.14525146484375,9.49541839722693,2.2200467241249977,0.8883029572580009
1772094416384200700,5.15520068359375,9.538550851988791,2.168340063893795,0.9792096281729638
1772094416394150700,5.165150634765625,9.472928917521237,2.096305193644017,1.074025070029497
1772094416404100600,5.1751005859375,9.329566740769147,1.9749943974412976,1.1615554694443941
1772094416414049500,5.185049560546875,9.15755363907218,1.9283736621722578,1.1080158946976064
1772094416423999700,5.194999755859375,8.967239157009125,1.9561355293229221,0.9273217661559581
1772094416433948700,5.20494873046875,8.830271649730205,2.1394947854205966,0.7777991670779884
1772094416443898600,5.214898681640625,8.547554778301715,2.2264543992102146,0.5536666596304625
1772094416453847600,5.22484765625,8.066611921033262,2.122382614839077,0.23933957506008444
1772094416463797800,5.2347978515625,7.60709822076261,1.9580369790300727,-0.04988225781563669
1772094416473747700,5.244747802734375,7.173202361351251,1.8527575724348424,-0.3406683808660134
1772094416483696600,5.254696533203125,6.882600289630889,1.791148088479042,-0.5711211408436297
1772094416493646600,5.264646484375,6.62090165631175,1.7298036852002143,-0.666160089257732
1772094416503595500,5.274595458984375,6.062598495987057,1.6999349088981746,-0.6977880572520196
1772094416513545700,5.284545654296875,5.065322319117188,1.4020903187036513,-0.6553136280074715
1772094416523494700,5.29449462890625,3.727534668976068,0.9532415125712752,-0.7806878742568194
1772094416533444600,5.304444580078125,2.2198621613383294,0.4689139813005924,-1.0135494124092161
1772094416543394800,5.314394775390625,0.688239453792572,-0.0035430794343352316,-1.0565000808633864
1772094416553343700,5.32434375,-0.9655202716469764,-0.3040229865685105,-0.8157813264045863
1772094416563293700,5.334293701171875,-2.5680600974589587,-0.37683483254015443,-0.39755394157245755
1772094416573242600,5.34424267578125,-3.937812327137589,-0.31786314974203705,-0.07305084235928952
1772094416583192600,5.354192626953125,-4.957900639796256,-0.32649361544325944,0.1002661815430969
1772094416593141800,5.364141845703125,-5.429033466190099,-0.5471585198454558,0.21828363528884945
1772094416603091700,5.374091796875,-5.448817778590321,-0.9800180219464003,0.16652224919572473
1772094416613041700,5.384041748046875,-5.830887589174509,-1.5020296794451773,0.07149784076362847
1772094416622990600,5.393990478515625,-6.78612261365056,-1.8954228480763733,0.3446696889292449
1772094416632940800,5.40394091796875,-7.925648622116446,-2.067352363143116,0.8179214071732014
1772094416642889700,5.4138896484375,-9.275096314913034,-1.8047861532092093,0.9169379539813846
1772094416652839700,5.423839599609375,-10.06910968081951,-1.360803491808474,0.7874363256037235
1772094416662788600,5.43378857421875,-9.899456878513098,-0.8124569312222302,0.49266266728714103
1772094416672738800,5.44373876953125,-8.903877568688989,-0.42851168215498325,0.14596238584574311
1772094416682688800,5.453688720703125,-7.2024623581051825,-0.3162676972441375,-0.09362654259921982
1772094416692637700,5.4636376953125,-5.336648612481356,-0.31014906823337074,-0.23394706836678086
1772094416702587600,5.473587646484375,-3.9266643256574865,-0.3672494042016566,-0.27374597652545196
1772094416712536800,5.483536865234375,-2.6786247509807346,-0.3448649923056364,-0.16845394791066645
1772094416722486800,5.49348681640625,-1.6938234402805565,-0.4734606848195195,0.15407522088102996
1772094416732435700,5.503435791015625,-1.3674439527362585,-1.3429375802502035,0.8847871311567723
1772094416742385700,5.5133857421875,-0.4148685028582811,-1.4390464229181408,1.2299728798493743
1772094416752336000,5.5233359375,-0.31409634455442426,-1.0735014845468103,1.0739929943908004
1772094416762284800,5.533284912109375,-0.021649521750211714,-0.6936218774832785,0.7825376668419688
1772094416772234800,5.54323486328125,0.2853267616659403,-0.5353079961191862,0.6475394138094037
1772094416782183700,5.55318359375,0.7638444376140833,-0.5192779216859489,0.43210130414478476
1772094416792134000,5.5631337890625,1.3862299017488955,-0.4504935045994818,0.2793248909026384
1772094416802082800,5.573082763671875,2.0233137533217667,-0.382458152314648,0.26691863298974927
1772094416812032800,5.58303271484375,2.7620670042991637,-0.4125521156746894,0.34756058806516227
1772094416821982700,5.592982666015625,3.5520576905608174,-0.5156399305097759,0.38734351320341226
1772094416831931600,5.602931640625,4.287697777953744,-0.5756673329059034,0.35500374367795884
1772094416841881900,5.6128818359375,4.676581360206008,-0.6195309514865279,0.2773262644313276
1772094416851830800,5.622830810546875,4.712953819313645,-0.6443941745862365,0.1966648740030825
1772094416861780700,5.63278076171875,4.396193808507919,-0.6370959804020822,0.18900113444216549
1772094416871729700,5.642729736328125,3.8888498510479925,-0.553258590286225,0.15464235324449838
1772094416881680000,5.652679931640625,3.346083867073059,-0.34974092777892946,0.11376249971501529
1772094416891629600,5.662629638671875,2.8591905769675967,-0.18410101437568663,0.07755030920300632
1772094416901578800,5.672578857421875,2.463630001169443,-0.10177052169144153,0.07676328701116145
1772094416911528700,5.68252880859375,2.078655701315403,-0.1544866512261331,0.11423968877270817
1772094416921478000,5.692477783203125,1.7059867562830446,-0.27091347477957606,0.26017515007890757
1772094416931427800,5.702427734375,1.3610539594382047,-0.3245185159780085,0.4706360558528453
1772094416941376800,5.712376708984375,1.1075982538074254,-0.28161095601320263,0.573027010997571
1772094416951326700,5.72232666015625,1.117565521070361,-0.15069339642301202,0.5571520905934274
1772094416961276700,5.732276611328125,1.1302438008576632,-0.08516673902347684,0.4319002651473507
1772094416971225900,5.742225830078125,0.9774462717622519,-0.10464169321358203,0.17625315041951833
1772094416981175600,5.752175537109375,0.6230839677929878,-0.18822920022159814,-0.020754582204483448
1772094416991124700,5.762124755859375,-0.09357026410102844,-0.3061427552014589,-0.04165643652570434
1772094417001074700,5.77207470703125,-0.8533820851981639,-0.30388942331671714,-0.01110726646927069
1772094417011024000,5.78202392578125,-1.4339409164726733,-0.09611819501817226,0.017657027181098236
1772094417020973600,5.7919736328125,-1.8725299021363258,0.20590324246957897,-0.004091744559351355
1772094417030923500,5.801923583984375,-2.068584973677993,0.5135707230202854,-0.11864475533124058
1772094417040872700,5.811872802734375,-1.8715788850218056,0.7008382386028766,-0.3534537012243643
1772094417050822700,5.82182275390625,-1.2915566448420286,0.7396632054291665,-0.6399796460796148
1772094417060771600,5.831771484375,-0.5398042115598917,0.6787848122268915,-0.8413318741813302
1772094417070721500,5.841721435546875,0.07322305712103844,0.569737358335033,-0.8052488264743238
1772094417080670700,5.851670654296875,0.6257686768323183,0.5147500689979643,-0.601256641790457
1772094417090617300,5.861617431640625,1.1212152757495641,0.5982285626735538,-0.41982513888496903
1772094417100567600,5.871567626953125,1.4611024796426295,0.7044388203781098,-0.22002788514029234
1772094417110516500,5.8815166015625,1.7306442276775835,0.7515998000036924,-0.06136109868530184
1772094417120466400,5.891466552734375,2.0838228748202323,0.7812005730193108,0.09405351757332682
1772094417130415400,5.901415283203125,2.452087447413802,0.7822286739580333,0.2325667929895222
1772094417140365600,5.911365478515625,2.720926015615463,0.7212714433658868,0.32200583903733637
1772094417150314500,5.921314453125,2.9152678534984586,0.5619007464252412,0.33978319552931935
1772094417160264400,5.931264404296875,3.0856209130287167,0.41944114453606307,0.4497191957587376
1772094417170214400,5.94121435546875,3.1446810047626492,0.23518932351283728,0.572401791771315
1772094417180163600,5.95116357421875,3.2540988263368607,0.07827734483592212,0.6138528327848762
1772094417190113500,5.961113525390625,3.354358943465352,-0.06902567849643527,0.6850400732293724
1772094417200062500,5.9710625,3.3730881938546893,-0.2496984719891101,0.8632195886015892
1772094417210012400,5.981012451171875,3.26476693534553,-0.44779220975153144,1.1289050995998084
1772094417219961600,5.990961669921875,3.0493717880398035,-0.5605188636127859,1.3368800337769091
1772094417229911600,6.00091162109375,2.475010057839751,-0.6475103338453918,1.3487205475658177
1772094417239861500,6.010861572265625,1.6590034713119268,-0.749877871581912,1.0967728353451938
1772094417249810400,6.020810546875,0.7336866152375936,-0.7681486376140266,0.7447297681037336
1772094417259760600,6.0307607421875,-0.40477614791095257,-0.8787200862027704,0.3825005666842684
1772094417269709600,6.04070947265625,-1.4982839170455933,-1.0523821241505444,-0.01307896954268217
1772094417279659500,6.050659423828125,-2.5268752696335315,-1.1498841016773134,-0.3279905760027468
1772094417289608400,6.0606083984375,-3.9959979741245504,-1.105277482709661,-0.4023241881815716
1772094417299558700,6.07055859375,-5.921406064489483,-0.96374639384225,-0.2679646349113434
1772094417309508600,6.080508544921875,-7.653599859696627,-0.6442385456331073,0.01926697399523109
1772094417319457500,6.09045751953125,-8.914439879235625,-0.23119608915820716,0.22891480982061474
1772094417329407500,6.100407470703125,-9.826257202267646,0.0494023288115859,0.19796050330419093
1772094417339356400,6.1103564453125,-10.613180317652224,0.37999746128953993,-0.10662687568143009
1772094417349306600,6.120306640625,-11.16847845094204,1.0088333436727523,-0.4592894630607217
1772094417359255600,6.130255615234375,-11.554954972052574,1.541269072291255,-0.6716498457804322
1772094417369205500,6.14020556640625,-11.80125379166603,1.6845938396424054,-0.9114923288613558
1772094417379155700,6.15015576171875,-11.5994441021204,1.5391564640514552,-1.1762038802608847
1772094417389104600,6.160104736328125,-10.457971051239968,0.9859752498503774,-1.284664547240734
1772094417399054600,6.1700546875,-8.568684660091996,0.042063218095153565,-1.2617895753487944
1772094417409003500,6.18000341796875,-6.4012628800868985,-0.919735987202078,-1.2021426967028528
1772094417418953500,6.189953369140625,-4.639522672399878,-1.8630875355303287,-0.9554516629014164
1772094417428902700,6.199902587890625,-3.5630946328818798,-2.7044591572001573,-0.5497779085636139
1772094417438852600,6.2098525390625,-3.2319612288087605,-2.9974256199643015,-0.22625994793027637
1772094417448802600,6.219802490234375,-3.4526275945156812,-2.707550401213765,-0.03774988494068384
1772094417458751500,6.22975146484375,-3.7060102349102495,-2.1746166599452494,-0.16652195693477986
1772094417468701700,6.23970166015625,-3.717039578446746,-1.4663774974361061,-0.30784210646525023
1772094417478650600,6.249650634765625,-3.359090648162365,-0.7439877906300127,-0.3377216964222491
1772094417488600600,6.2596005859375,-2.6071844856232405,-0.1392431240607053,-0.3649051791630685
1772094417498549500,6.269549560546875,-1.3514017494738102,0.27566271513327956,-0.23292817364782092
1772094417508499700,6.279499755859375,0.015343115082383155,0.335551439711079,0.023884148934483526
1772094417518449700,6.28944970703125,1.4856442157030105,0.34987105696462095,0.13836641429141164
1772094417528398600,6.299398681640625,2.927301990163326,0.5647570126391946,0.3008392419658601
1772094417538348500,6.3093486328125,4.337673230478167,0.9155101862005889,0.5800662254519761
1772094417548297700,6.319297607421875,5.556712920641899,0.6952814812585711,0.7988418089762329
1772094417558247700,6.32924755859375,6.335991074231266,0.6394285880681126,1.1136878028541803
1772094417568196600,6.339196533203125,6.641131374391913,1.0050433037400246,1.4895571513630448
1772094417578146600,6.349146484375,6.737312697774171,1.1429860857918859,1.688218459880352
1772094417588096500,6.359096435546875,6.894708076053857,1.0238073331817985,1.7179330685339866
1772094417598045700,6.369045654296875,7.148088962882757,0.9460485323272645,1.6984708276949823
1772094417607995400,6.378995361328125,7.467589796829223,0.97630265468508,1.6932463710449634
1772094417617944600,6.388944580078125,7.8064938349038355,1.0653668395385145,1.8118632519885896
1772094417627894500,6.39889453125,8.174405356276035,1.0284773708194495,1.9709017213001847
1772094417637843700,6.40884375,8.293336271604895,0.9325792482927441,2.174835855653882
1772094417647793400,6.41879345703125,8.153468366709351,0.8136208604350685,2.4158345230326055
1772094417657742600,6.42874267578125,7.9977266008555885,0.6818026987433433,2.4732728587836026
1772094417667692500,6.438692626953125,7.820503071033954,0.6433157316997646,2.2475179377660153
1772094417677642500,6.448642578125,7.805321868515014,0.771590229435265,1.9639003181055188
1772094417687591700,6.458591796875,7.824494771018624,1.002209541618824,1.753361086398363
1772094417697541400,6.468541259765625,7.625781878444552,1.1680933467805386,1.5713761873938141
1772094417707490600,6.478490478515625,7.173904956662654,1.1431035746917129,1.3886638508975504
1772094417717440500,6.4884404296875,6.596254706311226,1.0797114451028407,1.175617897066474
1772094417727389700,6.4983896484375,6.021175183230638,1.219972148708254,0.860776579363644
1772094417737339400,6.50833935546875,5.432230800926685,1.505685571604222,0.5722329014778137
1772094417747289300,6.518289306640625,4.619198846295475,1.7354881605774164,0.40260552587360143
1772094417757238500,6.528238525390625,3.649203475061059,1.7702900093674658,0.36732232330739495
1772094417767188500,6.5381884765625,2.54981716928184,1.6260340986460446,0.34062004821226
1772094417777137400,6.548137451171875,1.3572791170746088,1.3709155743695796,0.3260132845804095
1772094417787087400,6.55808740234375,0.3357885364025831,1.2121869016595184,0.28262758570984003
1772094417797036500,6.56803662109375,-0.731563631734252,1.0837021221742034,0.30046682845689354
1772094417806986500,6.577986572265625,-1.708362253242731,0.8256415530964731,0.2935690317671746
1772094417816936400,6.5879365234375,-2.3274457532227038,0.7020308093883096,0.11624291835390031
1772094417826885400,6.597885498046875,-2.776430460694432,0.7986810654565691,-0.02134915056414902
1772094417836835600,6.607835693359375,-3.065200640812516,0.7550168419055641,-0.03930529768913984
1772094417846784500,6.617784423828125,-3.5656495780616995,0.5132207405388355,0.053934419283270835
1772094417856734500,6.627734375,-4.687705980810523,0.5048736218236386,0.3339212081607431
1772094417866683400,6.637683349609375,-5.678237944117188,0.5445158963821828,0.6848851018633693
1772094417876633600,6.647633544921875,-6.120114280888438,0.5035448574379087,0.7244557724904268
1772094417886583600,6.65758349609375,-6.412797835057973,0.7366855047926306,0.2450443625729531
1772094417896532500,6.667532470703125,-6.305180925425887,0.8920422168515623,-0.3236018395245075
1772094417906482400,6.677482421875,-6.121516548901796,0.7007768638044596,-0.7732784747831523
1772094417916431400,6.687431396484375,-5.9867719783693545,0.4358306268662214,-1.031761360926181
1772094417926381600,6.697381591796875,-5.573839996531605,0.24844196912199257,-1.1079903949301688
1772094417936330500,6.70733056640625,-4.839383565965295,-0.09398322881609202,-0.9502220186196267
1772094417946280400,6.717280517578125,-4.039262530833483,-0.290685366089642,-0.7973547852888703
1772094417956229400,6.7272294921875,-3.259592163056135,-0.31926541775539513,-0.6454349888760597
1772094417966179600,6.7371796875,-2.6646511706858873,-0.4403920895628631,-0.34373869168944654
1772094417976129500,6.747129638671875,-2.1790911750108,-0.5657089796017855,-0.029070319400727747
1772094417986078500,6.757078369140625,-1.6893395728647709,-0.6379246863111854,0.16300116239748894
1772094417996028400,6.7670283203125,-1.1160884342551232,-0.7074919974036514,0.1917043289862573
1772094418005977600,6.7769775390625,-0.4092190987944603,-0.8147011299524456,0.12579575959704817
1772094418015927600,6.786927490234375,0.4089882126480341,-0.9875562354315072,0.07084551433473825
1772094418025876500,6.79687646484375,1.2654676793396473,-1.25871119081676,0.08468881931342184
1772094418035826400,6.806826416015625,2.0842238568365574,-1.4371058102443814,0.03806494223922491
1772094418045776600,6.816776611328125,2.741359147313237,-1.511684081366658,-0.01644333140924573
1772094418055725600,6.8267255859375,3.1725340573281047,-1.567739146065712,0.0816992090433836
1772094418065675500,6.836675537109375,3.571376723536849,-1.5842881298065186,0.21399138145502655
1772094418075624400,6.84662451171875,3.783203949227929,-1.5381033017367123,0.21853209362458437
1772094418085575000,6.856574951171875,3.757567403668165,-1.4886600563928485,0.1968073146810755
1772094418095523800,6.86652392578125,3.54325069924891,-1.4421332830175757,0.28029980034939944
1772094418105473800,6.876473876953125,3.205053932660818,-1.3206811786480248,0.3959417936680838
1772094418115423700,6.886423828125,2.9477456432551143,-1.1403873745355755,0.43122799190897493
1772094418125373000,6.896373046875,2.6725661815941333,-0.887462195584923,0.28414927885178476
1772094418135323000,6.906322998046875,2.2395108646601436,-0.6455041816547512,0.07015599770061672
1772094418145271800,6.916271728515625,1.807660831862688,-0.5805186819272116,-0.12623221478555352
1772094418155221800,6.9262216796875,1.373947927802801,-0.6021205286107957,-0.23065741570424286
1772094418165170700,6.936170654296875,0.9628454994797706,-0.5571943588325754,-0.27160127438064663
1772094418175121000,6.946120849609375,0.5813882678359746,-0.4922754215352237,-0.24600851316368205
1772094418185070800,6.95607080078125,0.18795593623816967,-0.42574185211546717,-0.11608478691643104
1772094418195019800,6.966019775390625,-0.14665186594724655,-0.3202538442708552,0.016785039252694697
1772094418204970000,6.975969970703125,-0.4124818999826908,-0.24096030812971292,-0.02251223952677101
1772094418214919000,6.9859189453125,-0.7985767282992601,-0.13173245616964996,-0.16202976008206604
1772094418224868900,6.995868896484375,-1.3358657421678304,-0.046573388995975254,-0.2791846969806589
1772094418234817800,7.00581787109375,-1.738877218493819,0.1581895243320614,-0.18513740821871905
1772094418244767700,7.015767822265625,-2.2747896833121777,0.4185658230062574,0.04799202362224459
1772094418254717000,7.025717041015625,-2.935056257551908,0.6088314974915235,0.21796832226198165
1772094418264667000,7.0356669921875,-3.2362825991392135,0.766591982756555,0.20967395664732902
1772094418274616800,7.045616943359375,-3.081197251367569,0.9236858938716351,-0.08788293917961418
1772094418284565800,7.055565673828125,-2.57143278876245,0.8889838521942496,-0.377462682114914
1772094418294516000,7.065515869140625,-1.8189257377207277,0.6410306895025074,-0.36973866373412306
1772094418304465000,7.07546484375,-1.1284586710065603,0.32379517013952136,-0.2151353273257613
1772094418314414800,7.085414794921875,-0.5465104312002659,0.02370331247486174,-0.0553289423815906
1772094418324363800,7.09536376953125,-0.0545674564898014,-0.06399257970005273,0.0463306662812829
1772094418334314000,7.10531396484375,0.21474398992061614,-0.08747764631435274,0.07745908725559711
1772094418344263700,7.115263671875,0.4727040212333202,-0.14127090356126426,-0.05539214381091297
1772094418354212900,7.125212890625,0.7512211028844118,-0.05878982342518866,-0.22559541960693894
1772094418364162600,7.13516259765625,1.0267594609856605,0.0020677461847662926,-0.201298013696447
1772094418374112000,7.145112060546875,1.3983388572156428,-0.023665830008685586,-0.07928527976945042
1772094418384061700,7.155061767578125,1.7849153315693138,-0.06060491002313792,0.07193404022380709
1772094418394011000,7.165010986328125,2.1008254475474355,-0.10129135987237095,0.1777975303173065
1772094418403960800,7.1749609375,2.2888053491830824,-0.1731123681757599,0.2375157936990261
1772094418413910800,7.184910888671875,2.4220529591560362,-0.3202189190879464,0.2847185666397214
1772094418423859700,7.194859619140625,2.4693197372436524,-0.426408937722072,0.3411704486366361
1772094418433809700,7.2048095703125,2.486729721727967,-0.44033268752582366,0.44078225792422887
1772094418443758800,7.2147587890625,2.4835212810754776,-0.4393157655682415,0.589999298184365
1772094418453708800,7.224708740234375,2.425367198270559,-0.38319370004758235,0.6278231982093304
1772094418463657700,7.23465771484375,2.3533014944911,-0.19287264211326838,0.5251531703948974
1772094418473607700,7.244607666015625,2.3919325461804863,-0.08674998962692916,0.48565103495940565
1772094418483557600,7.2545576171875,2.5517209570765496,-0.10768661386743188,0.38868214139603074
1772094418493506600,7.264506591796875,2.7322084571301937,-0.14322116084620357,0.20503369309343397
1772094418503456800,7.274456787109375,2.8683915360331533,-0.2737122386526316,0.21816431975811718
1772094418513405700,7.28440576171875,2.8998142637789246,-0.4537910848401487,0.2905240380480885
1772094418523355600,7.294355712890625,2.798741076701879,-0.5180437767811119,0.308182005944103
1772094418533304600,7.3043046875,2.5763591392487286,-0.5147892319645733,0.2337657935157418
1772094418543254800,7.3142548828125,2.216502329516411,-0.5373030423939228,0.019204905077069997
1772094418553204700,7.324204833984375,1.5097861387908458,-0.5367820141945034,-0.3211435596521944
1772094418563153700,7.334153564453125,0.5304647208064794,-0.7381533123228698,-0.6044514923090115
1772094418573103600,7.344103515625,-0.801273712298274,-0.820611011583358,-0.9463514607965946
1772094418583052800,7.354052734375,-2.3626807327330113,-0.8393730682637542,-1.1845176812283693
1772094418593002800,7.364002685546875,-4.090874644649029,-0.6212127670936286,-1.3471383929409086
1772094418602951700,7.37395166015625,-5.84808130055964,-0.16499050958380101,-1.3240228902913629
1772094418612901600,7.383901611328125,-7.926210932174325,0.1305391547318548,-1.1970684621784835
1772094418622850800,7.393850830078125,-10.420483324366808,0.4072722755756229,-1.1612902426369487
1772094418632800800,7.40380078125,-12.377040586233138,0.8395429449379443,-1.0831212535463273
1772094418642750700,7.413750732421875,-13.178546353721618,1.1938193241894244,-1.0840047583825885
1772094418652699600,7.42369970703125,-12.834066561341285,1.3187620471537111,-1.2570786211788654
1772094418662649900,7.43364990234375,-11.609935100996493,1.0408112210832536,-1.3102978779301047
1772094418672598800,7.443598876953125,-10.02043420497775,0.37333924550935627,-1.2447449170455336
1772094418682548700,7.453548828125,-8.086931070962548,-0.4945851597823202,-1.0784861410915851
1772094418692497700,7.46349755859375,-5.907645834684372,-1.3399237853869794,-1.151478165935725
1772094418702447900,7.47344775390625,-4.092566835519671,-2.046663649249077,-1.1160827351666986
1772094418712397800,7.483397705078125,-2.902809353941679,-2.3620757525771854,-0.7639391301602124
1772094418722346800,7.4933466796875,-2.3332582388937473,-2.2739634616211055,-0.3462644838400185
1772094418732296700,7.503296630859375,-2.0486521927177903,-2.005332252559811,-0.11381357231512665
1772094418742245600,7.51324560546875,-2.20108030397892,-1.4585248842395842,-0.20066461116373538
1772094418752195800,7.52319580078125,-2.3163106112241745,-0.8709681569017469,-0.25726605769917366
1772094418762144800,7.533144775390625,-2.0998487114697695,-0.4791700023770332,-0.12967194344326852
1772094418772094700,7.5430947265625,-1.7629519215643406,0.06843465380072593,0.044377194125950335
1772094418782045000,7.553044921875,-0.7873468937546014,0.4221593905188143,0.7476156257383525
1772094418791993900,7.562993896484375,0.5800210711359978,0.6651537617594003,1.5606559098064898
1772094418801943800,7.57294384765625,1.9105448677539825,0.9132552468806505,2.1058502899721265
1772094418811892700,7.582892822265625,3.1392548880606888,0.9600273733191191,2.3516933286421
1772094418821842700,7.5928427734375,4.265453212919831,0.8276432483077049,2.306630782600492
1772094418831791900,7.6027919921875,5.228445427393913,0.6023854631572961,2.0715005688637493
1772094418841741800,7.612741943359375,6.027808922156691,0.5035676537916064,1.7880873857341706
1772094418851691800,7.62269189453125,6.52720396643877,0.6713372726999223,1.614160997761786
1772094418861640700,7.632640625,6.710783002766966,0.7604238155156373,1.842027211844921
1772094418871591000,7.6425908203125,6.848113498139381,0.8115247649386524,2.1934005631312727
1772094418881539800,7.652539794921875,6.935370925831794,1.1019956114947795,2.4211187470458446
1772094418891489800,7.66248974609375,7.0573811024755235,1.2553402530789375,2.5180507426649332
1772094418901438700,7.672438720703125,7.381957924512029,1.5879665260583162,2.5032728602498766
1772094418911389000,7.682388916015625,7.728643117982148,1.7155160705201327,2.435199440976977
1772094418921339000,7.6923388671875,7.881400315067172,1.3884342799253762,2.425182050962001
1772094418931287800,7.702287841796875,7.693979800879955,1.0345312640309334,2.397132014519721
1772094418941237800,7.71223779296875,7.2853878940731285,0.7673666203908622,2.206790059927851
1772094418951187000,7.72218701171875,6.8273115331292145,0.5850535123452544,1.7668819544896481
1772094418961137000,7.732136962890625,6.282718333727121,0.6004923428870738,1.1657345817599445
1772094418971085800,7.7420859375,5.630886994877457,0.697890786974132,0.5995717209108173
1772094418981035800,7.752035888671875,4.940671857097745,0.8151834335766732,-0.0844846750434488
1772094418990984700,7.761984619140625,4.354861681166291,1.0150545562751592,-0.813260941081494
1772094419000935000,7.771934814453125,3.9815257966578006,1.21744774479717,-1.3465288827404378
1772094419010884900,7.781884765625,3.7387259250760074,1.3059475737661121,-1.6955127085417507
1772094419020833800,7.791833740234375,3.6136195359826084,1.1442451459422707,-1.902977355109155
1772094419030784000,7.801783935546875,3.4758997490316625,0.8961630961738526,-1.831906653716415
1772094419040733000,7.81173291015625,3.210549607467651,0.688334438599646,-1.5957780765920877
1772094419050683000,7.821682861328125,2.7677374511510133,0.3162101218380034,-1.184373377386853
1772094419060632800,7.8316328125,2.2783201955258843,-0.05335808070003986,-0.7938045454613863
1772094419070581800,7.841581787109375,0.9375403778314589,-0.5283319465614855,-0.2725737361419946
1772094419080531700,7.85153173828125,-0.8083446735978126,-0.8072010565206408,0.12889449279736725
1772094419090480600,7.861480712890625,-2.64674141998589,-0.7921471336431801,-0.28064364535100755
1772094419100430600,7.8714306640625,-3.9631951901972293,-0.6325508843183517,-1.1247080863013863
1772094419110379500,7.881379638671875,-4.406276811105013,-0.5284956126905977,-1.7685462344400584
1772094419120329700,7.891329833984375,-4.166844370129704,-0.5331720800690353,-1.8736510151207446
1772094419130278700,7.901278564453125,-3.7650662349909543,-0.9138786394760012,-1.4660552797444164
1772094419140228600,7.911228515625,-3.613823534122109,-1.5724514154098927,-1.2317460270017384
1772094419150178600,7.921178466796875,-3.9047359869658944,-2.140695101121068,-0.6956511913537978
1772094419160127700,7.931127685546875,-4.47530650818944,-1.844596039419621,0.17286723430827258
1772094419170077400,7.941077392578125,-5.159765858921408,-1.1606921306133269,0.6958934026118367
1772094419180026600,7.951026611328125,-6.169395321407913,-0.7629296608567238,0.6315984789643436
1772094419189976600,7.9609765625,-7.210524668529629,0.03494271856546402,0.03763930070567876
1772094419199925500,7.970925537109375,-7.641994177576899,0.662464961066842,-0.7069887971218675
1772094419209875500,7.98087548828125,-7.286609544822573,1.001963896294683,-1.0702946513295173
1772094419219825400,7.990825439453125,-7.323642513665557,1.2945569957017897,-0.25012847917051984
1772094419229774600,8.000774658203126,-6.33837124736607,0.3248438024096191,0.6796227243557572
1772094419239724500,8.010724609375,-4.528728886297345,0.06229103647917509,1.1484581605274229
1772094419249673700,8.020673828125,-3.044467649385333,0.25568214950859547,1.1239286994267255
1772094419259623400,8.03062353515625,-2.0349305413573977,0.2192062300264835,1.1142055431179703
1772094419269572600,8.040572509765624,-1.386255036190152,-0.08899433448761701,1.058212730000168
1772094419279522300,8.050522216796875,-0.7655296142220497,-0.2973920971866697,0.639343101741746
1772094419289472500,8.060472412109375,-0.23200492132306097,-0.30931605147533114,0.3288753594806418
1772094419299421400,8.07042138671875,0.4660042313337326,-0.4275487554069608,-0.021636296942457556
1772094419309371400,8.080371337890625,1.393522981366515,-0.7121474950592964,-0.2815790447712876
