time,seconds_elapsed,z,y,x
1772094411309908500,0.080908447265625,-0.10171724855899811,-0.08127616345882416,-0.02228027582168579
1772094411319857400,0.090857421875,-0.07770740985870361,-0.101597860455513,-0.12195121496915817
1772094411329807600,0.1008076171875,-0.05332323908805847,-0.11967619508504868,-0.20270971953868866
1772094411339756500,0.110756591796875,-0.027486708015203476,-0.1325802206993103,-0.2502816319465637
1772094411349706500,0.12070654296875,-0.013214562088251114,-0.1580674648284912,-0.2661045789718628
1772094411359656400,0.130656494140625,-0.02091158926486969,-0.17475435137748718,-0.25752323865890503
1772094411369605400,0.14060546875,-0.0422096885740757,-0.19799333810806274,-0.23779615759849548
1772094411379555600,0.1505556640625,-0.06899852305650711,-0.21994633972644806,-0.21943742036819458
1772094411389504500,0.16050439453125,-0.1035088300704956,-0.23725688457489014,-0.20885375142097473
1772094411399454500,0.170454345703125,-0.1283852756023407,-0.2245854288339615,-0.20609357953071594
1772094411409404400,0.180404296875,-0.139927938580513,-0.17941580712795258,-0.20537930727005005
1772094411419353600,0.190353515625,-0.1394931674003601,-0.1414150893688202,-0.20738281309604645
1772094411429303300,0.20030322265625,-0.13821083307266235,-0.087484210729599,-0.19759011268615723
1772094411439252500,0.21025244140625,-0.12605713307857513,0.00490679033100605,-0.17521610856056213
1772094411449202200,0.2202021484375,-0.10888933390378952,0.09895099699497223,-0.1375342458486557
1772094411459152400,0.23015234375,-0.0819709375500679,0.19182360172271729,-0.07414498925209045
1772094411469101300,0.240101318359375,-0.037224769592285156,0.2987646758556366,0.01667652279138565
1772094411479051300,0.25005126953125,0.010747229680418968,0.39418771862983704,0.11712299287319183
1772094411489000400,0.26000048828125,0.046587251126766205,0.42831292748451233,0.1982484757900238
1772094411498950400,0.269950439453125,0.08194787055253983,0.4063628613948822,0.23579150438308716
1772094411508900400,0.279900390625,0.10927270352840424,0.3625815510749817,0.22894585132598877
1772094411518849300,0.289849365234375,0.13663077354431152,0.2942050099372864,0.21155083179473877
1772094411528799200,0.29979931640625,0.13668829202651978,0.2436952441930771,0.195976123213768
1772094411538748400,0.30974853515625,0.10213391482830048,0.21356134116649628,0.16361038386821747
1772094411548698400,0.319698486328125,0.026197604835033417,0.13436879217624664,0.11356425285339355
1772094411558648300,0.3296484375,-0.04221591353416443,-0.012986593879759312,0.08636269718408585
1772094411568597200,0.33959716796875,-0.11379528790712357,-0.12101825326681137,0.10972315073013306
1772094411578547500,0.34954736328125,-0.17136931419372559,-0.13566142320632935,0.1694149225950241
1772094411588496400,0.359496337890625,-0.22186657786369324,-0.08468984812498093,0.22451971471309662
1772094411598446300,0.3694462890625,-0.2549387514591217,0.011997492052614689,0.2303580790758133
1772094411608396300,0.379396240234375,-0.25235575437545776,0.16657321155071259,0.18674960732460022
1772094411618345500,0.389345458984375,-0.21940822899341583,0.34435898065567017,0.09455358237028122
1772094411628295400,0.39929541015625,-0.1661711037158966,0.49448269605636597,-0.020004689693450928
1772094411638244400,0.409244384765625,-0.11230488866567612,0.607830822467804,-0.1241217702627182
1772094411648194300,0.4191943359375,-0.06012558192014694,0.6531093716621399,-0.2213636338710785
1772094411658144500,0.42914453125,-0.00510990247130394,0.6570051908493042,-0.31833165884017944
1772094411668093400,0.439093505859375,0.0350755974650383,0.546880841255188,-0.40957048535346985
1772094411678043400,0.44904345703125,0.04591839760541916,0.36223772168159485,-0.47301363945007324
1772094411687992300,0.458992431640625,0.03748150169849396,0.24361225962638855,-0.48153549432754517
1772094411697942500,0.468942626953125,0.0273427814245224,0.18147727847099304,-0.4116663634777069
1772094411707892500,0.478892578125,0.03648754581809044,0.18836048245429993,-0.2805839776992798
1772094411717841400,0.48884130859375,0.08214367181062698,0.2478664666414261,-0.08974561840295792
1772094411727791400,0.498791259765625,0.13149791955947876,0.3613450825214386,0.12165024876594543
1772094411737740500,0.508740478515625,0.17500542104244232,0.49082183837890625,0.3061823844909668
1772094411747690500,0.5186904296875,0.2146843820810318,0.5884178876876831,0.41263771057128906
1772094411757640400,0.528640380859375,0.2654288113117218,0.6485531330108643,0.4305081367492676
1772094411767589400,0.53858935546875,0.32278531789779663,0.6510609984397888,0.38382798433303833
1772094411777539600,0.54853955078125,0.3513752520084381,0.5996353626251221,0.2844640612602234
1772094411787488500,0.558488525390625,0.3458411991596222,0.48197394609451294,0.16298076510429382
1772094411797438500,0.5684384765625,0.3271856904029846,0.3626055419445038,0.07626445591449738
1772094411807388400,0.578388427734375,0.3108953833580017,0.29565685987472534,0.04373234137892723
1772094411817337600,0.588337646484375,0.28355610370635986,0.25387948751449585,0.050106242299079895
1772094411827287600,0.59828759765625,0.2540282905101776,0.18104977905750275,0.08570578694343567
1772094411837236500,0.608236572265625,0.21979673206806183,0.049572959542274475,0.14360101521015167
1772094411847186400,0.6181865234375,0.17222654819488525,-0.13264958560466766,0.1836291253566742
1772094411857136400,0.628136474609375,0.11854676902294159,-0.2173340618610382,0.20659774541854858
1772094411867085600,0.63808544921875,0.08229661732912064,-0.2329535037279129,0.17889687418937683
1772094411877035300,0.64803515625,0.04719533771276474,-0.27892857789993286,0.11464529484510422
1772094411886984400,0.657984375,0.023523829877376556,-0.2770316004753113,0.04522174596786499
1772094411896934400,0.667934326171875,0.001956998836249113,-0.26182425022125244,-0.04586758464574814
1772094411906884400,0.67788427734375,-0.05173445865511894,-0.26599767804145813,-0.15440790355205536
1772094411916833300,0.687833251953125,-0.14293664693832397,-0.2781759798526764,-0.2713609039783478
1772094411926783200,0.697783203125,-0.18779945373535156,-0.2848844826221466,-0.3929600417613983
1772094411936732400,0.707732421875,-0.18107420206069946,-0.2800820469856262,-0.5227592587471008
1772094411946682400,0.717682373046875,-0.12917131185531616,-0.31036484241485596,-0.6110068559646606
1772094411956632300,0.72763232421875,-0.06245976313948631,-0.30473271012306213,-0.6201263070106506
1772094411966581200,0.737581298828125,-0.006520599126815796,-0.26944103837013245,-0.5224260687828064
1772094411976531500,0.747531494140625,0.02273002453148365,-0.2508012354373932,-0.34892067313194275
1772094411986480400,0.75748046875,0.012955691665410995,-0.243565171957016,-0.1414012908935547
1772094411996430300,0.767430419921875,-0.024744652211666107,-0.24200482666492462,0.05178811773657799
1772094412006380300,0.77738037109375,-0.06464493274688721,-0.23592109978199005,0.17383360862731934
1772094412016329200,0.7873291015625,-0.09188905358314514,-0.27573490142822266,0.2118820995092392
1772094412026279400,0.797279541015625,-0.08101536333560944,-0.34839072823524475,0.18801085650920868
1772094412036228400,0.807228271484375,-0.06126423180103302,-0.40963014960289,0.13210013508796692
1772094412046178300,0.81717822265625,-0.0361064150929451,-0.4077123999595642,0.07282135635614395
1772094412056128500,0.82712841796875,-0.010663473978638649,-0.3604658246040344,0.028353732079267502
1772094412066077400,0.837077392578125,0.0015891971997916698,-0.2859460413455963,0.013032033108174801
1772094412076027400,0.84702734375,0.005620976909995079,-0.21475669741630554,0.02538873255252838
1772094412085976300,0.856976318359375,-0.011323384940624237,-0.14940272271633148,0.047002147883176804
1772094412095926500,0.866926513671875,-0.039489470422267914,-0.09404674172401428,0.06543077528476715
1772094412105876500,0.87687646484375,-0.06168798357248306,-0.05021191015839577,0.07702165096998215
1772094412115825400,0.886825439453125,-0.07029765099287033,-0.019531533122062683,0.09376329183578491
1772094412125775400,0.896775390625,-0.056679047644138336,-0.011737792752683163,0.10715845972299576
1772094412135724500,0.906724609375,-0.026424309238791466,-0.008067075163125992,0.12502719461917877
1772094412145674500,0.916674560546875,0.00386595306918025,-0.023442037403583527,0.1487671434879303
1772094412155624400,0.92662451171875,0.027062145993113518,-0.03821399435400963,0.18192026019096375
1772094412165573400,0.936573486328125,0.025546807795763016,-0.03731038421392441,0.21922741830348969
1772094412175523600,0.946523681640625,0.006244689226150513,-0.031925104558467865,0.23048250377178192
1772094412185472500,0.956472412109375,-0.008730264380574226,-0.040222182869911194,0.20827412605285645
1772094412195422500,0.96642236328125,-0.01995866559445858,-0.05857747793197632,0.15664729475975037
1772094412205371400,0.976371337890625,-0.027988629415631294,-0.06345212459564209,0.11150752007961273
1772094412215321600,0.986321533203125,-0.038895465433597565,-0.07038179785013199,0.08515294641256332
1772094412225271600,0.996271484375,-0.05354258418083191,-0.07431821525096893,0.09126836061477661
1772094412235220500,1.006220458984375,-0.05933848395943642,-0.04790714755654335,0.10831855237483978
1772094412245170400,1.01617041015625,-0.08497700095176697,-0.009251631796360016,0.11230503767728806
1772094412255119600,1.02611962890625,-0.12536096572875977,-0.029466353356838226,0.06291644275188446
1772094412265069600,1.036069580078125,-0.14403052628040314,-0.07644078880548477,-0.020410936325788498
1772094412275019500,1.04601953125,-0.11893611401319504,-0.099472776055336,-0.12381947040557861
1772094412284968400,1.055968505859375,-0.04654553532600403,-0.1639106273651123,-0.24944105744361877
1772094412294918700,1.065918701171875,0.05695926770567894,-0.24129483103752136,-0.3693213164806366
1772094412304867600,1.07586767578125,0.1698589324951172,-0.3363422453403473,-0.44507813453674316
1772094412314817500,1.085817626953125,0.26532283425331116,-0.4453381896018982,-0.45347362756729126
1772094412324767200,1.095767333984375,0.3312571346759796,-0.5660409331321716,-0.40087834000587463
1772094412334716700,1.105716552734375,0.32392293214797974,-0.7821487784385681,-0.30795955657958984
1772094412344666400,1.115666259765625,0.2373262494802475,-1.1313860416412354,-0.19771750271320343
1772094412354615600,1.125615478515625,0.08095449209213257,-1.6044024229049683,-0.06298045068979263
1772094412364565200,1.135565185546875,-0.10079240798950195,-2.168494462966919,0.11767242103815079
1772094412374515500,1.145515380859375,-0.22942963242530823,-2.602743625640869,0.4387471377849579
1772094412384464400,1.15546435546875,-0.22688978910446167,-2.639237642288208,0.9526333808898926
1772094412394414300,1.165414306640625,-0.11600841581821442,-2.144968032836914,1.5541691780090332
1772094412404363500,1.175363525390625,0.04277830198407173,-1.3034181594848633,2.0719923973083496
1772094412414313500,1.1853134765625,0.2102854698896408,-0.43014684319496155,2.371035099029541
1772094412424263400,1.195263427734375,0.3121742904186249,0.37389957904815674,2.4305481910705566
1772094412434212400,1.20521240234375,0.3154660761356354,0.7791244387626648,2.216282367706299
1772094412444162300,1.215162353515625,0.2587130665779114,0.7173476219177246,1.7802814245224
1772094412454111200,1.225111328125,0.17130422592163086,0.422469824552536,1.2975821495056152
1772094412464061400,1.2350615234375,0.054885461926460266,-0.06492992490530014,0.8512709140777588
1772094412474011400,1.245011474609375,-0.09157385677099228,-0.5657392144203186,0.5269492864608765
1772094412483960300,1.254960205078125,-0.23536750674247742,-0.927943229675293,0.3405418395996094
1772094412493910500,1.26491064453125,-0.35594823956489563,-1.0087862014770508,0.22261089086532593
1772094412503859500,1.274859375,-0.41593727469444275,-0.853275716304779,0.1665622591972351
1772094412513809400,1.284809326171875,-0.4273538887500763,-0.558736264705658,0.14893022179603577
1772094412523759400,1.29475927734375,-0.3744344711303711,-0.2377452254295349,0.0841946229338646
1772094412533708300,1.304708251953125,-0.27269917726516724,0.039378341287374496,-0.1294633448123932
1772094412543658500,1.314658447265625,-0.11582408845424652,0.09805044531822205,-0.5011610388755798
1772094412553607400,1.324607421875,0.05803883075714111,0.12648406624794006,-0.8402926921844482
1772094412563557400,1.334557373046875,0.18503859639167786,0.13043168187141418,-1.016337513923645
1772094412573507600,1.344507568359375,0.26388585567474365,0.024276703596115112,-1.018120288848877
1772094412583456500,1.35445654296875,0.2563030421733856,-0.12221313267946243,-0.8955575823783875
1772094412593406500,1.364406494140625,0.13407351076602936,-0.2845340669155121,-0.7311757802963257
1772094412603355400,1.37435546875,-0.08219940215349197,-0.3409920036792755,-0.5929047465324402
1772094412613305300,1.384305419921875,-0.29196685552597046,-0.18601445853710175,-0.45932310819625854
1772094412623254500,1.394254638671875,-0.4377126097679138,0.1170964166522026,-0.32703831791877747
1772094412633204500,1.40420458984375,-0.5059172511100769,0.5124661922454834,-0.20662645995616913
1772094412643154400,1.414154541015625,-0.49466782808303833,0.894596517086029,-0.10901149362325668
1772094412653103400,1.424103271484375,-0.419039785861969,1.1825809478759766,-0.05375590920448303
1772094412663053600,1.434053466796875,-0.2930155396461487,1.394609808921814,-0.03287725895643234
1772094412673002500,1.44400244140625,-0.15296949446201324,1.5299880504608154,-0.03249990940093994
1772094412682952400,1.453952392578125,0.003154049627482891,1.5789870023727417,-0.030948620289564133
1772094412692902400,1.46390234375,0.1520988941192627,1.5227839946746826,-0.031011462211608887
1772094412702851600,1.4738515625,0.2727624475955963,1.366758108139038,0.003638927359133959
1772094412712801500,1.483801513671875,0.3634037375450134,1.1825625896453857,0.08605548739433289
1772094412722750500,1.49375048828125,0.4703464210033417,0.9991509914398193,0.16764596104621887
1772094412732700400,1.503700439453125,0.5665481686592102,0.8286875486373901,0.225070983171463
1772094412742650600,1.513650634765625,0.5280407071113586,0.6201527118682861,0.285186231136322
1772094412752599600,1.523599609375,0.46714380383491516,0.40562236309051514,0.3520638346672058
1772094412762549500,1.533549560546875,0.4577454924583435,0.2635488510131836,0.4182593822479248
1772094412772498400,1.54349853515625,0.4924958646297455,0.3175109922885895,0.4573616683483124
1772094412782448600,1.55344873046875,0.5412583947181702,0.5084918737411499,0.4893622100353241
1772094412792398300,1.5633984375,0.6178697943687439,0.62945157289505,0.518693745136261
1772094412802347500,1.573347412109375,0.6824637055397034,0.6966602206230164,0.5088789463043213
1772094412812297500,1.58329736328125,0.6925218105316162,0.7066716551780701,0.4131641089916229
1772094412822246700,1.59324658203125,0.6728000044822693,0.5510641932487488,0.20267930626869202
1772094412832196400,1.6031962890625,0.632856011390686,0.2736591696739197,-0.07978569716215134
1772094412842146300,1.613146240234375,0.5724731087684631,0.024654945358633995,-0.3409954607486725
1772094412852095500,1.623095458984375,0.5572851896286011,-0.20186547935009003,-0.5263010263442993
1772094412862045400,1.63304541015625,0.5473781824111938,-0.5367851853370667,-0.6017968654632568
1772094412871994400,1.642994384765625,0.5290206074714661,-0.8572453856468201,-0.524185836315155
1772094412881944300,1.6529443359375,0.49242427945137024,-0.9947864413261414,-0.349164217710495
1772094412891894300,1.662894287109375,0.37080636620521545,-1.096105933189392,-0.18754331767559052
1772094412901843500,1.672843505859375,0.18463942408561707,-1.0931428670883179,-0.08941727876663208
1772094412911793400,1.68279345703125,-0.007784576620906591,-1.1325056552886963,-0.18378499150276184
1772094412921742300,1.692742431640625,-0.1228397935628891,-1.3958393335342407,-0.5485408902168274
1772094412931692300,1.7026923828125,-0.18396887183189392,-1.7047420740127563,-0.9917177557945251
1772094412941641200,1.71264111328125,-0.1849646270275116,-1.6541242599487305,-1.2433617115020752
1772094412951591400,1.72259130859375,-0.08903270959854126,-1.2529709339141846,-1.2893189191818237
1772094412961541400,1.732541259765625,-0.029475102201104164,-0.8116998672485352,-1.32591712474823
1772094412971490300,1.742490234375,-0.048295848071575165,-0.17283941805362701,-1.3311541080474854
1772094412981440500,1.7524404296875,-0.04147176444530487,0.4937112033367157,-1.3960883617401123
1772094412991389400,1.762389404296875,-0.017283089458942413,0.9002074599266052,-1.5828806161880493
1772094413001339400,1.77233935546875,-0.04019133374094963,1.1992123126983643,-1.7307381629943848
1772094413011289300,1.782289306640625,-0.06274469941854477,1.361889123916626,-1.776180624961853
1772094413021238300,1.79223828125,-0.05914410948753357,1.3776624202728271,-1.7386329174041748
1772094413031188500,1.8021884765625,-0.02218373492360115,1.241255521774292,-1.6248830556869507
1772094413041137400,1.812137451171875,0.03394824266433716,0.9865103960037231,-1.430806279182434
1772094413051087400,1.82208740234375,0.12251396477222443,0.7604821920394897,-1.129392385482788
1772094413061037600,1.83203759765625,0.21192693710327148,0.5929365754127502,-0.7755589485168457
1772094413070986500,1.841986572265625,0.2937175929546356,0.5159557461738586,-0.4312877357006073
1772094413080936400,1.8519365234375,0.3834293782711029,0.433066725730896,-0.14311452209949493
1772094413090885400,1.861885498046875,0.4834548234939575,0.28512564301490784,0.08464687317609787
1772094413100835300,1.87183544921875,0.5645549893379211,0.04925772547721863,0.2795982360839844
1772094413110785300,1.881785400390625,0.5926048159599304,-0.26310649514198303,0.4898092448711395
1772094413120734200,1.891734130859375,0.5671015977859497,-0.5887402892112732,0.7240534424781799
1772094413130684400,1.901684326171875,0.5036911368370056,-0.8665533661842346,0.9467817544937134
1772094413140633300,1.91163330078125,0.414218008518219,-1.0416710376739502,1.1260837316513062
1772094413150583300,1.921583251953125,0.33348679542541504,-1.0587502717971802,1.2193728685379028
1772094413160533500,1.931533447265625,0.25218260288238525,-0.8979392051696777,1.1616661548614502
1772094413170482400,1.941482421875,0.17220556735992432,-0.6618504524230957,0.9684828519821167
1772094413180432400,1.951432373046875,0.09506897628307343,-0.4055560827255249,0.6591726541519165
1772094413190381300,1.96138134765625,0.04217524081468582,-0.11334177851676941,0.2685045599937439
1772094413200331300,1.971331298828125,-0.0015975413843989372,0.2235824465751648,-0.13289961218833923
1772094413210280400,1.981280517578125,-0.025726107880473137,0.5531424283981323,-0.47445449233055115
1772094413220230400,1.99123046875,-0.034492701292037964,0.790310800075531,-0.7046964764595032
1772094413230180400,2.001180419921875,-0.04419691115617752,0.8875014185905457,-0.7780225276947021
1772094413240129300,2.01112939453125,-0.08939768373966217,0.8914665579795837,-0.7205203771591187
1772094413250079500,2.02107958984375,-0.1734565943479538,0.8568851351737976,-0.5986582636833191
1772094413260028400,2.0310283203125,-0.25668567419052124,0.7640164494514465,-0.4698302447795868
1772094413269978400,2.040978271484375,-0.3280767798423767,0.6232818961143494,-0.3656013309955597
1772094413279928300,2.05092822265625,-0.38879579305648804,0.41817668080329895,-0.3248659074306488
1772094413289877500,2.06087744140625,-0.4166834056377411,0.12821811437606812,-0.352589875459671
1772094413299827500,2.070827392578125,-0.4151632785797119,-0.2031387835741043,-0.4138295352458954
1772094413309776400,2.0807763671875,-0.361246258020401,-0.47906675934791565,-0.43728095293045044
1772094413319726300,2.090726318359375,-0.2811514139175415,-0.6530004143714905,-0.40515947341918945
1772094413329676300,2.10067626953125,-0.19481836259365082,-0.7097604870796204,-0.350215882062912
1772094413339625500,2.11062548828125,-0.12447521835565567,-0.6184207201004028,-0.2743951678276062
1772094413349575200,2.1205751953125,-0.07677118480205536,-0.4139731526374817,-0.19434909522533417
1772094413359524400,2.1305244140625,-0.05349542573094368,-0.1780836433172226,-0.14270082116127014
1772094413369474300,2.140474365234375,-0.039132010191679,-0.03156805783510208,-0.11583948880434036
1772094413379424300,2.15042431640625,0.000817800872027874,0.07790490984916687,-0.08882198482751846
1772094413389373200,2.160373291015625,0.022936051711440086,0.22500336170196533,-0.05637723580002785
1772094413399323100,2.1703232421875,0.019486192613840103,0.35964933037757874,-0.04881438985466957
1772094413409272300,2.180272216796875,-0.010484632104635239,0.44093018770217896,-0.09044819325208664
1772094413419222300,2.19022216796875,-0.05022512003779411,0.48196175694465637,-0.1550506204366684
1772094413429171200,2.200171142578125,-0.06482736766338348,0.5168483853340149,-0.20549380779266357
1772094413439121200,2.21012109375,-0.07499851286411285,0.5224338173866272,-0.21793662011623383
1772094413449071400,2.2200712890625,-0.06780058145523071,0.5022560954093933,-0.20379090309143066
1772094413459020300,2.230020263671875,-0.06131817400455475,0.4891943633556366,-0.18184299767017365
1772094413468970200,2.23997021484375,-0.06721942871809006,0.4948301911354065,-0.17968443036079407
1772094413478919200,2.249919189453125,-0.09673497825860977,0.4757494628429413,-0.23583531379699707
1772094413488869400,2.259869384765625,-0.15904255211353302,0.3458212912082672,-0.3614383637905121
1772094413498819300,2.2698193359375,-0.23846334218978882,0.11253371089696884,-0.5037824511528015
1772094413508768300,2.279768310546875,-0.29816168546676636,-0.11979410797357559,-0.5810770392417908
1772094413518718200,2.28971826171875,-0.32802078127861023,-0.3223397731781006,-0.5350618958473206
1772094413528667100,2.299667236328125,-0.3642558157444,-0.5287334322929382,-0.3763400912284851
1772094413538617300,2.309617431640625,-0.372589647769928,-0.6790473461151123,-0.13769316673278809
1772094413548567300,2.3195673828125,-0.3275570571422577,-0.7688788175582886,0.07565859705209732
1772094413558516200,2.32951611328125,-0.19821611046791077,-0.8609243631362915,0.19375008344650269
1772094413568466400,2.339466552734375,0.0033373781479895115,-0.9537366628646851,0.2784755527973175
1772094413578415400,2.349415283203125,0.23193487524986267,-0.9347012042999268,0.4361514449119568
1772094413588365300,2.359365234375,0.4377836287021637,-0.825150191783905,0.6969665288925171
1772094413598314200,2.369314208984375,0.5567827224731445,-0.7014285326004028,0.9898615479469299
1772094413608264200,2.37926416015625,0.5734607577323914,-0.6816586256027222,1.2126123905181885
1772094413618214400,2.38921435546875,0.492120623588562,-0.7630733251571655,1.3154367208480835
1772094413628163300,2.399163330078125,0.33507657051086426,-0.8499107360839844,1.346222162246704
1772094413638113300,2.40911328125,0.12752258777618408,-0.9097682237625122,1.3230090141296387
1772094413648062200,2.419062255859375,-0.0850822925567627,-0.9546336531639099,1.2526764869689941
1772094413658012400,2.429012451171875,-0.26222938299179077,-0.6671669483184814,0.9902898073196411
1772094413667962400,2.43896240234375,-0.4349059462547302,0.055178411304950714,0.43702375888824463
1772094413677911300,2.448911376953125,-0.651309072971344,1.0573030710220337,-0.37022536993026733
1772094413687861200,2.458861328125,-0.8796766996383667,1.7860361337661743,-1.2470309734344482
1772094413697810400,2.468810546875,-1.0739777088165283,2.114319086074829,-1.9136457443237305
1772094413707760400,2.478760498046875,-1.2723301649093628,1.9782767295837402,-2.1670711040496826
1772094413717710300,2.48871044921875,-1.4371401071548462,1.4180197715759277,-1.9285571575164795
1772094413727659300,2.4986591796875,-1.5560908317565918,0.5729561448097229,-1.2979587316513062
1772094413737609500,2.508609375,-1.5694795846939087,-0.3894610106945038,-0.6402093768119812
1772094413747558400,2.518558349609375,-1.4578561782836914,-1.0733710527420044,-0.19444608688354492
1772094413757508400,2.52850830078125,-1.231400489807129,-1.3997862339019775,0.04554333910346031
1772094413767457300,2.538457275390625,-0.8172369003295898,-1.3716816902160645,0.24375586211681366
1772094413777407500,2.548407470703125,-0.3984433710575104,-1.0415778160095215,0.4672190248966217
1772094413787357400,2.558357421875,-0.08168596774339676,-0.5612838268280029,0.6604354381561279
1772094413797306400,2.568306396484375,0.06030765920877457,-0.14505654573440552,0.7445074319839478
1772094413807256300,2.57825634765625,0.07336407154798508,0.24176618456840515,0.7103458046913147
1772094413817205500,2.58820556640625,0.013059450313448906,0.5776456594467163,0.5609341859817505
1772094413827155500,2.598155517578125,-0.05922064557671547,0.8559712767601013,0.35372766852378845
1772094413837105200,2.608105224609375,-0.10826648771762848,1.0531247854232788,0.14851458370685577
1772094413847054300,2.618054443359375,-0.12220067530870438,1.1142445802688599,-0.016852794215083122
1772094413857004300,2.62800439453125,-0.09196528047323227,1.076432228088379,-0.09658996760845184
1772094413866953500,2.637953369140625,-0.03715946897864342,0.9701170325279236,-0.06325481086969376
1772094413876903200,2.647903076171875,0.018495002761483192,0.8609951138496399,0.05817095562815666
1772094413886853000,2.65785302734375,0.07770352810621262,0.76032555103302,0.21270963549613953
1772094413896802300,2.66780224609375,0.15513838827610016,0.6578622460365295,0.3544052243232727
1772094413906752300,2.677752197265625,0.2503288984298706,0.48236724734306335,0.45759087800979614
1772094413916701400,2.687701416015625,0.33487892150878906,0.2735738158226013,0.49598726630210876
1772094413926651100,2.697651123046875,0.3750549852848053,0.11642448604106903,0.4647330343723297
1772094413936600300,2.707600341796875,0.3887588381767273,0.02567647024989128,0.37375733256340027
1772094413946550300,2.71755029296875,0.3745471239089966,0.009676522575318813,0.28946250677108765
1772094413956500200,2.727500244140625,0.31677117943763733,0.10364749282598495,0.23138774931430817
1772094413966449200,2.73744921875,0.249625563621521,0.2895849943161011,0.19017845392227173
1772094413976399400,2.7473994140625,0.20509164035320282,0.45070597529411316,0.12113040685653687
1772094413986348300,2.757348388671875,0.20459052920341492,0.5585541129112244,0.024402009323239326
1772094413996298200,2.76729833984375,0.26561421155929565,0.6134607791900635,-0.059420451521873474
1772094414006248200,2.777248291015625,0.34036585688591003,0.6032975912094116,-0.12744773924350739
1772094414016197000,2.787197021484375,0.44686219096183777,0.4378790259361267,-0.1995008885860443
1772094414026147300,2.797147216796875,0.5779523253440857,0.11766985058784485,-0.24008680880069733
1772094414036096300,2.80709619140625,0.6321183443069458,-0.24225077033042908,-0.1893240362405777
1772094414046046200,2.817046142578125,0.5684195160865784,-0.4320877194404602,0.051877036690711975
1772094414055996400,2.826996337890625,0.3703692853450775,-0.40567395091056824,0.5122010111808777
1772094414065945300,2.8369453125,0.20295213162899017,-0.06929969042539597,1.068351149559021
1772094414075895300,2.846895263671875,0.023642558604478836,0.15239569544792175,1.458443522453308
1772094414085843500,2.856843505859375,-0.09676539897918701,0.1565178781747818,1.544313669204712
1772094414095793700,2.866793701171875,-0.2364865392446518,-0.06430479139089584,1.3393328189849854
1772094414105742600,2.87674267578125,-0.44681522250175476,-0.4106244146823883,0.9106443524360657
1772094414115692500,2.886692626953125,-0.6779323220252991,-0.8811256289482117,0.375833123922348
1772094414125642500,2.896642578125,-0.9088765382766724,-1.5265508890151978,-0.15722320973873138
1772094414135591700,2.906591796875,-1.1111282110214233,-2.226245880126953,-0.5940614938735962
1772094414145541600,2.916541748046875,-1.2547023296356201,-2.8525874614715576,-0.812542200088501
1772094414155490600,2.926490478515625,-1.2986301183700562,-2.959340810775757,-0.6822348237037659
1772094414165440500,2.9364404296875,-1.2028571367263794,-2.4330856800079346,-0.3021107316017151
1772094414175390700,2.946390625,-0.9812778830528259,-1.538733720779419,0.11355915665626526
1772094414185339600,2.956339599609375,-0.720165491104126,-0.5184175372123718,0.36285462975502014
1772094414195289600,2.96628955078125,-0.4758721590042114,0.2709681987762451,0.3208011984825134
1772094414205238500,2.976238525390625,-0.3015812635421753,0.697512686252594,0.05273883044719696
1772094414215188700,2.986188720703125,-0.25941595435142517,0.6941078305244446,-0.27712562680244446
1772094414225137700,2.9961376953125,-0.3255103528499603,0.42402181029319763,-0.5142415165901184
1772094414235087600,3.006087646484375,-0.4080566167831421,0.11734737455844879,-0.5601264238357544
1772094414245037600,3.01603759765625,-0.44511547684669495,-0.02076173573732376,-0.43348681926727295
1772094414254986800,3.02598681640625,-0.4340095520019531,0.03387247771024704,-0.24562132358551025
1772094414264936700,3.035936767578125,-0.3695184588432312,0.19595755636692047,-0.105251744389534
1772094414274885600,3.0458857421875,-0.2881080210208893,0.42233583331108093,-0.046531714498996735
1772094414284835600,3.055835693359375,-0.21900343894958496,0.6494643688201904,-0.08508560806512833
1772094414294785800,3.065785888671875,-0.1721874624490738,0.8497918844223022,-0.19696073234081268
1772094414304734700,3.075734619140625,-0.13446000218391418,0.9556165337562561,-0.34368473291397095
1772094414314684700,3.0856845703125,-0.11192860454320908,0.9643852710723877,-0.4967952072620392
1772094414324633600,3.095633544921875,-0.1070379763841629,0.8635892868041992,-0.6110233068466187
1772094414334583800,3.105583740234375,-0.11353981494903564,0.687720775604248,-0.6596233248710632
1772094414344532700,3.11553271484375,-0.13223563134670258,0.5026407837867737,-0.640098512172699
1772094414354482700,3.125482666015625,-0.13870444893836975,0.3483864963054657,-0.5618410110473633
1772094414364432600,3.1354326171875,-0.13016322255134583,0.2383425086736679,-0.44720467925071716
1772094414374381600,3.145381591796875,-0.1014077365398407,0.16098086535930634,-0.3155750036239624
1772094414384331800,3.155331787109375,-0.06584849953651428,0.11548122018575668,-0.20464885234832764
1772094414394280700,3.16528076171875,-0.009043801575899124,0.11205745488405228,-0.11011862009763718
1772094414404230700,3.175230712890625,0.058802492916584015,0.1492791771888733,-0.027276959270238876
1772094414414180900,3.185180908203125,0.1252124011516571,0.20648707449436188,0.03227558359503746
1772094414424129800,3.1951298828125,0.1894681304693222,0.31607115268707275,0.061296138912439346
1772094414434079700,3.205079833984375,0.24606989324092865,0.45390570163726807,0.024169810116291046
1772094414444028700,3.215028564453125,0.2919030487537384,0.5681582689285278,-0.08326824009418488
1772094414453978600,3.224978515625,0.310686856508255,0.628287672996521,-0.24079102277755737
1772094414463928600,3.234928466796875,0.3017389178276062,0.6748889684677124,-0.4111121892929077
1772094414473877800,3.244877685546875,0.27855369448661804,0.6850944757461548,-0.5663776993751526
1772094414483827700,3.25482763671875,0.24199551343917847,0.6177477836608887,-0.6994813084602356
1772094414493776600,3.264776611328125,0.1837574988603592,0.5181900262832642,-0.8136033415794373
1772094414503726800,3.274726806640625,0.0908399298787117,0.3438887298107147,-0.9600237607955933
1772094414513675800,3.28467578125,0.022867005318403244,0.1427476406097412,-1.1058027744293213
1772094414523625700,3.294625732421875,0.004574968013912439,-0.040157392621040344,-1.1694180965423584
1772094414533575400,3.304575439453125,-0.0336882658302784,-0.24498404562473297,-1.1467604637145996
1772094414543524900,3.31452490234375,-0.09894473105669022,-0.4715683162212372,-1.0826743841171265
1772094414553474600,3.324474609375,-0.16729022562503815,-0.7563465237617493,-1.021124005317688
1772094414563423700,3.334423828125,-0.21660012006759644,-1.0127780437469482,-0.9353482723236084
1772094414573373400,3.34437353515625,-0.23840075731277466,-1.1241836547851562,-0.8518123626708984
1772094414583323600,3.35432373046875,-0.18819592893123627,-1.1193715333938599,-0.8103891611099243
1772094414593272600,3.3642724609375,-0.08873751759529114,-0.9635436534881592,-0.777385413646698
1772094414603222500,3.374222412109375,0.0011271359398961067,-0.6458076238632202,-0.7426109313964844
1772094414613171500,3.38417138671875,0.08429446071386337,-0.23277240991592407,-0.6876408457756042
1772094414623121700,3.39412158203125,0.14985132217407227,0.10181654989719391,-0.6019409894943237
1772094414633070600,3.404070556640625,0.17417636513710022,0.2821525037288666,-0.4519956707954407
1772094414643020500,3.4140205078125,0.1726338118314743,0.4027496874332428,-0.229197695851326
1772094414652970500,3.423970458984375,0.12786181271076202,0.5243618488311768,-0.004173372406512499
1772094414662919700,3.433919677734375,0.0659579262137413,0.5218697786331177,0.13255178928375244
1772094414672869600,3.44386962890625,-0.0013188447337597609,0.34612321853637695,0.1753210872411728
1772094414682818600,3.453818603515625,-0.04622597619891167,0.013691017404198647,0.1662749946117401
1772094414692768500,3.4637685546875,-0.0338960736989975,-0.41860154271125793,0.21041502058506012
1772094414702718700,3.47371875,0.020227085798978806,-0.7566971182823181,0.4217100739479065
1772094414712667600,3.483667724609375,0.05666206032037735,-1.0202244520187378,0.710608959197998
1772094414722617600,3.49361767578125,0.06351526826620102,-1.2771985530853271,0.9533605575561523
1772094414732566500,3.50356640625,0.08277285844087601,-1.5646438598632812,1.1056848764419556
1772094414742516700,3.513516845703125,0.12226327508687973,-1.79356050491333,1.2520161867141724
1772094414752465700,3.523465576171875,0.15688222646713257,-1.8404440879821777,1.4504731893539429
1772094414762415600,3.53341552734375,0.1963329166173935,-1.6487905979156494,1.7115287780761719
1772094414772365600,3.543365478515625,0.2402745485305786,-1.344870924949646,1.989995002746582
1772094414782314500,3.553314453125,0.28407642245292664,-1.077161192893982,2.2374765872955322
1772094414792264700,3.5632646484375,0.29592081904411316,-0.9707478880882263,2.3508574962615967
1772094414802213600,3.573213623046875,0.2258496731519699,-0.9945659637451172,2.196005344390869
1772094414812163600,3.58316357421875,0.13012607395648956,-1.0086910724639893,1.7687933444976807
1772094414822113800,3.59311376953125,0.060515277087688446,-0.9584101438522339,1.223223328590393
1772094414832062700,3.603062744140625,-0.04174504801630974,-0.9126741290092468,0.7430775761604309
1772094414842012700,3.6130126953125,-0.21632902324199677,-0.8462027907371521,0.41620850563049316
1772094414851961600,3.622961669921875,-0.47203800082206726,-0.7931180000305176,0.23521926999092102
1772094414861911600,3.63291162109375,-0.734908938407898,-0.6381104588508606,0.14524909853935242
1772094414871860700,3.64286083984375,-0.9418434500694275,-0.36380699276924133,0.057565849274396896
1772094414881810700,3.652810791015625,-1.0400179624557495,-0.10900505632162094,-0.12248487770557404
1772094414891760600,3.6627607421875,-0.9698002934455872,0.11868909001350403,-0.33387038111686707
1772094414901709600,3.67270947265625,-0.7831582427024841,0.31280237436294556,-0.5069185495376587
1772094414911659800,3.68265966796875,-0.5425554513931274,0.4364966154098511,-0.6094111204147339
1772094414921608700,3.692608642578125,-0.31549355387687683,0.5038374662399292,-0.6200873255729675
1772094414931558700,3.70255859375,-0.137689471244812,0.4949915409088135,-0.5428063869476318
1772094414941508900,3.7125087890625,-0.012301797047257423,0.4267306625843048,-0.4119936525821686
1772094414951457800,3.722457763671875,0.06093166768550873,0.35325589776039124,-0.25022178888320923
1772094414961407700,3.73240771484375,0.06880055367946625,0.34470894932746887,-0.09066188335418701
1772094414971356700,3.742356689453125,0.03095250576734543,0.3667721748352051,0.021450532600283623
1772094414981306600,3.752306640625,-0.02113717794418335,0.40603193640708923,0.07045252621173859
1772094414991255800,3.762255859375,-0.10457028448581696,0.5169009566307068,0.054610446095466614
1772094415001205800,3.772205810546875,-0.1553318202495575,0.761862576007843,0.00831578765064478
1772094415011155700,3.78215576171875,-0.14765100181102753,1.067064881324768,-0.052509479224681854
1772094415021104600,3.792104736328125,-0.08179699629545212,1.3595337867736816,-0.10983860492706299
1772094415031054800,3.802054931640625,0.03096257522702217,1.5907363891601562,-0.14356514811515808
1772094415041003800,3.812003662109375,0.15103116631507874,1.7341257333755493,-0.1628335416316986
1772094415050953700,3.82195361328125,0.274883896112442,1.7874927520751953,-0.2000506967306137
1772094415060902700,3.831902587890625,0.3976718783378601,1.7753269672393799,-0.24989086389541626
1772094415070852900,3.841852783203125,0.5154474973678589,1.7473478317260742,-0.27434587478637695
1772094415080802600,3.851802490234375,0.6253348588943481,1.6259244680404663,-0.26757314801216125
1772094415090752000,3.861751953125,0.7103530764579773,1.351969838142395,-0.22231565415859222
1772094415100702000,3.871701904296875,0.7282689809799194,1.0179558992385864,-0.10595113784074783
1772094415110651100,3.881651123046875,0.6758414506912231,0.7039053440093994,0.059986431151628494
1772094415120600800,3.891600830078125,0.5812056064605713,0.4915611445903778,0.2332308143377304
1772094415130551000,3.901551025390625,0.4550572633743286,0.4606466591358185,0.3522528111934662
1772094415140500000,3.9115,0.326831191778183,0.56868976354599,0.3530253469944
1772094415150450000,3.921449951171875,0.22334739565849304,0.7379283308982849,0.21111907064914703
1772094415160398800,3.93139892578125,0.15240731835365295,0.8461725115776062,-0.07350454479455948
1772094415170349000,3.94134912109375,0.11138612776994705,0.8210471868515015,-0.4165719151496887
1772094415180299000,3.951299072265625,0.08666512370109558,0.6983357667922974,-0.6955921053886414
1772094415190248000,3.961248046875,0.11141601204872131,0.45490097999572754,-0.8312042355537415
1772094415200198000,3.971197998046875,0.1969217211008072,0.1481151580810547,-0.7908082604408264
1772094415210147000,3.98114697265625,0.3422485589981079,-0.12260556221008301,-0.5817346572875977
1772094415220097000,3.991096923828125,0.5209614634513855,-0.28731489181518555,-0.23866546154022217
1772094415230046000,4.0010458984375,0.6451446413993835,-0.3168672025203705,0.15083809196949005
1772094415239996000,4.010995849609375,0.6367465257644653,-0.26785439252853394,0.41765791177749634
1772094415249946000,4.020946044921875,0.4928983151912689,-0.36197903752326965,0.46380624175071716
1772094415259895000,4.03089501953125,0.20604972541332245,-0.7523062825202942,0.27024179697036743
1772094415269845000,4.040844970703125,-0.20107142627239227,-1.4993672370910645,-0.12678463757038116
1772094415279794000,4.0507939453125,-0.6758105158805847,-2.3678247928619385,-0.5836395621299744
1772094415289744100,4.060744140625,-1.070145606994629,-2.81392765045166,-0.8951260447502136
1772094415299693000,4.070693115234375,-1.2506717443466187,-2.498159408569336,-0.9519890546798706
1772094415309643000,4.08064306640625,-1.147550106048584,-1.5905437469482422,-0.822089672088623
1772094415319593000,4.090593017578125,-0.7981504797935486,-0.417729914188385,-0.6626631617546082
1772094415329542000,4.1005419921875,-0.3706912398338318,0.6450951099395752,-0.5877319574356079
1772094415339492000,4.1104921875,-0.04199899360537529,1.3422664403915405,-0.5922752022743225
1772094415349441000,4.12044091796875,0.13963578641414642,1.6550109386444092,-0.5955625772476196
1772094415359391000,4.130390869140625,0.1868683397769928,1.642396092414856,-0.5626715421676636
1772094415369340000,4.14033984375,0.14955824613571167,1.364990234375,-0.46653005480766296
1772094415379290000,4.1502900390625,0.07218936085700989,0.9697554707527161,-0.26727551221847534
1772094415389240000,4.160239990234375,0.014620078727602959,0.6084268093109131,0.0176188126206398
1772094415399189000,4.17018896484375,0.03314204141497612,0.3510490953922272,0.3081199526786804
1772094415409139000,4.180138916015625,0.12393053621053696,0.19257931411266327,0.5255492329597473
1772094415419088100,4.190088134765625,0.23065103590488434,0.1105271577835083,0.6252517104148865
1772094415429038000,4.2000380859375,0.3142812252044678,0.08909483253955841,0.6010470390319824
1772094415438988000,4.209988037109375,0.36608457565307617,0.09854479879140854,0.4996723532676697
1772094415448937000,4.21993701171875,0.3850380480289459,0.13220156729221344,0.3748641014099121
1772094415458887200,4.22988720703125,0.352325975894928,0.16705192625522614,0.26918888092041016
1772094415468836000,4.239836181640625,0.30667006969451904,0.1957773119211197,0.2027486264705658
1772094415478786000,4.2497861328125,0.2718687057495117,0.2501557171344757,0.18880832195281982
1772094415488735000,4.25973486328125,0.24831433594226837,0.29002270102500916,0.19678662717342377
1772094415498685200,4.269685302734375,0.23894646763801575,0.2753623425960541,0.2006353884935379
1772094415508635100,4.27963525390625,0.23364891111850739,0.22687335312366486,0.20967575907707214
1772094415518584000,4.289583984375,0.23919802904129028,0.15503641963005066,0.2332136631011963
1772094415528534000,4.299533935546875,0.23344026505947113,0.08177125453948975,0.2806011736392975
1772094415538483200,4.309483154296875,0.21669422090053558,0.046551745384931564,0.35364457964897156
1772094415548433200,4.31943310546875,0.19987130165100098,0.050173912197351456,0.4329460561275482
1772094415558383000,4.329383056640625,0.1737489551305771,0.07471100986003876,0.4858156442642212
1772094415568332000,4.33933203125,0.12852661311626434,0.10618957132101059,0.49119096994400024
1772094415578282200,4.3492822265625,0.07019001245498657,0.10457377135753632,0.4242556393146515
1772094415588231200,4.359231201171875,-0.008256595581769943,0.04383771866559982,0.3083442151546478
1772094415598181000,4.36918115234375,-0.08167759329080582,-0.032404012978076935,0.17026804387569427
1772094415608130000,4.379130126953125,-0.11726994067430496,-0.08306452631950378,0.05870689079165459
1772094415618080300,4.389080322265625,-0.12543807923793793,-0.11196785420179367,-0.028638066723942757
1772094415628030000,4.399030029296875,-0.13524730503559113,-0.1781783103942871,-0.09386233985424042
1772094415637979100,4.408979248046875,-0.1682310849428177,-0.2708427309989929,-0.16313329339027405
1772094415647928800,4.4189287109375,-0.2116944044828415,-0.42126819491386414,-0.2521992623806
1772094415657878000,4.4288779296875,-0.25629162788391113,-0.5779989957809448,-0.32844269275665283
1772094415667828000,4.438827880859375,-0.27482831478118896,-0.680660605430603,-0.36320066452026367
1772094415677777200,4.448777099609375,-0.2828245759010315,-0.7268387079238892,-0.3658808171749115
1772094415687726800,4.458726806640625,-0.2805798053741455,-0.7108676433563232,-0.33094891905784607
1772094415697677000,4.468677001953125,-0.2589087188243866,-0.5892891883850098,-0.25447630882263184
1772094415707626000,4.4786259765625,-0.22028358280658722,-0.3890191912651062,-0.17909100651741028
1772094415717576000,4.488575927734375,-0.17045193910598755,-0.18916629254817963,-0.15049323439598083
1772094415727525000,4.498525146484375,-0.11258065700531006,-0.06395724415779114,-0.16613104939460754
1772094415737474800,4.508474853515625,-0.07929939776659012,-0.04796549677848816,-0.1874973177909851
1772094415747425000,4.518425048828125,-0.08111381530761719,-0.12462591379880905,-0.16265349090099335
1772094415757374000,4.5283740234375,-0.10229533910751343,-0.25181108713150024,-0.10739964991807938
1772094415767324000,4.538323974609375,-0.1397484391927719,-0.36648839712142944,-0.06008993461728096
1772094415777272800,4.54827294921875,-0.19017431139945984,-0.4068826138973236,-0.05052661895751953
1772094415787223000,4.55822314453125,-0.23327411711215973,-0.3750416040420532,-0.09287061542272568
1772094415797172000,4.568171875,-0.25980401039123535,-0.28886961936950684,-0.17560777068138123
1772094415807122000,4.578121826171875,-0.2719813287258148,-0.18725939095020294,-0.2605852484703064
1772094415817071900,4.58807177734375,-0.2926419675350189,-0.08490976691246033,-0.3167772889137268
1772094415827021000,4.59802099609375,-0.3120154142379761,0.03222697600722313,-0.3229163885116577
1772094415836971000,4.607970947265625,-0.34758424758911133,0.18098589777946472,-0.3013039529323578
1772094415846920000,4.617919921875,-0.3739423453807831,0.3209528625011444,-0.3003010153770447
1772094415856870000,4.627869873046875,-0.3899935781955719,0.4110555648803711,-0.3283999264240265
1772094415866819000,4.637819091796875,-0.3873959183692932,0.4552067816257477,-0.36665594577789307
1772094415876769000,4.64776904296875,-0.36199313402175903,0.4527846872806549,-0.39459243416786194
1772094415886719000,4.657718994140625,-0.2999145984649658,0.42698797583580017,-0.3890455961227417
1772094415896668000,4.66766796875,-0.21643735468387604,0.38127991557121277,-0.31483694911003113
1772094415906618000,4.6776181640625,-0.13036692142486572,0.3801954686641693,-0.17081083357334137
1772094415916567000,4.687567138671875,-0.04123811796307564,0.3960743546485901,-0.0006721713580191135
1772094415926517000,4.69751708984375,0.05129474774003029,0.35880395770072937,0.13842366635799408
1772094415936467000,4.707467041015625,0.12974093854427338,0.29349377751350403,0.24240578711032867
1772094415946416000,4.717416015625,0.17039142549037933,0.20594635605812073,0.3183801770210266
1772094415956366000,4.727365966796875,0.1948932260274887,0.16378888487815857,0.37716519832611084
1772094415966315000,4.73731494140625,0.2062912881374359,0.13359156250953674,0.3984427750110626
1772094415976265000,4.747264892578125,0.21947751939296722,0.08089447766542435,0.3741375505924225
1772094415986214000,4.7572138671875,0.250409334897995,-0.032654982060194016,0.3396884799003601
1772094415996164000,4.7671640625,0.2722087502479553,-0.11052609235048294,0.32693642377853394
1772094416006114000,4.777114013671875,0.27937424182891846,-0.0728953629732132,0.3426347076892853
1772094416016063000,4.78706298828125,0.28624677658081055,-0.009560775011777878,0.35080355405807495
1772094416026013200,4.79701318359375,0.24271048605442047,0.04221586883068085,0.3084992468357086
1772094416035962000,4.806962158203125,0.14416059851646423,0.0394962802529335,0.22636567056179047
1772094416045912000,4.816912109375,-0.024092858657240868,-0.0646279901266098,0.12075109034776688
1772094416055861000,4.826861083984375,-0.23611260950565338,-0.25038620829582214,0.01889503374695778
1772094416065811000,4.83681103515625,-0.4320591986179352,-0.42689308524131775,-0.0395088866353035
1772094416075761200,4.84676123046875,-0.5455891489982605,-0.516615092754364,-0.07604865729808807
1772094416085713700,4.856713623046875,-0.542037844657898,-0.6061418056488037,-0.09677417576313019
1772094416095663900,4.866663818359375,-0.450678288936615,-0.7848656177520752,-0.04737096652388573
1772094416105612800,4.87661279296875,-0.35399460792541504,-0.9480793476104736,0.15395282208919525
1772094416115562800,4.886562744140625,-0.23222386837005615,-0.9432584047317505,0.5180454254150391
1772094416125511700,4.89651171875,-0.07467018067836761,-0.677072286605835,0.9629374146461487
1772094416135462000,4.9064619140625,0.08325712382793427,-0.25223633646965027,1.3017410039901733
1772094416145411800,4.916411865234375,0.22651439905166626,-0.00014896178618073463,1.4372923374176025
1772094416155360800,4.92636083984375,0.31027624011039734,0.038574546575546265,1.4221996068954468
1772094416165310700,4.936310791015625,0.29177284240722656,-0.11773116886615753,1.29133141040802
1772094416175259600,4.946259765625,0.19485828280448914,-0.34525978565216064,1.0884755849838257
1772094416185209900,4.9562099609375,0.07735349237918854,-0.547784149646759,0.8549134135246277
1772094416195158800,4.96615869140625,-0.03807876259088516,-0.653308629989624,0.6477958559989929
1772094416205108700,4.976108642578125,-0.12177179753780365,-0.6036787629127502,0.5350887775421143
1772094416215058700,4.98605859375,-0.19369693100452423,-0.4919934570789337,0.5033443570137024
1772094416225007900,4.9960078125,-0.2621217966079712,-0.38895735144615173,0.49823296070098877
1772094416234957600,5.00595751953125,-0.3338271677494049,-0.32915666699409485,0.49916312098503113
1772094416244906800,5.01590673828125,-0.40165361762046814,-0.2793741822242737,0.5571446418762207
1772094416254856700,5.025856689453125,-0.44664356112480164,-0.24962155520915985,0.6574607491493225
1772094416264806000,5.035805908203125,-0.45577287673950195,-0.2739473581314087,0.7613128423690796
1772094416274755800,5.045755859375,-0.4217551648616791,-0.3259298801422119,0.8351490497589111
1772094416284705500,5.05570556640625,-0.373154878616333,-0.33255264163017273,0.8514366745948792
1772094416294654700,5.06565478515625,-0.32628947496414185,-0.23392577469348907,0.831782877445221
1772094416304604700,5.075604736328125,-0.28845635056495667,0.013295197859406471,0.7707988619804382
1772094416314553900,5.085553955078125,-0.25273898243904114,0.33997276425361633,0.6706812381744385
1772094416324503600,5.095503662109375,-0.23112261295318604,0.6920953989028931,0.5492554903030396
1772094416334452700,5.10545263671875,-0.22072593867778778,0.9782024025917053,0.4232044219970703
1772094416344402700,5.115402587890625,-0.2203725278377533,1.164814829826355,0.3210546374320984
1772094416354352600,5.1253525390625,-0.2287115752696991,1.237120270729065,0.2535429894924164
1772094416364301600,5.135301513671875,-0.2353724092245102,1.242557406425476,0.23113195598125458
1772094416374251500,5.14525146484375,-0.23692238330841064,1.20906400680542,0.25223854184150696
1772094416384200700,5.15520068359375,-0.22465266287326813,1.1184420585632324,0.2827996611595154
1772094416394150700,5.165150634765625,-0.1872488558292389,0.9942653179168701,0.30158689618110657
1772094416404100600,5.1751005859375,-0.13809862732887268,0.8817864656448364,0.32243916392326355
1772094416414049500,5.185049560546875,-0.039913374930620193,0.8002198934555054,0.3308044373989105
1772094416423999700,5.194999755859375,0.05092997848987579,0.7659958600997925,0.34756237268447876
1772094416433948700,5.20494873046875,0.13439077138900757,0.683621346950531,0.3966280221939087
1772094416443898600,5.214898681640625,0.21922443807125092,0.5343711376190186,0.469976007938385
1772094416453847600,5.22484765625,0.27200964093208313,0.38223543763160706,0.5535685420036316
1772094416463797800,5.2347978515625,0.2536306083202362,0.3174082338809967,0.6029941439628601
1772094416473747700,5.244747802734375,0.18834060430526733,0.3302345871925354,0.5824325084686279
1772094416483696600,5.254696533203125,0.1301095336675644,0.3727905750274658,0.4634286165237427
1772094416493646600,5.264646484375,0.10833337903022766,0.38434749841690063,0.23468980193138123
1772094416503595500,5.274595458984375,0.15554963052272797,0.3179090917110443,0.0007747807539999485
1772094416513545700,5.284545654296875,0.20648284256458282,0.23734384775161743,-0.20858751237392426
1772094416523494700,5.29449462890625,0.15388035774230957,0.20956921577453613,-0.4145185947418213
1772094416533444600,5.304444580078125,-0.03945950046181679,0.28817984461784363,-0.6488925218582153
1772094416543394800,5.314394775390625,-0.26765429973602295,0.371953547000885,-0.8825886249542236
1772094416553343700,5.32434375,-0.4045737385749817,0.48851779103279114,-1.0289208889007568
1772094416563293700,5.334293701171875,-0.4006298780441284,0.7226772904396057,-1.015693187713623
1772094416573242600,5.34424267578125,-0.266400009393692,0.9631479978561401,-0.8524461388587952
1772094416583192600,5.354192626953125,-0.09589086472988129,1.0455372333526611,-0.6531990766525269
1772094416593141800,5.364141845703125,0.00025407131761312485,0.8565717935562134,-0.5276778340339661
1772094416603091700,5.374091796875,-0.028779445216059685,0.260955274105072,-0.5291652083396912
1772094416613041700,5.384041748046875,-0.19643346965312958,-0.6735183596611023,-0.6099163293838501
1772094416622990600,5.393990478515625,-0.4222586154937744,-1.5535862445831299,-0.6210749745368958
1772094416632940800,5.40394091796875,-0.6135947704315186,-2.2092158794403076,-0.5347129106521606
1772094416642889700,5.4138896484375,-0.7352458238601685,-2.411529541015625,-0.3763882517814636
1772094416652839700,5.423839599609375,-0.8113073706626892,-2.095336437225342,-0.24047712981700897
1772094416662788600,5.43378857421875,-0.8329644799232483,-1.4882347583770752,-0.255993515253067
1772094416672738800,5.44373876953125,-0.7908521890640259,-0.733820378780365,-0.41915538907051086
1772094416682688800,5.453688720703125,-0.6957131624221802,0.026632720604538918,-0.661647617816925
1772094416692637700,5.4636376953125,-0.6192746758460999,0.581303596496582,-0.9152926802635193
1772094416702587600,5.473587646484375,-0.6075946092605591,0.8667896389961243,-1.1244062185287476
1772094416712536800,5.483536865234375,-0.6833256483078003,0.9767434597015381,-1.2588649988174438
1772094416722486800,5.49348681640625,-0.6716127991676331,0.6396413445472717,-1.3634260892868042
1772094416732435700,5.503435791015625,-0.604887068271637,0.4044169485569,-1.3553705215454102
1772094416742385700,5.5133857421875,-0.532487690448761,0.190840482711792,-1.2251664400100708
1772094416752336000,5.5233359375,-0.4671424925327301,0.055281586945056915,-0.9690436720848083
1772094416762284800,5.533284912109375,-0.40063297748565674,0.006093531847000122,-0.6081366539001465
1772094416772234800,5.54323486328125,-0.3106825053691864,0.07091131806373596,-0.1657065898180008
1772094416782183700,5.55318359375,-0.20194244384765625,0.19567935168743134,0.2937198281288147
1772094416792134000,5.5631337890625,-0.09417762607336044,0.2606016993522644,0.6726630926132202
1772094416802082800,5.573082763671875,-0.009330914355814457,0.2224050611257553,0.9149287343025208
1772094416812032800,5.58303271484375,0.0586230605840683,0.12339134514331818,1.001217007637024
1772094416821982700,5.592982666015625,0.10283126682043076,0.018202880397439003,0.9503546357154846
1772094416831931600,5.602931640625,0.1439022570848465,-0.08387476205825806,0.7787587642669678
1772094416841881900,5.6128818359375,0.17299729585647583,-0.16205477714538574,0.5308781266212463
1772094416851830800,5.622830810546875,0.20192992687225342,-0.19646473228931427,0.28013718128204346
1772094416861780700,5.63278076171875,0.23930659890174866,-0.17872461676597595,0.0923992469906807
1772094416871729700,5.642729736328125,0.2686244249343872,-0.12414565682411194,-0.01527920737862587
1772094416881680000,5.652679931640625,0.2870921194553375,-0.0629800334572792,-0.043224554508924484
1772094416891629600,5.662629638671875,0.28391754627227783,-0.006665966007858515,-0.037096988409757614
1772094416901578800,5.672578857421875,0.2823300361633301,0.030733337625861168,-0.03087398037314415
1772094416911528700,5.68252880859375,0.28770557045936584,0.02684798650443554,-0.022836262360215187
1772094416921478000,5.692477783203125,0.3076601028442383,-0.04656364396214485,-0.00031737005338072777
1772094416931427800,5.702427734375,0.33232787251472473,-0.1543513685464859,0.0699530616402626
1772094416941376800,5.712376708984375,0.3462280035018921,-0.2948269844055176,0.15660007297992706
1772094416951326700,5.72232666015625,0.3389188349246979,-0.46990031003952026,0.2088383436203003
1772094416961276700,5.732276611328125,0.31724947690963745,-0.6838232278823853,0.1864640712738037
1772094416971225900,5.742225830078125,0.26476460695266724,-0.9257360100746155,0.06781049072742462
1772094416981175600,5.752175537109375,0.1915372610092163,-1.181666612625122,-0.11497077345848083
1772094416991124700,5.762124755859375,0.13252785801887512,-1.352670431137085,-0.27057790756225586
1772094417001074700,5.77207470703125,0.0910177007317543,-1.3906962871551514,-0.3786654770374298
1772094417011024000,5.78202392578125,0.06235579401254654,-1.2897602319717407,-0.4021891951560974
1772094417020973600,5.7919736328125,0.04772331938147545,-1.0700236558914185,-0.3543023467063904
1772094417030923500,5.801923583984375,0.04284191131591797,-0.743247926235199,-0.2522512376308441
1772094417040872700,5.811872802734375,0.036794669926166534,-0.3791658580303192,-0.1525225043296814
1772094417050822700,5.82182275390625,0.03803083300590515,-0.07987029105424881,-0.09791330248117447
1772094417060771600,5.831771484375,0.006181021220982075,0.07864052057266235,-0.09310735762119293
1772094417070721500,5.841721435546875,-0.0448152981698513,0.09493358433246613,-0.13952475786209106
1772094417080670700,5.851670654296875,-0.09433011710643768,0.04050949215888977,-0.20421934127807617
1772094417090617300,5.861617431640625,-0.13113506138324738,-0.022797374054789543,-0.27371394634246826
1772094417100567600,5.871567626953125,-0.14257946610450745,-0.05756387859582901,-0.3349432051181793
1772094417110516500,5.8815166015625,-0.13738001883029938,-0.018750619143247604,-0.37022823095321655
1772094417120466400,5.891466552734375,-0.10669693350791931,0.07710586488246918,-0.39205336570739746
1772094417130415400,5.901415283203125,-0.05649283155798912,0.19945597648620605,-0.3927847743034363
1772094417140365600,5.911365478515625,0.004898357670754194,0.31237906217575073,-0.35605818033218384
1772094417150314500,5.921314453125,0.060841478407382965,0.39381060004234314,-0.28155577182769775
1772094417160264400,5.931264404296875,0.11850184202194214,0.4286822974681854,-0.16873067617416382
1772094417170214400,5.94121435546875,0.1640852987766266,0.4078851342201233,-0.04802411049604416
1772094417180163600,5.95116357421875,0.18813443183898926,0.3105689585208893,0.04006580263376236
1772094417190113500,5.961113525390625,0.20048022270202637,0.11807576566934586,0.07025287300348282
1772094417200062500,5.9710625,0.18935886025428772,-0.1345333307981491,0.03967684879899025
1772094417210012400,5.981012451171875,0.17733168601989746,-0.3452222943305969,-0.0567530132830143
1772094417219961600,5.990961669921875,0.20790104568004608,-0.4845908284187317,-0.1960054486989975
1772094417229911600,6.00091162109375,0.28572720289230347,-0.4989890158176422,-0.31725838780403137
1772094417239861500,6.010861572265625,0.35769781470298767,-0.3744977116584778,-0.39981797337532043
1772094417249810400,6.020810546875,0.3948618173599243,-0.20173479616641998,-0.4519886374473572
1772094417259760600,6.0307607421875,0.3659587800502777,-0.028941454365849495,-0.4770148992538452
1772094417269709600,6.04070947265625,0.27925682067871094,0.14808093011379242,-0.512207567691803
1772094417279659500,6.050659423828125,0.175240159034729,0.2637800872325897,-0.5466366410255432
1772094417289608400,6.0606083984375,0.08321385085582733,0.17808926105499268,-0.5350746512413025
1772094417299558700,6.07055859375,-0.008791707456111908,-0.07591185718774796,-0.4389781951904297
1772094417309508600,6.080508544921875,-0.09906153380870819,-0.36134231090545654,-0.26412588357925415
1772094417319457500,6.09045751953125,-0.1884838193655014,-0.6388194561004639,-0.07404062896966934
1772094417329407500,6.100407470703125,-0.29759061336517334,-0.973878026008606,0.03494926542043686
1772094417339356400,6.1103564453125,-0.4303553104400635,-1.2959569692611694,0.06040988489985466
1772094417349306600,6.120306640625,-0.5289344787597656,-1.494249701499939,0.06388484686613083
1772094417359255600,6.130255615234375,-0.5156378149986267,-1.4039342403411865,0.2109653651714325
1772094417369205500,6.14020556640625,-0.371936172246933,-1.0522342920303345,0.5660090446472168
1772094417379155700,6.15015576171875,-0.1818131059408188,-0.6679367423057556,0.9721035361289978
1772094417389104600,6.160104736328125,-0.023737505078315735,-0.346189022064209,1.2320137023925781
1772094417399054600,6.1700546875,0.043046850711107254,-0.14491502940654755,1.2216023206710815
1772094417409003500,6.18000341796875,0.050663597881793976,-0.13667279481887817,0.9443978667259216
1772094417418953500,6.189953369140625,0.029370829463005066,-0.23273327946662903,0.5396732687950134
1772094417428902700,6.199902587890625,-0.02940766140818596,-0.42597129940986633,0.12496854364871979
1772094417438852600,6.2098525390625,-0.1292051076889038,-0.7154620289802551,-0.22661611437797546
1772094417448802600,6.219802490234375,-0.2523808777332306,-0.9503864049911499,-0.4549311697483063
1772094417458751500,6.22975146484375,-0.38817012310028076,-1.0413376092910767,-0.5232633352279663
1772094417468701700,6.23970166015625,-0.4948238730430603,-0.9547115564346313,-0.4848489463329315
1772094417478650600,6.249650634765625,-0.5140292644500732,-0.7266421914100647,-0.3937174379825592
1772094417488600600,6.2596005859375,-0.432865709066391,-0.4020655155181885,-0.26876819133758545
1772094417498549500,6.269549560546875,-0.2928529679775238,-0.05723249912261963,-0.0953732505440712
1772094417508499700,6.279499755859375,-0.22649940848350525,0.20939414203166962,0.10582154244184494
1772094417518449700,6.28944970703125,-0.2637876570224762,0.2545483112335205,0.3130636513233185
1772094417528398600,6.299398681640625,-0.3050144612789154,0.1240079402923584,0.48092424869537354
1772094417538348500,6.3093486328125,-0.27059683203697205,-0.07595977187156677,0.6153928637504578
1772094417548297700,6.319297607421875,-0.21543408930301666,-0.2345014065504074,0.7145930528640747
1772094417558247700,6.32924755859375,-0.1812140792608261,-0.3450329899787903,0.7842658758163452
1772094417568196600,6.339196533203125,-0.1305626481771469,-0.4292299151420593,0.8229407668113708
1772094417578146600,6.349146484375,-0.03815336152911186,-0.4319024085998535,0.8497436046600342
1772094417588096500,6.359096435546875,0.06893087178468704,-0.29938098788261414,0.8603747487068176
1772094417598045700,6.369045654296875,0.1701405793428421,-0.09619937837123871,0.8455532193183899
1772094417607995400,6.378995361328125,0.2523781955242157,0.08028873801231384,0.8640034794807434
1772094417617944600,6.388944580078125,0.3460564911365509,0.20254459977149963,0.9099587202072144
1772094417627894500,6.39889453125,0.4464525878429413,0.24870608747005463,0.9181114435195923
1772094417637843700,6.40884375,0.5250813364982605,0.19554300606250763,0.9019476175308228
1772094417647793400,6.41879345703125,0.5562345385551453,0.09695788472890854,0.8789953589439392
1772094417657742600,6.42874267578125,0.5277072787284851,-0.04407033696770668,0.8529307246208191
1772094417667692500,6.438692626953125,0.4303057789802551,-0.1380823403596878,0.8241263628005981
1772094417677642500,6.448642578125,0.2995954751968384,-0.13536803424358368,0.8032213449478149
1772094417687591700,6.458591796875,0.17473222315311432,-0.05521341413259506,0.7504544854164124
1772094417697541400,6.468541259765625,0.09399715811014175,0.062223732471466064,0.657524824142456
1772094417707490600,6.478490478515625,0.04924950376152992,0.17599213123321533,0.5345065593719482
1772094417717440500,6.4884404296875,0.026808641850948334,0.2776931822299957,0.38462886214256287
1772094417727389700,6.4983896484375,-0.019503016024827957,0.42902153730392456,0.23403657972812653
1772094417737339400,6.50833935546875,-0.0681144967675209,0.634831428527832,0.08487532287836075
1772094417747289300,6.518289306640625,-0.07908635586500168,0.8756237030029297,-0.06092289462685585
1772094417757238500,6.528238525390625,-0.02825087308883667,1.1082992553710938,-0.1924809217453003
1772094417767188500,6.5381884765625,0.06512916833162308,1.218005895614624,-0.28635546565055847
1772094417777137400,6.548137451171875,0.15339937806129456,1.1771372556686401,-0.35362955927848816
1772094417787087400,6.55808740234375,0.18105466663837433,0.9591186046600342,-0.4028092622756958
1772094417797036500,6.56803662109375,0.16424453258514404,0.6637482643127441,-0.39018163084983826
1772094417806986500,6.577986572265625,0.11119057238101959,0.4591854512691498,-0.31431305408477783
1772094417816936400,6.5879365234375,0.00019348785281181335,0.3707903325557709,-0.206187903881073
1772094417826885400,6.597885498046875,-0.12829796969890594,0.330655962228775,-0.14361222088336945
1772094417836835600,6.607835693359375,-0.23887401819229126,0.2142566740512848,-0.20450060069561005
1772094417846784500,6.617784423828125,-0.3712410628795624,-0.15497201681137085,-0.41031360626220703
1772094417856734500,6.627734375,-0.5169599056243896,-0.6632546782493591,-0.7112694978713989
1772094417866683400,6.637683349609375,-0.609130859375,-0.9830756783485413,-0.9990917444229126
1772094417876633600,6.647633544921875,-0.6401827931404114,-1.0390369892120361,-1.240583896636963
1772094417886583600,6.65758349609375,-0.6139125823974609,-0.7968562245368958,-1.4104613065719604
1772094417896532500,6.667532470703125,-0.5170581936836243,-0.3693195879459381,-1.5085915327072144
1772094417906482400,6.677482421875,-0.42464908957481384,0.08646517246961594,-1.5545704364776611
1772094417916431400,6.687431396484375,-0.41362255811691284,0.456466406583786,-1.5404677391052246
1772094417926381600,6.697381591796875,-0.4430767297744751,0.7634960412979126,-1.4736416339874268
1772094417936330500,6.70733056640625,-0.46062058210372925,0.9121643304824829,-1.3910725116729736
1772094417946280400,6.717280517578125,-0.48059630393981934,0.883233904838562,-1.3341434001922607
1772094417956229400,6.7272294921875,-0.5049874186515808,0.73275226354599,-1.2839157581329346
1772094417966179600,6.7371796875,-0.4995776414871216,0.5594732761383057,-1.2052271366119385
1772094417976129500,6.747129638671875,-0.4397928714752197,0.4375879168510437,-1.065930724143982
1772094417986078500,6.757078369140625,-0.3247917890548706,0.3955884277820587,-0.8628830313682556
1772094417996028400,6.7670283203125,-0.2144833654165268,0.42686381936073303,-0.6224989295005798
1772094418005977600,6.7769775390625,-0.12261933833360672,0.4858672022819519,-0.38349610567092896
1772094418015927600,6.786927490234375,-0.05144157260656357,0.5555669069290161,-0.17317217588424683
1772094418025876500,6.79687646484375,-0.008925686590373516,0.5629401803016663,-0.028384190052747726
1772094418035826400,6.806826416015625,0.005096388515084982,0.47736719250679016,0.041316062211990356
1772094418045776600,6.816776611328125,-0.003685638541355729,0.3242291510105133,0.08179667592048645
1772094418055725600,6.8267255859375,-0.011708943173289299,0.21709150075912476,0.11428777128458023
1772094418065675500,6.836675537109375,-0.015500427223742008,0.18245548009872437,0.12859328091144562
1772094418075624400,6.84662451171875,0.0012194300070405006,0.18203283846378326,0.11195331066846848
1772094418085575000,6.856574951171875,0.023772604763507843,0.14670753479003906,0.08182966709136963
1772094418095523800,6.86652392578125,0.06045924499630928,0.06392103433609009,0.05793924629688263
1772094418105473800,6.876473876953125,0.1075010746717453,-0.012878568843007088,0.05589902773499489
1772094418115423700,6.886423828125,0.15880712866783142,-0.015040256083011627,0.08364943414926529
1772094418125373000,6.896373046875,0.2223273515701294,0.03457995131611824,0.12838028371334076
1772094418135323000,6.906322998046875,0.28235340118408203,0.13545089960098267,0.20177221298217773
1772094418145271800,6.916271728515625,0.3411559760570526,0.2733614146709442,0.2843932509422302
1772094418155221800,6.9262216796875,0.3902883529663086,0.3767450451850891,0.34889182448387146
1772094418165170700,6.936170654296875,0.3801374137401581,0.36942869424819946,0.3622414171695709
1772094418175121000,6.946120849609375,0.3233337998390198,0.24685141444206238,0.3023615777492523
1772094418185070800,6.95607080078125,0.25601068139076233,0.08220704644918442,0.18957430124282837
1772094418195019800,6.966019775390625,0.21029619872570038,-0.044521063566207886,0.06517006456851959
1772094418204970000,6.975969970703125,0.18072405457496643,-0.11835333704948425,-0.06033093482255936
1772094418214919000,6.9859189453125,0.16359752416610718,-0.19368085265159607,-0.1517186313867569
1772094418224868900,6.995868896484375,0.12816299498081207,-0.3272080421447754,-0.20058128237724304
1772094418234817800,7.00581787109375,0.09029418230056763,-0.5449036359786987,-0.1918698251247406
1772094418244767700,7.015767822265625,0.06964785605669022,-0.7982307076454163,-0.07669500261545181
1772094418254717000,7.025717041015625,0.08529259264469147,-0.9049219489097595,0.16020649671554565
1772094418264667000,7.0356669921875,0.1430826634168625,-0.7588382363319397,0.44803735613822937
1772094418274616800,7.045616943359375,0.22250984609127045,-0.4813845455646515,0.7089118361473083
1772094418284565800,7.055565673828125,0.30535703897476196,-0.23309066891670227,0.8782004117965698
1772094418294516000,7.065515869140625,0.3456208407878876,-0.16259360313415527,0.922489583492279
1772094418304465000,7.07546484375,0.3508142828941345,-0.3083765506744385,0.8525186777114868
1772094418314414800,7.085414794921875,0.33214071393013,-0.5781041979789734,0.7192895412445068
1772094418324363800,7.09536376953125,0.2756868898868561,-0.8576657772064209,0.5610228776931763
1772094418334314000,7.10531396484375,0.20571765303611755,-0.9646593332290649,0.3978393077850342
1772094418344263700,7.115263671875,0.16014933586120605,-0.862910270690918,0.23967598378658295
1772094418354212900,7.125212890625,0.1277083158493042,-0.6551957130432129,0.08663344383239746
1772094418364162600,7.13516259765625,0.11639255285263062,-0.40523818135261536,-0.06305468082427979
1772094418374112000,7.145112060546875,0.13801023364067078,-0.15233775973320007,-0.19638371467590332
1772094418384061700,7.155061767578125,0.15601758658885956,0.04200627654790878,-0.29774701595306396
1772094418394011000,7.165010986328125,0.1343224048614502,0.16228236258029938,-0.36473697423934937
1772094418403960800,7.1749609375,0.09300606697797775,0.21711251139640808,-0.3954399824142456
1772094418413910800,7.184910888671875,0.05034169554710388,0.2264610081911087,-0.40105631947517395
1772094418423859700,7.194859619140625,0.008735757321119308,0.21002335846424103,-0.39575663208961487
1772094418433809700,7.2048095703125,-0.020275920629501343,0.19269630312919617,-0.37487664818763733
1772094418443758800,7.2147587890625,-0.029973072931170464,0.19152560830116272,-0.3306657373905182
1772094418453708800,7.224708740234375,-0.021814480423927307,0.2311214953660965,-0.2591840922832489
1772094418463657700,7.23465771484375,0.0009189601987600327,0.34660521149635315,-0.1685773730278015
1772094418473607700,7.244607666015625,0.04073481634259224,0.5420519709587097,-0.07999612390995026
1772094418483557600,7.2545576171875,0.07992824912071228,0.7543309330940247,-0.021072015166282654
1772094418493506600,7.264506591796875,0.095940500497818,0.9223617315292358,-0.009456638246774673
1772094418503456800,7.274456787109375,0.09285049140453339,1.0205854177474976,-0.050986677408218384
1772094418513405700,7.28440576171875,0.12216470390558243,1.05365788936615,-0.12898214161396027
1772094418523355600,7.294355712890625,0.16928799450397491,1.0442924499511719,-0.20964612066745758
1772094418533304600,7.3043046875,0.22520825266838074,1.0029942989349365,-0.26029226183891296
1772094418543254800,7.3142548828125,0.22576743364334106,0.8844751715660095,-0.29973670840263367
1772094418553204700,7.324204833984375,0.19098708033561707,0.7325732707977295,-0.3427552878856659
1772094418563153700,7.334153564453125,0.13167788088321686,0.5685096383094788,-0.41199439764022827
1772094418573103600,7.344103515625,0.048974473029375076,0.4481866955757141,-0.48810434341430664
1772094418583052800,7.354052734375,-0.007012268528342247,0.3658313751220703,-0.5129041075706482
1772094418593002800,7.364002685546875,-0.042502883821725845,0.22837871313095093,-0.47604674100875854
1772094418602951700,7.37395166015625,-0.05020325258374214,-0.04920985549688339,-0.33995527029037476
1772094418612901600,7.383901611328125,-0.05439986288547516,-0.5404145121574402,-0.052099235355854034
1772094418622850800,7.393850830078125,-0.07842075824737549,-1.066785216331482,0.419853150844574
1772094418632800800,7.40380078125,-0.06742376834154129,-1.41526198387146,1.0301345586776733
1772094418642750700,7.413750732421875,-0.0026273708790540695,-1.533154845237732,1.7321662902832031
1772094418652699600,7.42369970703125,0.04700010269880295,-1.546216368675232,2.407947540283203
1772094418662649900,7.43364990234375,0.04285181313753128,-1.6080948114395142,2.822615623474121
1772094418672598800,7.443598876953125,0.004041832406073809,-1.656902551651001,2.8485944271087646
1772094418682548700,7.453548828125,-0.04686107486486435,-1.5652343034744263,2.4605419635772705
1772094418692497700,7.46349755859375,-0.07818783074617386,-1.3022719621658325,1.7471277713775635
1772094418702447900,7.47344775390625,-0.06679045408964157,-0.9566405415534973,0.9080633521080017
1772094418712397800,7.483397705078125,-0.02875944972038269,-0.7204506397247314,0.0849500223994255
1772094418722346800,7.4933466796875,0.021961187943816185,-0.5471790432929993,-0.5850551724433899
1772094418732296700,7.503296630859375,0.0347861722111702,-0.4628872871398926,-1.0458142757415771
1772094418742245600,7.51324560546875,-0.05908564105629921,-0.4271339178085327,-1.298346757888794
1772094418752195800,7.52319580078125,-0.19571299850940704,-0.3616827428340912,-1.3145952224731445
1772094418762144800,7.533144775390625,-0.3405195474624634,-0.3504667580127716,-1.1485161781311035
1772094418772094700,7.5430947265625,-0.4094509482383728,-0.3130685091018677,-0.8493345379829407
1772094418782045000,7.553044921875,-0.37687185406684875,-0.22146891057491302,-0.4851410984992981
1772094418791993900,7.562993896484375,-0.28476935625076294,-0.17276954650878906,-0.14492441713809967
1772094418801943800,7.57294384765625,-0.18063311278820038,-0.16179974377155304,0.12722361087799072
1772094418811892700,7.582892822265625,-0.09160123765468597,-0.1419709026813507,0.28940001130104065
1772094418821842700,7.5928427734375,-0.05723787844181061,-0.09001975506544113,0.3494710326194763
1772094418831791900,7.6027919921875,-0.1054898276925087,0.0427691824734211,0.3088282644748688
1772094418841741800,7.612741943359375,-0.22889499366283417,0.22323434054851532,0.18059895932674408
1772094418851691800,7.62269189453125,-0.34601202607154846,0.44935905933380127,0.011298608966171741
1772094418861640700,7.632640625,-0.3970232605934143,0.7432600259780884,-0.1128692552447319
1772094418871591000,7.6425908203125,-0.3813588321208954,1.0355195999145508,-0.17279542982578278
1772094418881539800,7.652539794921875,-0.26043900847435,1.305517554283142,-0.16810017824172974
1772094418891489800,7.66248974609375,-0.1016560047864914,1.6097596883773804,-0.20123256742954254
1772094418901438700,7.672438720703125,0.0474332720041275,1.851349949836731,-0.2528623044490814
1772094418911389000,7.682388916015625,0.2377808541059494,1.905189037322998,-0.285465270280838
1772094418921339000,7.6923388671875,0.4286518394947052,1.7527544498443604,-0.3038049340248108
1772094418931287800,7.702287841796875,0.5562170147895813,1.426626443862915,-0.3135654330253601
1772094418941237800,7.71223779296875,0.613505482673645,1.0207065343856812,-0.29065659642219543
1772094418951187000,7.72218701171875,0.6284692287445068,0.6116217374801636,-0.21977388858795166
1772094418961137000,7.732136962890625,0.6268330216407776,0.2815561294555664,-0.07383759319782257
1772094418971085800,7.7420859375,0.6308275461196899,0.1186031624674797,0.1383015513420105
1772094418981035800,7.752035888671875,0.6153285503387451,0.151554137468338,0.3911634385585785
1772094418990984700,7.761984619140625,0.5574966669082642,0.31325727701187134,0.6419080495834351
1772094419000935000,7.771934814453125,0.48494258522987366,0.5092108845710754,0.8644047975540161
1772094419010884900,7.781884765625,0.4205241799354553,0.6823829412460327,1.0343741178512573
1772094419020833800,7.791833740234375,0.3607938885688782,0.7966187000274658,1.126434326171875
1772094419030784000,7.801783935546875,0.3144378364086151,0.7857929468154907,1.0960633754730225
1772094419040733000,7.81173291015625,0.28625816106796265,0.6117063760757446,0.7409948706626892
1772094419050683000,7.821682861328125,0.3454471826553345,0.36362436413764954,0.36852359771728516
1772094419060632800,7.8316328125,0.43799713253974915,0.008013496175408363,-0.034434057772159576
1772094419070581800,7.841581787109375,0.47947561740875244,-0.327385812997818,-0.3732699155807495
1772094419080531700,7.85153173828125,0.4666900634765625,-0.5099314451217651,-0.5843145251274109
1772094419090480600,7.861480712890625,0.4149981141090393,-0.3199407160282135,-0.5583098530769348
1772094419100430600,7.8714306640625,0.30423980951309204,0.23591406643390656,-0.3145982623100281
1772094419110379500,7.881379638671875,0.1862087994813919,0.8502901792526245,0.05439973622560501
1772094419120329700,7.891329833984375,0.08616411685943604,1.158789873123169,0.4087207615375519
1772094419130278700,7.901278564453125,0.02710479497909546,0.9125428795814514,0.5437523722648621
1772094419140228600,7.911228515625,-0.024040445685386658,0.2353629171848297,0.3318333923816681
1772094419150178600,7.921178466796875,-0.2489401400089264,-0.5383506417274475,-0.161338210105896
1772094419160127700,7.931127685546875,-0.4796619713306427,-1.0802110433578491,-0.7221762537956238
1772094419170077400,7.941077392578125,-0.507462203502655,-1.1970772743225098,-1.1547812223434448
1772094419180026600,7.951026611328125,-0.47929468750953674,-0.8854660391807556,-1.4312344789505005
1772094419189976600,7.9609765625,-0.449464350938797,-0.21115738153457642,-1.4663344621658325
1772094419199925500,7.970925537109375,-0.4698874056339264,0.5574143528938293,-1.1465239524841309
1772094419209875500,7.98087548828125,-0.7070872187614441,0.7626122236251831,-0.6082448363304138
1772094419219825400,7.990825439453125,-0.7633519172668457,0.452467679977417,-0.1709408313035965
1772094419229774600,8.000774658203126,-0.654616117477417,0.099078468978405,0.10626360774040222
1772094419239724500,8.010724609375,-0.5137212872505188,-0.09375203400850296,0.1745327264070511
1772094419249673700,8.020673828125,-0.33932021260261536,-0.09577390551567078,0.08675813674926758
1772094419259623400,8.03062353515625,-0.1691855490207672,-0.03385637328028679,-0.050860170274972916
1772094419269572600,8.040572509765624,-0.05306374281644821,0.10087534785270691,-0.16474412381649017
1772094419279522300,8.050522216796875,-0.03756031394004822,0.155613973736763,-0.21219897270202637
1772094419289472500,8.060472412109375,-0.08739897608757019,0.15146024525165558,-0.24519552290439606
1772094419299421400,8.07042138671875,-0.10639844834804535,0.22697769105434418,-0.24353256821632385
1772094419309371400,8.080371337890625,-0.1552746444940567,0.2876548767089844,-0.1758722960948944
