time,seconds_elapsed,z,y,x
1772045643935923500,0.06892333984375,1.3298451667040585,0.902110752531886,-1.745311635455489
1772045643945909500,0.078909423828125,1.4992507162511348,0.8771212727040052,-1.4730448463708161
1772045643955894500,0.08889453125,1.9586375752717256,0.9036837009370327,-0.8460653324440122
1772045643965880300,0.09888037109375,2.408478022789955,0.5944771742507815,0.05857345899445936
1772045643975866400,0.108866455078125,2.8653888470858333,0.23932956512272358,0.6526211740531027
1772045643985852400,0.118852294921875,3.4630724161624906,0.43738282474428414,0.4956673289958387
1772045643995837400,0.12883740234375,3.5687194870263337,0.9758779995322227,0.24016652740351854
1772045644005823500,0.138823486328125,2.8186873016655443,1.0285337771818042,0.5284999235395342
1772045644015809500,0.1488095703125,2.0024428147286177,1.085752040441334,0.5700499314155429
1772045644025795600,0.158795654296875,1.2907768926411867,0.957044704246521,0.5572314394399523
1772045644035780400,0.1687802734375,0.8426496787816286,0.6817804869115353,0.36460765752121804
1772045644045766400,0.178766357421875,0.3995715650051832,0.46237961109578607,0.26399105510525406
1772045644055752400,0.18875244140625,-0.17587737590968608,0.4151581334546208,0.30202224120534954
1772045644065738500,0.198738525390625,-0.13993161778151988,0.3778831725493073,0.024708909320831297
1772045644075723500,0.2087236328125,0.11714578547775745,0.37020547752827404,-0.1728989446207881
1772045644085709300,0.218709228515625,0.6559381896466017,0.4231748511716723,-0.07005947852358221
1772045644095695600,0.228695556640625,1.4184557625710963,0.5432765638455749,-0.16199951107427477
1772045644105681400,0.238681396484375,2.0281354743897912,0.7468015328764915,-0.4223840661201626
1772045644115666400,0.24866650390625,2.42392985894382,1.015654129603505,-0.7072018553506583
1772045644125652200,0.25865234375,2.5737971798062325,1.2245008781790732,-0.7869627898078412
1772045644135638500,0.268638427734375,2.3784815284550187,1.0255489161521196,-0.5663800107311457
1772045644145624300,0.278624267578125,2.035319832935929,0.5491004476934671,-0.43222471132874485
1772045644155609300,0.288609375,1.5999112308740615,0.18876403775066136,-0.2585277481980622
1772045644165595600,0.298595703125,1.2054010409116744,-0.10003682976663113,-0.12699275082927197
1772045644175581400,0.30858154296875,1.2261807940900324,-0.5351525863617659,0.5295316412074491
1772045644185567500,0.3185673828125,1.9689538021028041,-1.5519073706835507,3.1679081510931253
1772045644195552300,0.32855224609375,2.8659271917462346,-2.6421681207209824,4.895674485246837
1772045644205538300,0.338538330078125,3.8544174200922248,-2.6428195703670383,4.585964685213566
1772045644215524400,0.3485244140625,4.7884991819024085,0.08060556858778,0.823130227862671
1772045644225510400,0.358510498046875,4.644413367050886,1.4301120058342813,-0.6013620383936912
1772045644235495400,0.368495361328125,3.0587136168807745,1.2574421937942504,-0.3022871392192319
1772045644245481500,0.3784814453125,2.726723888239264,1.966061003270745,0.5752091042770072
1772045644255467500,0.388467529296875,3.048245998880267,2.058646055726707,1.6994070856317878
1772045644265453300,0.398453369140625,3.863632407683134,2.1604420041203496,2.5928981861174103
1772045644275439400,0.408439453125,4.754024665370583,3.2950416620999574,3.246173001773655
1772045644285424400,0.41842431640625,5.634398217868805,3.128420190313458,2.06099963311553
1772045644295410400,0.428410400390625,6.197005797389149,2.2742916706621648,2.3678964215546845
1772045644305396200,0.438396240234375,6.73899319820702,2.3998589552655814,3.251962106569111
1772045644315382500,0.448382568359375,6.531505463024973,2.487787414087355,1.9808400547295808
1772045644325367600,0.458367431640625,5.828194696828723,2.274563181079924,1.0114625231325627
1772045644335353300,0.468353271484375,5.079704480212927,2.4238442264869806,1.7539830176889895
1772045644345339400,0.47833935546875,4.54177483035326,2.830997332662344,3.0263077233165503
1772045644355325400,0.488325439453125,4.20637149387598,3.477568851287663,3.9503967911615967
1772045644365310500,0.498310546875,4.135526271802187,4.047276325941086,4.843595630702376
1772045644375296300,0.508296142578125,4.135431579256058,4.546309551173448,5.333079521822929
1772045644385282300,0.5182822265625,2.2959856160759924,5.395771832579374,5.260276151418686
1772045644395268400,0.528268310546875,4.929045716711879,5.8492369003355495,6.154346805357933
1772045644405253400,0.53825341796875,5.415471973827481,5.387499678796529,5.6649353949517005
1772045644415239400,0.548239501953125,5.953747660645842,4.606552130690217,4.782010404404997
1772045644425225500,0.5582255859375,6.391204427409171,4.470827316948771,4.0291953103274105
1772045644435211500,0.56821142578125,6.427357106286287,4.278036800161003,3.697534667509794
1772045644445197300,0.578197265625,6.499804502859711,4.122176376363635,3.3473043487787244
1772045644455182300,0.588182373046875,6.826606599730253,4.383877932292223,2.644035668158531
1772045644465168400,0.59816845703125,6.916867300891876,4.907263508492708,1.6000304733395576
1772045644475154400,0.608154541015625,6.281120835402607,5.533173639622331,0.1764431930989027
1772045644485140200,0.61814013671875,4.589911961534619,6.319021819251775,-1.9107009350985287
1772045644495125200,0.628125244140625,1.7110872942924498,7.265953125762939,-3.911605288213491
1772045644505111600,0.638111572265625,-1.806562222971022,8.154865374025702,-7.395224233320355
1772045644515097300,0.648097412109375,-5.830858947601914,8.582929458543658,-12.684933984494208
1772045644525083400,0.65808349609375,-9.730773213499784,7.8418275986135,-18.29537381914854
1772045644535068200,0.668068115234375,-12.768030785375833,6.827969704777002,-24.18140637243986
1772045644545054500,0.678054443359375,-13.130789746290445,5.864572416633367,-29.03699230066538
1772045644555040300,0.688040283203125,-10.785062486445904,4.898752869778871,-30.20097412047386
1772045644565026300,0.6980263671875,-6.92700466402471,5.0074201652467245,-28.700974047160148
1772045644575012400,0.708012451171875,-3.666063132186234,5.445765405282378,-26.603293327379227
1772045644584997400,0.717997314453125,-2.5431734934836623,5.043697931808233,-25.622844366669653
1772045644594983400,0.7279833984375,-2.9232991842627523,4.470443578328192,-26.528621825015545
1772045644604969200,0.73796923828125,-3.8440614457726476,4.372303229832649,-27.330999699163435
1772045644614955500,0.74795556640625,-4.588333167910576,3.8153853863865135,-26.538465173637867
1772045644624940300,0.757940185546875,-4.609882151895762,3.2895956716537476,-24.049542910301685
1772045644634926300,0.76792626953125,-4.081999264276027,2.653063024222851,-20.471172382354734
1772045644644912400,0.777912353515625,-3.4938971780151125,1.853347939543426,-16.411787100946903
1772045644654898400,0.7878984375,-2.996395400133729,0.8158844214528799,-12.262557297962903
1772045644664884200,0.79788427734375,-2.399837620216608,-0.45621436646431685,-8.345331247258185
1772045644674869200,0.807869140625,-1.6790473114311695,-1.790968932519853,-4.935709266254306
1772045644684855600,0.81785546875,-1.0884896487116813,-3.095786625473201,-2.190466555505991
1772045644694841300,0.82784130859375,-0.3246375392477959,-4.242859688317775,0.047075639429688454
1772045644704827400,0.837827392578125,0.6561013443190604,-4.954756496551632,1.9310212540715932
1772045644714812200,0.847812255859375,1.381986272829771,-5.479008918714523,3.6702392488270994
1772045644724798500,0.857798583984375,1.906944212913513,-6.051745093539357,5.37272822612226
1772045644734784300,0.8677841796875,2.277595972904563,-6.499675323522091,7.005818088498711
1772045644744770300,0.877770263671875,2.3992747256368396,-6.861771436613798,8.33441413192451
1772045644754756400,0.88775634765625,2.358857375052571,-7.027918276625871,9.209971808573602
1772045644764741400,0.897741455078125,2.1458973459392783,-7.073195342200994,9.735603117874264
1772045644774727400,0.9077275390625,1.7238725415855645,-7.111614796966314,9.983608156883715
1772045644784713200,0.917713134765625,1.1085428411811589,-7.06756990353465,10.054837994360923
1772045644794699500,0.927699462890625,0.5988730711221695,-6.956101579171419,10.260635292237996
1772045644804685300,0.937685302734375,0.33258009575009345,-6.965355145207047,10.786509762644767
1772045644814670300,0.94767041015625,0.2423626309419982,-7.170846738135814,11.523077486276627
1772045644824656400,0.957656494140625,0.3193389213830232,-7.3976587669909,12.195675134301185
1772045644834642400,0.967642333984375,0.5783353100061416,-7.749172695791721,12.795275350654125
1772045644844628200,0.977628173828125,0.800003546231985,-8.12237823191881,13.200583998006582
1772045644854613200,0.98761328125,0.6931868470668793,-8.496754565390944,13.346415195220708
1772045644864599600,0.997599609375,0.4724854100465774,-8.806403282886743,13.141817336261271
1772045644874585300,1.00758544921875,0.2785457232236862,-9.122653006082773,12.569031477075814
1772045644884571400,1.0175712890625,0.27457448150515557,-9.482980355936288,11.869535300731659
1772045644894557400,1.027557373046875,0.321942966401577,-9.625713587135076,11.129008025819063
1772045644904542500,1.03754248046875,0.348668476241827,-9.723815649446845,10.479497823393345
1772045644914528300,1.0475283203125,0.2852700630426407,-9.619839142143725,9.887285963726043
1772045644924514300,1.057514404296875,0.1321803095350042,-9.373535646355151,9.358160967090726
1772045644934500400,1.067500244140625,0.03191372613310814,-9.025291533005237,9.068153354132175
1772045644944486400,1.077486328125,-0.14957326981928198,-8.634431097722054,8.982954028013348
1772045644954471400,1.087471435546875,-0.386270769405365,-8.255194464737176,8.858034685924649
1772045644964457200,1.097457275390625,-0.3908686185896396,-7.765984129860997,8.493955874583124
1772045644974443500,1.107443603515625,-0.4631623224386945,-7.352742935943603,7.642647673049568
1772045644984429300,1.11742919921875,-0.5216285034000874,-7.036005721491575,6.517483367413282
1772045644994414300,1.127414306640625,-0.799417855298519,-6.763458361899852,5.720652021476626
1772045645004400400,1.137400390625,-1.3199416123270988,-6.514985120856761,4.772664483910798
1772045645014386400,1.147386474609375,-1.7337679126560688,-6.184561326357722,3.319527868580818
1772045645024372200,1.157372314453125,-1.774713671028614,-5.166321271914243,1.4535568865686654
1772045645034358300,1.167358154296875,-1.423454593771696,-3.0336642235592004,-0.11312778200805186
1772045645044343600,1.177343505859375,-1.142813944095373,-0.3617740415304899,-1.421884567975998
1772045645054329300,1.187329345703125,-1.000041038473323,2.8618869764447212,-3.789129247623682
1772045645064315400,1.1973154296875,-1.3791735534965992,7.029835508424044,-7.548384750509261
1772045645074301400,1.207301513671875,-2.1500538810968397,10.654377420437335,-11.366738923573493
1772045645084287500,1.21728759765625,-3.6598248223185537,11.013020178204775,-14.906867691409587
1772045645094272300,1.227272216796875,-5.919457853031158,11.138852543485164,-21.389685403633116
1772045645104258300,1.23725830078125,-8.194134139096736,12.152487149959802,-30.815984671926497
1772045645114244400,1.247244384765625,-9.947882178986072,12.645336133599281,-39.243864438533784
1772045645124230400,1.25723046875,-10.527990928405522,12.6795049451828,-42.036261114645
1772045645134215400,1.26721533203125,-10.345006350839137,13.139224397158621,-38.955571228277684
1772045645144201200,1.277201171875,-9.68413538096547,13.459444193029404,-32.01355779569149
1772045645154187500,1.2871875,-7.22988227995038,15.016830287384986,-25.699295153665542
1772045645164173300,1.29717333984375,-4.015136974358558,15.789339092969893,-20.342280629503726
1772045645174159000,1.3071591796875,-1.1532300511043518,15.424306341904401,-16.331567316806314
1772045645184144100,1.31714404296875,1.0685487575102597,14.81021582790613,-13.679528374934195
1772045645194130200,1.327130126953125,2.321241784016043,13.940942930614947,-11.21512212869525
1772045645204116200,1.3371162109375,2.3446438485220074,12.672899847829342,-8.451345397868751
1772045645214102000,1.34710205078125,1.4911827067382633,10.9031242177248,-5.487440062451363
1772045645224088000,1.357088134765625,0.30591552231684327,8.886086475932597,-2.3697411726385353
1772045645234073000,1.367072998046875,-0.8087830650150776,6.833852333074808,0.9484843811720609
1772045645244059100,1.37705908203125,-1.4666840791672466,4.876967446689307,3.967044851362705
1772045645254045200,1.387045166015625,-1.3894406804889439,3.278660143880546,6.512967351293564
1772045645264031200,1.39703125,-1.0599420380108058,2.0378551966324445,8.385108546373248
1772045645274017000,1.40701708984375,-0.7201026187822223,0.9216349526911973,9.459424123781918
1772045645284002000,1.417001953125,-0.577882159411162,-0.08055150031298398,10.10833343770504
1772045645293988400,1.42698828125,-0.3368827613800764,-0.9373869408354163,11.204660355913639
1772045645303974100,1.43697412109375,-0.023313071048259734,-1.5431027174592018,12.21679507921934
1772045645313960200,1.446960205078125,0.16738376139588654,-1.9582154043368993,13.053503092992305
1772045645323945000,1.456945068359375,0.1894751086294651,-2.466785250329971,13.81689569518566
1772045645333931300,1.46693115234375,0.2251163308531046,-3.087096538539231,14.472067576634883
1772045645343917000,1.4769169921875,0.7630133205521852,-3.7500977984398602,15.235992093747853
1772045645353903000,1.486903076171875,1.8954004901140926,-4.281166622619331,16.065670647275446
1772045645363889200,1.49688916015625,3.115736065307259,-4.457932764062285,17.128200509822367
1772045645373874200,1.506874267578125,3.9735067408531903,-4.367278679668903,18.308086001205442
1772045645383860200,1.516860107421875,4.114902585968375,-4.157928073224425,18.960446332365272
1772045645393846000,1.526845947265625,3.625546705141663,-4.0138600862905385,18.985771327757835
1772045645403832300,1.536832275390625,2.6936867110341787,-4.038461735844612,18.522383416402338
1772045645413818000,1.546818115234375,1.582826825082302,-4.151861028270424,17.529074974119663
1772045645423803100,1.55680322265625,0.5498187885632738,-4.358431648607552,16.08258671076298
1772045645433789000,1.566788818359375,-0.19714695843160152,-4.567159446978569,14.4476789853096
1772045645443775200,1.576775146484375,-0.58574237139225,-4.885427816520631,12.745793234604596
1772045645453761000,1.586760986328125,-0.6313759953200817,-5.3266053573727605,10.981029295182227
1772045645463747000,1.5967470703125,-0.6080839670598507,-5.879148638996481,9.313337490501999
1772045645473732400,1.606732421875,-0.2598854464173317,-6.288411576932669,8.04080411055982
1772045645483718100,1.61671826171875,0.28783963953601194,-6.76698770506978,7.3692276222765445
1772045645493704200,1.6267041015625,0.7599310635626315,-6.871822290506959,7.171010404264926
1772045645503690200,1.636690185546875,1.1428571987152099,-6.565113718116283,7.204847207415104
1772045645513676300,1.64667626953125,1.1408020197510718,-6.26910657248199,7.084460832580923
1772045645523661000,1.6566611328125,0.8142600351214409,-6.129363755270838,6.6128259018838405
1772045645533647000,1.666647216796875,0.3669149115502834,-6.062872636753321,5.346346415153145
1772045645543633200,1.676633056640625,-0.12673252899050713,-5.955072771769761,3.4999294439166784
1772045645553619200,1.686619140625,-0.4650046989023685,-6.01440057452917,1.708576772776246
1772045645563605000,1.69660498046875,-0.7789543284624815,-5.784762966859341,0.5742839887887239
1772045645573590000,1.706590087890625,-0.9544587794065474,-4.6896872177556155,0.01574234353303909
1772045645583576300,1.716576416015625,-0.7194213585197925,-3.0673890907675028,0.21419980004131792
1772045645593562000,1.72656201171875,-0.14943433627262712,-1.1943474397167562,-0.1454120950192213
1772045645603548200,1.736548095703125,0.3716249889373779,1.4047238820776342,-2.7079478760987516
1772045645613533000,1.746532958984375,0.0806171128951013,4.757750115634501,-7.679082091477513
1772045645623519200,1.756519287109375,-0.6488022733520716,8.475729313018917,-13.598326594018936
1772045645633505000,1.766505126953125,-1.6800414370350538,11.190753411114216,-19.202424366170167
1772045645643491000,1.776490966796875,-1.63367029261291,10.830214464336633,-20.945392653369904
1772045645653477000,1.78647705078125,-1.4010070535115897,10.605815341842174,-23.51642387559414
1772045645663462100,1.796462158203125,-2.716052856621146,10.018368504619598,-27.06910583553314
1772045645673448200,1.8064482421875,-3.707530576345324,8.756021003127097,-27.243751623821257
1772045645683434200,1.816434326171875,-4.341886464259028,8.879037141942977,-26.587099732947348
1772045645693420300,1.826420166015625,-4.39719918615818,10.741210485237836,-25.361535024929044
1772045645703406000,1.836406005859375,-4.969940621680021,13.324096980428696,-23.731764077842236
1772045645713391000,1.84639111328125,-5.196180403605103,15.003744011318682,-20.841466999471187
1772045645723377200,1.856377197265625,-3.5758331184238195,15.74410177488327,-18.134515733194352
1772045645733363200,1.86636328125,-0.8212550085753202,16.146236468374727,-15.911787076508999
1772045645743349000,1.876348876953125,1.6396126882739364,16.085939528322218,-13.477255744051932
1772045645753335300,1.886335205078125,3.099797906941175,14.958547609764336,-11.027823779582977
1772045645763320300,1.8963203125,2.7548160102576014,13.248017949354647,-9.924531698536873
1772045645773306000,1.90630615234375,1.6185761838555335,10.64260164244771,-8.964712853401899
1772045645783292200,1.916292236328125,0.7466746916264295,7.901523650163412,-6.962060779836773
1772045645793278200,1.9262783203125,0.4064972726151347,5.961327155989408,-4.023044386482239
1772045645803263200,1.93626318359375,0.4698576918914914,4.430809194815159,-0.680385817682743
1772045645813249000,1.9462490234375,1.0277709761157632,3.0489176145315167,2.2901298757851123
1772045645823235000,1.956235107421875,1.839403293082118,1.5151073338136076,4.565580068832635
1772045645833221000,1.96622119140625,2.796879959005117,-0.029904724398255346,6.474505810952186
1772045645843207200,1.976207275390625,3.17729001968354,-1.22848877877146,7.780817541855574
1772045645853192200,1.986192138671875,2.544654671952128,-2.2029349919348955,8.547065533480048
1772045645863178000,1.996177978515625,1.5786220668688415,-2.8897271695286033,9.26208602669239
1772045645873164300,2.006164306640625,0.6820821002066135,-3.1509289592415093,10.05445220991373
1772045645883150000,2.016150146484375,-0.09803016611933707,-3.3902439113169907,11.265533634549378
1772045645893136100,2.02613623046875,-0.3456860994301736,-3.9674917183473704,12.748836255562304
1772045645903121200,2.03612109375,0.300873874887824,-4.805322306409478,13.872238227701187
1772045645913107200,2.046107177734375,1.5735985396184027,-5.6026189317703246,14.442088617956637
1772045645923093000,2.056093017578125,2.848522467958927,-6.324172626143693,14.892458057785033
1772045645933079300,2.066079345703125,3.805958801871538,-6.871570946094393,15.327840356361865
1772045645943065000,2.076065185546875,4.18335711351335,-7.189913842177391,15.38711905928254
1772045645953050000,2.086050048828125,4.034361314788461,-7.31487059366703,15.415581768178939
1772045645963036200,2.0960361328125,3.648047290763259,-7.262730072063207,15.584508594298361
1772045645973022200,2.106022216796875,3.2541286369532343,-6.895880626964568,15.951306601470709
1772045645983008300,2.11600830078125,2.888957938721776,-6.523797957387567,16.13236108775735
1772045645992993000,2.125992919921875,2.505420393672585,-6.247907717108726,15.902109732103346
1772045646002979000,2.13597900390625,2.132057913418114,-5.998459493553638,15.267954919719696
1772045646012965000,2.145965087890625,1.5552825462050734,-5.873932950174808,14.014173001998662
1772045646022951200,2.155951171875,0.8132856371313333,-5.964697509205341,12.559071224075556
1772045646032937000,2.16593701171875,0.2652694775432348,-5.94465016195476,11.420629503715038
1772045646042922000,2.175921875,0.061419806602597236,-5.720241687110066,10.594195046675205
1772045646052908300,2.185908203125,0.02367313653230667,-5.425806905359029,10.101125113761425
1772045646062894000,2.19589404296875,0.028628201656416056,-5.134862303811311,9.908051688379048
1772045646072880000,2.205880126953125,0.10079502772279084,-4.853649407204985,9.88533366061449
1772045646082866200,2.2158662109375,0.3004261311203241,-4.835780280776322,9.81744728834629
1772045646092851200,2.225851318359375,0.5523105688463896,-4.897999421063065,9.613885786697267
1772045646102837000,2.2358369140625,0.6893470497082919,-4.858881170378625,9.299270971226692
1772045646112823300,2.2458232421875,0.5839923128545284,-4.877144264560938,8.588456113010645
1772045646122809000,2.25580908203125,0.0326169059664011,-4.871548344250023,7.489857158216834
1772045646132795100,2.265795166015625,-0.7626040821641683,-4.519811128087341,6.255944308570027
1772045646142780200,2.2757802734375,-1.5849895560741423,-3.7065509176582094,5.316533460691571
1772045646152766200,2.28576611328125,-2.0944903993070123,-2.059371739652753,3.6770167801380156
1772045646162752300,2.295752197265625,-1.9942630154043435,1.0931251995578408,0.6358697996079922
1772045646172738000,2.305738037109375,-1.4310522092938422,5.8842649590969085,-2.753000485268235
1772045646182723000,2.31572314453125,-1.2989565458349883,11.76843288756013,-7.42434628290832
1772045646192709000,2.325709228515625,-2.2082272531241176,17.218034510004518,-13.074190491712093
1772045646202695200,2.335695068359375,-5.260009609436988,18.23136282700896,-17.685953635048865
1772045646212681000,2.345680908203125,-10.130199232554435,15.888565190875529,-23.09857021944523
1772045646222667300,2.355667236328125,-14.647925663322209,13.932523477315902,-30.71761665215492
1772045646232652300,2.36565234375,-16.839989132630823,12.43946050978899,-37.090130407619476
1772045646242638000,2.37563818359375,-16.00464188581705,12.47435179042816,-39.300380691003795
1772045646252624100,2.3856240234375,-12.862469649004936,13.65348675570488,-37.28457979753017
1772045646262610200,2.395610107421875,-8.86049552308023,13.335330322104692,-33.29212694866657
1772045646272595200,2.40559521484375,-4.664223982936144,11.516736592817306,-29.610165113341807
1772045646282581000,2.4155810546875,-1.1139449924856424,9.197378284460306,-25.862781250035763
1772045646292567000,2.425567138671875,1.3987345785349607,7.92472683109641,-21.42237654387951
1772045646302553000,2.435552978515625,2.6801655506819486,7.846046677613258,-16.49317826695442
1772045646312539100,2.4455390625,3.204572286623716,8.082697963437438,-11.763381449389456
1772045646322524200,2.455524169921875,3.4445442413032055,7.6178002320408815,-7.61336604898572
1772045646332510200,2.46551025390625,3.6553207888975736,6.0614002261132,-4.086562626668811
1772045646342496300,2.475496337890625,3.7797389034658666,4.103117163367569,-1.3441075008124113
1772045646352482000,2.48548193359375,3.798701962611079,2.35922299349457,0.781006584817171
1772045646362468400,2.49546826171875,3.7357811037957664,0.9480752158492803,2.475679919925332
1772045646372453000,2.505453125,3.5363165160715577,-0.22252836018651723,3.83191566542685
1772045646382439200,2.515439208984375,3.293352101577818,-1.0650222638845444,5.024709738221764
1772045646392425000,2.525425048828125,3.0062597915440796,-1.5999609152346848,6.169949448159337
1772045646402411300,2.535411376953125,2.704471724420786,-1.9638330980882048,7.208589901074767
1772045646412397000,2.54539697265625,2.2038703730888662,-2.186368326406926,8.027494547131656
1772045646422382000,2.555382080078125,1.6523079191960393,-2.3719344448991118,8.789899891853333
1772045646432368000,2.5653681640625,1.3054431313753128,-2.6247446922332047,9.538378418031334
1772045646442354200,2.575354248046875,1.2338036901839076,-2.928234594838321,10.215492666697502
1772045646452340200,2.58534033203125,1.5415847141116856,-3.1645129556968805,10.96975971314907
1772045646462326000,2.595325927734375,2.125918387749791,-3.3548367901101708,12.003824528712034
1772045646472311000,2.60531103515625,2.4816543181598183,-3.4766572894006966,13.525914853280781
1772045646482297000,2.615297119140625,2.3862404720187187,-3.3608804541885853,15.19571269032955
1772045646492283100,2.625283203125,1.762452739870548,-3.034741205140948,16.611388466793297
1772045646502269000,2.63526904296875,0.8730740431398153,-2.923469280132651,17.520159846258164
1772045646512254200,2.645254150390625,-0.00568566268729046,-2.859251659505069,17.743547745883465
1772045646522240300,2.655240234375,-0.7043132212370634,-2.7808611366182565,17.782337787526846
1772045646532226000,2.66522607421875,-0.9870458747565746,-2.7588036185890434,18.022640581595898
1772045646542212400,2.67521240234375,-0.8740110317289829,-2.6021821472913027,18.36988048633933
1772045646552198100,2.6851982421875,-0.6746516579449177,-2.500327454447746,18.449145161712167
1772045646562183200,2.69518310546875,-0.6132067169010639,-2.5181749535664912,18.048946404719352
1772045646572169000,2.7051689453125,-0.785329708713293,-2.570736038669944,17.23711213544011
1772045646582155300,2.7151552734375,-1.0443711055219174,-2.73779122569859,16.084576423275468
1772045646592141000,2.72514111328125,-1.2246236277759075,-3.0645640964746472,14.83062148707509
1772045646602127000,2.735127197265625,-1.2764461694717406,-3.414613213419914,13.63700090032816
1772045646612112100,2.745112060546875,-1.267105509674549,-3.7746164458855986,12.642834379911422
1772045646622098200,2.75509814453125,-1.1820225034117697,-4.116138849765062,11.486275988101958
1772045646632084200,2.765084228515625,-1.1813982340335845,-4.4116941599786275,10.235814154714346
1772045646642070000,2.775070068359375,-1.2997791142642496,-4.538949836060405,9.15839008989632
1772045646652056300,2.785056396484375,-1.4678408479869365,-4.398499162840843,8.291431899288296
1772045646662041000,2.795041015625,-1.486667129009962,-4.0740632105797525,7.49863024725914
1772045646672027100,2.805027099609375,-1.318946756070852,-3.4635797811627387,6.658879212528467
1772045646682013000,2.815012939453125,-1.1720680956304073,-2.6632243527531623,5.5531642882496115
1772045646691999200,2.824999267578125,-0.5795815106749534,-1.2387716878548263,3.9423014552503823
1772045646701985000,2.834985107421875,0.45321723047494883,2.6580186008036133,0.7440420050352812
1772045646711970000,2.844969970703125,0.7237105801463126,7.853367229759693,-3.0948551898419856
1772045646721956000,2.8549560546875,-0.30133332735942675,11.910900745820998,-6.528281240281462
1772045646731942100,2.864942138671875,-1.2579963205456732,14.314784426558017,-10.956390528488159
1772045646741928200,2.87492822265625,-1.2334317881315946,14.902680176591872,-16.284775170493123
1772045646751914000,2.8849140625,-1.5795611012846231,14.8821108512938,-23.833685990703106
1772045646761899300,2.894899169921875,-2.678787832587957,15.037136577832698,-32.67093449370861
1772045646771885000,2.904885009765625,-3.123762135374546,12.58707332972288,-38.94659063396453
1772045646781871000,2.91487109375,-2.2967934253275395,7.7929177294939755,-40.70548714265823
1772045646791857200,2.924857177734375,-2.261467260402441,5.745360346275568,-38.52365631355047
1772045646801842200,2.93484228515625,-2.8305636174201965,7.291915834537148,-33.48638929157257
1772045646811828200,2.944828125,-2.580155608922243,9.747179573899507,-27.98396910213232
1772045646821814000,2.95481396484375,-1.6409762317121028,10.84284832046032,-22.864686644768714
1772045646831800300,2.96480029296875,-0.6186918703138828,9.859703544795513,-18.297997153389453
1772045646841786000,2.9747861328125,0.13114913985636084,8.387220423960684,-14.727346990561484
1772045646851771100,2.984771240234375,0.4218360037833452,7.431211492502689,-12.221126386421918
1772045646861757000,2.9947568359375,0.431657761628367,6.509363189321756,-9.984825131458043
1772045646871743200,3.0047431640625,0.17949381284117696,5.251500139766931,-7.43253426553905
1772045646881729000,3.01472900390625,-0.14127477601878344,3.552664424282312,-4.647985380318761
1772045646891715000,3.024715087890625,-0.3915454949378967,1.674559060101211,-1.8356337114155292
1772045646901700000,3.0347001953125,-0.44385150930173695,0.1480409822180867,0.6158756438493729
1772045646911686100,3.04468603515625,-0.21955760074742137,-1.055254026325047,2.6081729121387003
1772045646921672200,3.054672119140625,0.007449731484055519,-2.1302236837282775,4.104018203860521
1772045646931658000,3.064657958984375,0.2628308522194624,-2.9721845034629104,5.167507851350307
1772045646941644300,3.074644287109375,0.4008054907143116,-3.5224475651949643,5.796249991035461
1772045646951629000,3.084629150390625,0.45217210533618923,-3.989792397482693,6.439387735819817
1772045646961615000,3.094614990234375,0.6000573124706745,-4.444339707517623,7.254131170544028
1772045646971601200,3.10460107421875,0.8392179507672787,-4.686254612958431,8.15511028869748
1772045646981587200,3.114587158203125,1.0912661276876925,-4.686655010452866,9.359866017442942
1772045646991573000,3.124572998046875,1.4985130496263503,-4.558274129733443,10.843437518525123
1772045647001559000,3.13455908203125,2.1540549334317443,-4.134454258656501,12.504880199682711
1772045647011544300,3.14454443359375,2.8555256247192617,-3.519887943840027,14.30681622415781
1772045647021530000,3.154530029296875,3.4196605599373577,-2.9460072751551865,15.992998209774493
1772045647031516200,3.16451611328125,3.7289147251576185,-2.450834232482314,17.30001838120818
1772045647041502200,3.174502197265625,3.881659647282958,-2.0083345031157136,18.08172171611786
1772045647051488300,3.18448828125,3.9018285750865935,-1.6573697326302528,18.458121079850194
1772045647061473000,3.19447314453125,3.883779708176851,-1.283169047985971,18.728827195489405
1772045647071459000,3.204458984375,3.5879303834527727,-0.8861069085184484,18.95360625721216
1772045647081445000,3.214445068359375,3.151502375215292,-0.7294248661398888,18.908004197466372
1772045647091431200,3.22443115234375,2.6846774751484395,-0.6300839827481657,18.43140258427262
1772045647101417000,3.2344169921875,2.201760102936625,-0.5286803216077387,17.649774068164824
1772045647111402000,3.244402099609375,1.823959055712819,-0.6359682915464043,16.71099918010235
1772045647121388300,3.25438818359375,1.9258026426404713,-0.7169005348052829,15.639605627620218
1772045647131374000,3.2643740234375,2.2417788095921276,-0.6981862627893686,14.585946469271182
1772045647141360000,3.274360107421875,2.3427508743822574,-0.7671009551919996,13.535156144356726
1772045647151346200,3.28434619140625,2.0309142914533616,-1.0200235768593846,12.453317185705899
1772045647161331200,3.294331298828125,1.5931407138258218,-1.2743809075050054,11.321475886523723
1772045647171317200,3.304317138671875,0.8838358217813074,-1.609695104394108,10.268422292852401
1772045647181303600,3.314303466796875,0.16794424482285975,-2.076740661474317,9.133401194590329
1772045647191289300,3.324289306640625,-0.2366565465211868,-2.5543536436676977,7.707752305644751
1772045647201275400,3.334275390625,-0.3199713740676641,-2.9377251845002172,6.050421151459217
1772045647211261400,3.344261474609375,-0.390683325150609,-3.1220649760678407,4.350146343082189
1772045647221246500,3.35424658203125,-0.6085830756884067,-3.3185496711984275,2.3089807067275046
1772045647231232500,3.364232421875,-0.6942612713653594,-2.744018721911311,-0.6436375110000372
1772045647241218300,3.37421826171875,-0.7754185555517673,-0.5758271265774965,-3.524682192379236
1772045647251204600,3.38420458984375,-1.1962164484590292,2.921828527188301,-6.560526974847912
1772045647261190400,3.3941904296875,-2.1588106035262347,7.137644725757837,-11.003521697497368
1772045647271175400,3.404175537109375,-2.2583704634308814,10.947985103714466,-18.046037823796272
1772045647281161200,3.4141611328125,-1.702869501045346,12.291938875269889,-25.282736798024175
1772045647291147500,3.4241474609375,-1.9714637390971184,9.666358901256322,-29.87374473810196
1772045647301133300,3.43413330078125,-3.5427766519963737,7.450472657811641,-32.29913181011677
1772045647311119400,3.444119384765625,-6.224069745403527,6.561247690337896,-31.60575323987007
1772045647321104600,3.454104736328125,-8.706714243644475,5.586541072672605,-27.75744348900318
1772045647331090400,3.46409033203125,-9.133021255362033,7.029807451373339,-22.591284714174268
1772045647341076500,3.474076416015625,-7.400693604642153,9.345740461456774,-17.314875758600234
1772045647351062500,3.4840625,-5.291636919844151,10.272394703614712,-13.56040281381607
1772045647361048600,3.494048583984375,-2.8321581931352613,10.568169794058798,-12.440073088729381
1772045647371034400,3.504034423828125,-0.901387114432454,10.423922651165723,-12.995710244715212
1772045647381019400,3.514019287109375,-0.31566162110976875,9.654650343284011,-13.640482312703131
1772045647391005400,3.52400537109375,-0.1738549301713705,8.74762083905041,-13.537459160602092
1772045647400991500,3.533991455078125,-0.0071557169735431666,7.831770314979552,-12.065352471864223
1772045647410977300,3.543977294921875,0.19081592877916992,6.625707010766863,-9.353049907687305
1772045647420963600,3.553963623046875,0.5486357527911663,5.293599159827828,-6.217461725440621
1772045647430948600,3.563948486328125,0.8877419623743742,3.9650747203335164,-3.261667800286412
1772045647440934400,3.573934326171875,0.9738070384770631,2.5813255294844506,-0.7966144883155822
1772045647450920400,3.58392041015625,0.7988883515316992,0.9917395855307578,1.1771148576259611
1772045647460906500,3.593906494140625,0.46375331060178576,-0.7363143333926796,2.6935768209189175
1772045647470892500,3.603892578125,0.1986994485706091,-2.2985019828110933,3.785212366440892
1772045647480878300,3.61387841796875,0.08949388150759041,-3.622160569834709,4.522724092924594
1772045647490863400,3.62386328125,0.2095137611169368,-4.638384608280658,5.069335061889887
1772045647500849400,3.633849365234375,0.39449327536020423,-5.317603720271587,5.3618385833173985
1772045647510835500,3.64383544921875,0.4507399536412209,-5.6484916251510375,5.518465899834037
1772045647520821200,3.6538212890625,0.3796522280484438,-5.744932476252317,5.871726380041241
1772045647530807600,3.6638076171875,0.3330833690971136,-5.660682998204231,6.377634751740097
1772045647540793300,3.67379345703125,0.4047346468567848,-5.397581512349844,7.015765482017398
1772045647550778400,3.6837783203125,0.6683376524925232,-5.079096577447652,7.853434449777007
1772045647560764400,3.693764404296875,0.8916215072214603,-4.893895492875576,8.78128579276502
1772045647570750500,3.70375048828125,1.000887353104353,-4.823367666187882,9.754163441437482
1772045647580736500,3.713736572265625,1.141639055097103,-4.741908695641159,10.719207912266254
1772045647590722300,3.723722412109375,1.3866659550786018,-4.677029688495398,11.677106018471717
1772045647600707600,3.73370751953125,1.8532535392582414,-4.6113493018388745,12.64065762039423
1772045647610693400,3.743693359375,2.3733915118396283,-4.431966548156738,13.457517608880996
1772045647620679400,3.753679443359375,2.562973003453016,-4.1636110872969025,14.174693234300612
1772045647630665500,3.76366552734375,2.3056816651821137,-3.8816903346821663,14.805166727823018
1772045647640651500,3.773651611328125,1.726475417560339,-3.6462785275250673,15.37048590438962
1772045647650637300,3.78363720703125,1.0939946758687495,-3.53750543359518,15.703636493504046
1772045647660622300,3.793622314453125,0.41988658674862234,-3.6102974058225747,15.55006388838291
1772045647670608600,3.803608642578125,-0.24506898555755613,-3.768840785093605,14.706533335113525
1772045647680594400,3.813594482421875,-0.761586429554224,-4.062441746369004,13.604978453123568
1772045647690580500,3.82358056640625,-1.0314660312414168,-4.392066499444842,12.40795828706622
1772045647700566500,3.83356640625,-1.1422235769867897,-4.68282522303164,11.009228969228268
1772045647710552600,3.843552490234375,-1.2361597517907619,-4.874026132540404,9.815995335972309
1772045647720537300,3.853537353515625,-1.205023439770937,-4.9721372549414635,9.082248514980078
1772045647730523400,3.8635234375,-1.0335505824305116,-5.037544085353613,8.614652630540728
1772045647740509400,3.873509521484375,-0.6974304759860038,-4.919122873112559,8.268905594703554
1772045647750495500,3.88349560546875,-0.31455921282581983,-4.736157292507588,7.819678310647606
1772045647760481300,3.893481201171875,-0.10983407422490417,-4.552865548688173,7.033094802480935
1772045647770467600,3.903467529296875,0.2689138984601945,-4.4809097350239755,5.718222163981199
1772045647780452600,3.91345263671875,1.0139830545861273,-3.9562268124893305,4.161569644597172
1772045647790438400,3.9234384765625,1.6990718623280525,-2.5968460469603536,2.489821842524409
1772045647800424400,3.933424560546875,2.0215572650432585,0.43599750786572694,0.30719138747155667
1772045647810410500,3.943410400390625,2.4659341864585875,5.399001316019892,-2.4624966132253405
1772045647820396500,3.953396484375,2.3101146791934966,10.704625260162352,-5.828605031195282
1772045647830382300,3.96338232421875,0.29314832213707265,13.568600148797035,-9.9260830196321
1772045647840367400,3.973367431640625,-2.788225527906418,11.380499737900495,-14.621138194161652
1772045647850353400,3.983353515625,-5.193469975602627,8.290507185658813,-22.95350357686281
1772045647860339500,3.99333935546875,-6.620891134917736,5.445528673917055,-32.93046688890457
1772045647870325200,4.0033251953125,-6.171773740977049,2.044682412303984,-40.0322020968914
1772045647880311600,4.0133115234375,-4.488337839198112,-0.4711120758667588,-41.51290827167034
1772045647890296600,4.023296630859375,-2.7211715148091313,0.6416448758780956,-37.16587509217262
1772045647900282400,4.033282470703125,-1.2988298507153988,5.320202504593134,-29.656029038894175
1772045647910268400,4.043268310546875,-0.36302316480875013,10.247799191540478,-21.575324879622457
1772045647920254500,4.05325439453125,0.23702362626791,13.040898462963103,-15.011944853430986
1772045647930240500,4.063240478515625,0.9683704003810882,13.120414482748508,-11.182796899151802
1772045647940226300,4.073226318359375,1.4229764548659323,12.114933956634998,-10.528352162933349
1772045647950211600,4.083211669921875,1.3825485828876494,11.325920590972899,-11.449116762530803
1772045647960197400,4.093197265625,0.9217220464527607,10.361733029234408,-11.254485001790522
1772045647970183400,4.103183349609375,0.3015127573132515,9.128267923355102,-8.982918956699967
1772045647980169500,4.11316943359375,0.140697925978899,8.33665109719634,-5.6117737136065955
1772045647990155500,4.123155517578125,0.2578384507596493,7.896195733138918,-1.6330957075953483
1772045648000141300,4.133141357421875,0.14943535005277953,7.064081476897001,2.454966802242398
1772045648010126300,4.143126220703125,-0.05052665209982078,5.649357302069664,5.775465561681986
1772045648020112600,4.153112548828125,-0.13769231442213056,3.909140067143738,8.077671075186133
1772045648030098400,4.163098388671875,-0.25506723248064517,2.2525378117546437,9.361268869978188
1772045648040084500,4.17308447265625,-0.5739058031260967,0.6596285685971379,9.81362217710018
1772045648050070500,4.183070556640625,-0.9432114092051982,-0.7746683217063546,9.717695705261827
1772045648060056300,4.193056396484375,-0.9740046068757772,-1.7833067273288965,9.50759574175477
1772045648070041300,4.203041259765625,-0.8383399988889694,-2.510992056325078,9.615064182826876
1772045648080027400,4.21302734375,-0.6792495071291923,-3.0038351947456596,10.097510430395603
1772045648090013400,4.223013427734375,-0.36421675850749013,-3.3583883451119063,10.670730004823207
1772045648099999500,4.23299951171875,-0.04178452901793644,-3.6469530657857656,11.231090097677708
1772045648109985300,4.2429853515625,0.2638566881358623,-3.992632881605625,11.625657570785283
1772045648119971600,4.2529716796875,0.6082599081486463,-4.353899265874922,11.736189491081237
1772045648129956600,4.26295654296875,1.0607599302649497,-4.6588288458943365,11.70772444409728
1772045648139942400,4.2729423828125,1.515623174381256,-4.850571607194841,11.577054575657844
1772045648149928400,4.282928466796875,1.9499182622432707,-5.042189865332841,11.369445259922742
1772045648159914500,4.29291455078125,2.2789807052612305,-5.2023330810159445,11.315338406682013
1772045648169900500,4.302900634765625,2.4127555539786814,-5.333892591771483,11.31452475221157
1772045648179886800,4.312886962890625,2.4019079967498778,-5.444942982983589,11.27431432237625
1772045648189871900,4.322871826171875,2.3228373826444146,-5.490838472718,11.202298887479305
1772045648199858000,4.33285791015625,2.2333833216905594,-5.555323512110114,11.07438679331541
1772045648209844000,4.342843994140625,2.159803706216812,-5.543289375445246,10.95940666143894
1772045648219829800,4.352829833984375,2.0579075123190878,-5.479316961750388,10.867842476463316
1772045648229816000,4.362816162109375,1.8821113849520683,-5.328664043468237,10.838813950377702
1772045648239801900,4.3728017578125,1.8010849606037138,-5.095694661027193,10.999642810237408
1772045648249787000,4.382786865234375,1.7106138315618038,-4.83805027153492,11.136214011675118
1772045648259772700,4.392772705078125,1.5506430498361587,-4.716031327062845,11.243736813282966
1772045648269759000,4.402759033203125,1.5189257230579851,-4.66948146507293,11.27187335896492
1772045648279744800,4.412744873046875,1.7405623951017855,-4.621422952085733,10.970849261951447
1772045648289730800,4.422730712890625,1.98388132212162,-4.584904654766619,10.599102692461013
1772045648299716900,4.432716796875,2.0786089395642278,-4.6668329963907595,9.94754900150895
1772045648309702000,4.442701904296875,2.0387527299940587,-4.737884846952557,8.8105487121284
1772045648319688000,4.45268798828125,1.9485083954453468,-4.941180975663662,7.276230189627409
1772045648329673700,4.462673828125,2.0681050812065602,-4.749624092324078,5.063425545585155
1772045648339660000,4.472659912109375,2.8662580311357972,-2.241466674903035,0.870415053063631
1772045648349645800,4.482645751953125,4.013794912099838,3.9480855916097757,-5.957441254466771
1772045648359632000,4.4926318359375,4.70401238796711,12.668819885039328,-14.735119962650536
1772045648369617000,4.502616943359375,3.0998423306047913,18.290757265263796,-22.163735008919236
1772045648379603000,4.51260302734375,0.31961298908405006,16.522846259987354,-26.847291468834875
1772045648389588700,4.522588623046875,-3.0630759037435054,14.67358851236701,-32.76994081138372
1772045648399575000,4.532574951171875,-7.838926031953096,12.734156572824716,-39.055807380008694
1772045648409560800,4.542560791015625,-12.772348064053057,5.916662669354677,-42.249031758666035
1772045648419545900,4.5525458984375,-14.362534019726514,2.2592466617435214,-41.552842807173725
1772045648429532000,4.562531982421875,-12.784379862630367,5.6476002292692655,-34.55829722331762
1772045648439518000,4.57251806640625,-9.451913017499447,9.685607207083702,-22.972444424176214
1772045648449504000,4.58250390625,-5.428109921604395,12.108299633187055,-12.550769844198227
1772045648459489800,4.59248974609375,-1.3483493761658667,13.293096277487278,-6.885690072339773
1772045648469476000,4.60247607421875,2.386916179323196,12.656699239134788,-5.277403227308392
1772045648479460900,4.6124609375,4.764670562547445,11.076585764664411,-4.7509816444128745
1772045648489447000,4.622447021484375,5.69899139381051,9.231078309488296,-3.5574475669056174
1772045648499432700,4.6324326171875,5.431022009658813,7.19151777024269,-1.2872563172996043
1772045648509419000,4.6424189453125,4.559811422303318,4.974508075726032,1.4431331077098846
1772045648519404800,4.65240478515625,3.5556197669565677,2.9266546321704983,3.603347732815146
1772045648529390800,4.662390869140625,2.4802614024966956,1.3570613826707005,5.148078343737125
1772045648539375900,4.6723759765625,1.4008137228965758,0.026729016971588134,6.272188171884417
1772045648549362000,4.68236181640625,0.30794425166547296,-1.414200735475123,7.022375840067863
1772045648559348000,4.692347900390625,-0.49442953082919117,-2.73908798751086,7.32760907920897
1772045648569333800,4.702333740234375,-0.7430068167686462,-3.5880633621826767,7.358872817000746
1772045648579320000,4.712320068359375,-0.6308230376124382,-4.141617282153666,7.5787290353685615
1772045648589305900,4.722305908203125,-0.4601555053055286,-4.669088958624005,7.85398857652843
1772045648599291000,4.732290771484375,-0.1411818735709414,-5.174783395311236,8.029163941648601
1772045648609276700,4.742276611328125,0.19328505883906036,-5.448672232639789,8.07767633588314
1772045648619263000,4.752262939453125,0.4018546709736809,-5.50176786301136,8.154341642412543
1772045648629248800,4.762248779296875,0.6107973176717758,-5.311489621305466,8.367502162533999
1772045648639234800,4.77223486328125,1.142177984279394,-4.835513738794624,9.12157690128386
1772045648649220900,4.782220947265625,1.7390876463741063,-4.220553163963556,10.2303418607831
1772045648659206000,4.792205810546875,2.140387058085203,-3.752602766998112,11.310115119075775
1772045648669192000,4.80219189453125,2.546999773773551,-3.5138995170801874,12.182090845584868
1772045648679177700,4.812177734375,2.920476528057456,-3.4683319441258904,12.627236997807024
1772045648689164000,4.8221640625,3.228541191232204,-3.5163542167559263,12.527473139762877
1772045648699149800,4.83214990234375,3.4105993016034364,-3.7082445698335764,12.011676995778084
1772045648709134800,4.842134765625,3.5338498336970803,-3.923774741695821,11.422056906169653
1772045648719121000,4.852120849609375,3.5143887619018552,-3.965684961186349,11.020146669083832
1772045648729107000,4.86210693359375,3.3346406820386645,-3.775736682087183,11.049203252220153
1772045648739092700,4.8720927734375,3.091519323417544,-3.629176586076617,11.402294221079348
1772045648749079000,4.8820791015625,2.7385551958084107,-3.571260988202691,11.791546052122115
1772045648759064800,4.89206494140625,2.305276006990671,-3.518459080080688,11.944832241517304
1772045648769049900,4.9020498046875,1.8621815266013144,-3.5217288955315946,11.718179202616215
1772045648779036000,4.912035888671875,1.5895044031500816,-3.6622386054620146,11.130405033135414
1772045648789022000,4.92202197265625,1.4176444461882114,-3.9146503549978133,10.32025535594225
1772045648799008000,4.932008056640625,1.249154842442274,-4.060457294553518,9.230850345951318
1772045648808993800,4.941993896484375,1.03142277662158,-4.162530014061928,8.372443126067518
1772045648818980000,4.95197998046875,0.5890799548497423,-4.066979097537696,7.691614825314283
1772045648828964900,4.96196484375,0.16849778705239296,-3.6755522605434057,7.247813073438405
1772045648838951000,4.971950927734375,0.10658643407318741,-2.6156460244983433,6.5012827587187285
1772045648848936700,4.981936767578125,0.9532488190948962,0.9444114326447248,3.156658442804217
1772045648858923000,4.991923095703125,2.702774272853136,8.94507116434276,-3.926849034574628
1772045648868908800,5.00190869140625,3.744643624687195,18.269320509481428,-11.789963166844844
1772045648878893800,5.011893798828125,2.049367647510767,23.94050385891199,-18.232399768841265
1772045648888879900,5.0218798828125,-2.195625691834837,21.9142727568388,-20.88898395292759
1772045648898866000,5.031865966796875,-6.419912635499238,17.17685026670098,-24.304060107684133
1772045648908852000,5.04185205078125,-9.331682710009813,13.628318412178754,-31.14424281282425
1772045648918837800,5.051837646484375,-11.01444407352805,5.145907429438829,-37.913060071408744
1772045648928824000,5.061823974609375,-10.642419271618127,-1.400496327510476,-42.33598991115093
1772045648938808800,5.071808837890625,-8.25139974862933,-0.46634091594219207,-39.990752480649945
1772045648948795000,5.081794921875,-6.40267859210372,3.563774431839585,-29.853253738737106
1772045648958780700,5.09178076171875,-3.730418699979782,7.647569347360729,-18.460678947639465
1772045648968767000,5.10176708984375,-0.24355975003838537,11.548296098685263,-11.129977163112162
1772045648978752800,5.111752685546875,2.573735805007815,12.816940069973468,-7.490135390636325
1772045648988737800,5.12173779296875,3.3417326861262318,11.607992150235175,-6.117961486768722
1772045648998724000,5.13172412109375,2.5898767924696204,9.47508697233796,-5.702634134227037
1772045649008710000,5.1417099609375,1.766796906554699,7.165099718916416,-4.781498947751522
1772045649018696000,5.151696044921875,1.4731132354319094,4.866338500647246,-3.2031033831149336
1772045649028682000,5.161681884765625,2.0160855556339023,2.747223070910573,-1.2206804431080818
1772045649038668000,5.17166796875,3.0340853715807197,1.1616367179870606,1.2192600549161434
1772045649048652800,5.18165283203125,4.088536557090282,0.1132920326590538,3.963221493682265
1772045649058638800,5.191638916015625,4.866610595586896,-0.7674690578520298,6.616822862565517
1772045649068625000,5.201625,5.278263059008121,-1.5856971198216079,8.749238795641064
1772045649078611000,5.21161083984375,5.0995384769737715,-2.2699872514665125,10.044434673768281
1772045649088596700,5.2215966796875,4.514391733387113,-2.7731562613293526,10.491279446601867
1772045649098581800,5.231581787109375,3.9377597201675174,-3.0650352211177347,10.648632739305496
1772045649108568000,5.241568115234375,3.6596120563507077,-3.0171663854837414,11.065705474209786
1772045649118553900,5.251553955078125,3.660520403367281,-2.756639134031534,11.749210300695896
1772045649128540000,5.261539794921875,3.6638691292732952,-2.4707474319592118,12.56370648266077
1772045649138526000,5.27152587890625,3.5727199548393487,-2.285212293127179,13.325170162618159
1772045649148512000,5.281511962890625,3.3898353305160995,-2.297599773274362,13.710760548543929
1772045649158496800,5.291496826171875,3.211519329282641,-2.464533087489009,13.682725709670782
1772045649168482800,5.30148291015625,3.102640436890721,-2.7706796420827504,13.307131817102432
1772045649178466800,5.311466796875,2.9834733747184274,-3.1271830497339366,12.722635646378993
1772045649188452900,5.321452880859375,2.9483798495054243,-3.4254826902195807,12.101366034531592
1772045649198439000,5.33143896484375,2.8808769235968588,-3.6258316595628854,11.587176156699657
1772045649208424700,5.3414248046875,2.641385445910692,-3.8053821710273623,11.13429093465805
1772045649218411000,5.351410888671875,2.3815257184565066,-4.067277203701436,10.753882919806241
1772045649228396000,5.36139599609375,2.155063233691454,-4.3464106636852025,10.405686737251282
1772045649238381800,5.3713818359375,2.0303098958194257,-4.605213867823779,10.166285275936126
1772045649248367900,5.381367919921875,1.9726573327958583,-4.803545944386721,9.975006332755088
1772045649258354000,5.39135400390625,1.9967899035334586,-4.989087220698595,9.742445531114935
1772045649268340000,5.401340087890625,1.9986358236610888,-5.171722254174948,9.478934295415877
1772045649278324700,5.41132470703125,1.9826772070288656,-5.223679235905409,9.251310365656018
1772045649288310800,5.421310791015625,1.7910206627070904,-5.223976757547259,9.209278565612435
1772045649298296800,5.431296875,1.5323136124193668,-5.136324777579307,9.205794230628014
1772045649308283000,5.441282958984375,1.186571252757311,-4.889649818129837,9.079541594108939
1772045649318268700,5.4512685546875,0.7680476614575833,-4.757061841109395,8.97261675839424
1772045649328254000,5.46125390625,0.5818238097090274,-4.788678337861597,8.702088337409496
1772045649338240000,5.471239990234375,0.8363667260546237,-4.801022855649888,7.67662534597516
1772045649348225800,5.481225830078125,1.354565181940794,-4.5042967480912806,5.448637161326408
1772045649358212000,5.491212158203125,1.8346084600210188,-2.940272823156416,1.4145786288768052
1772045649368198000,5.501197998046875,2.3602035289645196,1.171311432044208,-4.012932157790661
1772045649378184000,5.511183837890625,2.9583634833812713,9.008421062225104,-10.404975958633422
1772045649388168700,5.521168701171875,2.1101799897395073,18.257620719337464,-17.647011617714167
1772045649398155000,5.531155029296875,0.2926677720785141,24.27655484564304,-23.03511686118841
1772045649408140800,5.541140869140625,-2.804221553939581,20.95093859705925,-24.88380060831308
1772045649418126800,5.551126953125,-5.8742532681703565,15.243167684465647,-30.167195769512652
1772045649428113000,5.56111279296875,-7.339457922434806,9.559415360841154,-38.95390884802341
1772045649438098000,5.571097900390625,-8.704847280728817,1.4118366366922854,-43.983771146702765
1772045649448084000,5.581083984375,-9.090493780755995,-0.9420248297691345,-39.92017496960163
1772045649458069800,5.59106982421875,-7.576030297803879,3.658130877882242,-29.796391449308395
1772045649468056000,5.60105615234375,-4.999011233341694,7.662230909919738,-18.539196604037283
1772045649478041900,5.611041748046875,-2.0184990465164185,8.847116986069082,-10.278887572765349
1772045649488027000,5.62102685546875,0.9230337135732173,8.420794192260503,-6.806119692018628
1772045649498012700,5.6310126953125,2.322270396411419,7.299227034333348,-6.5294304103165866
1772045649507999000,5.6409990234375,2.088407864522934,6.228272457790374,-6.744668321233988
1772045649517984800,5.65098486328125,1.5723089381992816,5.2505321715176105,-5.952389231774211
1772045649527970800,5.660970703125,1.4999825376570224,4.233909781403839,-4.01175902235806
1772045649537955800,5.670955810546875,1.6845792265951633,3.2559245804592964,-1.5115952340394259
1772045649547942000,5.68094189453125,2.089920607173443,2.1300340063750745,1.1492407622724772
1772045649557928000,5.690927978515625,2.67365339230895,0.8864654396325349,3.814841781029105
1772045649567913700,5.700913818359375,3.20083485366106,-0.14226386012136935,6.185573718270659
1772045649577900000,5.710900146484375,3.6750551246762275,-0.8096189313173293,8.179874727597833
1772045649587885800,5.7208857421875,3.9769922448813912,-1.1683677798077463,10.001368269979952
1772045649597871900,5.730871826171875,4.138628913992643,-1.2452554969161749,11.953442248952388
1772045649607857000,5.74085693359375,4.020295964556932,-0.9928044382832943,13.740858749687671
1772045649617843000,5.750843017578125,3.3434289686501026,-0.6528862547300756,14.924403348100185
1772045649627828700,5.760828857421875,2.241261507719755,-0.5791445805624127,15.51326706638336
1772045649637815000,5.77081494140625,0.9958861838161944,-0.833628606327623,15.594570554107428
1772045649647800800,5.78080078125,-0.07486899769715964,-1.374454562150687,15.105406396460532
1772045649657785900,5.790785888671875,-0.7039490640997886,-2.031575385710597,14.404157823491095
1772045649667772000,5.80077197265625,-0.8812158485412597,-2.569793789383769,13.471373115754126
1772045649677758000,5.810758056640625,-0.6588695669233798,-3.0158611481040714,12.319381008946895
1772045649687744000,5.820743896484375,-0.1356779789250344,-3.48627442805171,11.34263090275526
1772045649697729800,5.830729736328125,0.5483108316857367,-3.7521377798348663,10.899310796916485
1772045649707714800,5.84071484375,1.155651286901906,-3.6015269471287725,10.993507668483257
1772045649717700900,5.850700927734375,1.5051742610812187,-3.13255743624866,11.565354785513877
1772045649727687000,5.86068701171875,1.5120996764302252,-2.567417123380303,12.210842308294772
1772045649737672700,5.870672607421875,1.3425485809326172,-2.124539792872965,12.815661136078834
1772045649747659000,5.880658935546875,1.0329166684411466,-1.8235631882630288,13.150949906265735
1772045649757644800,5.890644775390625,0.7278396427750587,-1.7011254338569939,13.004751629304884
1772045649767629800,5.9006298828125,0.5098913038551807,-1.7227838695660231,12.489713025689124
1772045649777616000,5.910615966796875,0.40953700563721357,-1.81463242444098,11.825212174880503
1772045649787602000,5.920601806640625,0.5184126100935041,-1.9179785248860717,10.975853938370943
1772045649797588000,5.930587890625,0.7081833406686783,-1.9599810988351702,9.940254168325662
1772045649807573800,5.94057373046875,0.8439047934092581,-1.834285511676967,8.949539249667525
1772045649817558800,5.950558837890625,0.7968857064723968,-1.6340794579356908,7.792344898042082
1772045649827544800,5.960544921875,0.640648996708542,-1.2103997259818016,6.631787791985273
1772045649837531000,5.97053076171875,0.7354547939538956,-0.1222160744793713,5.157665671771764
1772045649847516700,5.9805166015625,1.4591184662185608,2.0072116365656254,2.6960645460814234
1772045649857503000,5.9905029296875,2.310764667534828,4.904942372068763,-0.5157762702405453
1772045649867488800,6.00048876953125,2.2438602920413016,7.837485770016908,-5.820047046208381
1772045649877473800,6.010473876953125,1.4755939463317393,9.989359852278232,-12.537691751438379
1772045649887460000,6.020460205078125,-0.6858650528114288,8.541330204698443,-18.45277854977846
1772045649897446000,6.03044580078125,-3.6375720739781854,4.404952869024872,-24.232687646865845
1772045649907432000,6.040431884765625,-5.601592511332035,0.9785393276959657,-30.433099453306195
1772045649917417700,6.050417724609375,-5.682268222546577,-2.2742197744697332,-34.71828554069996
1772045649927403000,6.060403076171875,-4.689080191773176,-5.28011073270142,-35.005365283513065
1772045649937388800,6.070388916015625,-3.4841900229930878,-5.853188852831721,-31.15162181715965
1772045649947374800,6.080374755859375,-2.1901555898606775,-3.980886914232373,-24.920213983952998
1772045649957361000,6.09036083984375,-0.875111101925373,-1.9432870075352489,-18.613645988082883
1772045649967347000,6.100346923828125,0.11961012976467608,-0.134361562564224,-13.875619102311134
1772045649977332000,6.11033203125,0.8692774273358285,1.536568201123923,-11.06804589985609
1772045649987317800,6.12031787109375,0.9750760354995727,2.660765269163251,-9.063483024233578
1772045649997304000,6.130303955078125,0.7876889851905405,3.122734545892477,-6.9542807934850455
1772045650007289900,6.140289794921875,0.5360527500718831,3.053403820034861,-5.121004458850622
1772045650017276000,6.15027587890625,0.4636094451516866,2.4710706725642084,-3.756241123500466
1772045650027262000,6.160261962890625,0.5599868756279349,1.5785548468515276,-2.7353403254151343
1772045650037247000,6.1702470703125,0.7340393741980195,0.9579377806287258,-2.0325199730843306
1772045650047232800,6.180232666015625,1.032359472949803,0.7781200695954262,-1.4064631269603967
1772045650057218800,6.19021875,1.232660511498153,0.49877223620861766,-0.45983168017864223
1772045650067204900,6.200204833984375,1.351053374427557,0.21241653335373847,0.5652320828050375
1772045650077191000,6.21019091796875,1.4037515299141405,0.2500240141490474,1.2643185093045235
1772045650087176000,6.220176025390625,1.4364496844232082,0.37377343567553906,1.8080197283029555
1772045650097161700,6.23016162109375,1.437002057608962,0.44521410289183255,2.376890459871292
1772045650107148000,6.24014794921875,1.5757354055166244,0.4924360189244151,2.955166733166575
1772045650117133800,6.2501337890625,2.00501237295568,0.5404328648522496,3.343811830487847
1772045650127120000,6.260119873046875,2.711966464090347,0.4743309648480266,3.5513586023807524
1772045650137106000,6.27010595703125,3.303718889552355,0.40291177881117907,3.322409561496973
1772045650147091000,6.280091064453125,3.607840368059277,0.31461876099333164,2.831427540773153
1772045650157076700,6.29007666015625,3.5479262898445127,0.2597141815036535,2.475184829884767
1772045650167063000,6.30006298828125,3.229261322200298,0.32056345820929855,2.2597055114269256
1772045650177049300,6.31004931640625,3.0998271330356597,0.39024708915781225,2.376609304842353
1772045650187035400,6.320035400390625,3.3413194291502237,0.7024317183393984,2.4996815577596423
1772045650197020400,6.3300205078125,3.3519232407510278,1.1214378324590624,2.447345805844664
1772045650207006200,6.340006103515625,2.8814573538333175,1.3318624978758393,2.399783844202757
1772045650216992300,6.3499921875,2.3316233311682937,1.3288786597594617,2.168696622246504
1772045650226978300,6.359978271484375,2.050209943553805,1.2714536218814552,1.7309136922687292
1772045650236964400,6.36996435546875,2.0349644436269996,1.1439334496445954,1.162661677120626
1772045650246950400,6.379950439453125,2.0805144809246063,1.0406205938819795,0.41193478749394413
1772045650256935400,6.389935302734375,1.9358429751396178,1.0051160036500544,-0.09365209716558456
1772045650266921200,6.399921142578125,1.6807687283962964,0.9846839679308235,-0.19761077655106782
1772045650276907300,6.4099072265625,1.5476912142932413,1.1152662311520427,-0.17774346204251049
1772045650286893300,6.419893310546875,1.5263918211549519,1.3142132978081702,-0.18305121306180952
1772045650296879400,6.42987939453125,1.4384417350232601,1.49331986489743,-0.2237663775488734
1772045650306865200,6.439865234375,1.2306582317650316,1.6608572824850678,-0.21597660045549272
1772045650316850200,6.44985009765625,1.0164163461476563,1.9215768416389822,-0.10543547393977641
1772045650326836200,6.459836181640625,0.7861305037021636,2.0006769740998744,0.09733137020021676
1772045650336822300,6.469822265625,0.7129150453656912,1.9324581550069153,0.23373861324787137
1772045650346808300,6.479808349609375,0.9072112905412912,1.8732732678495347,0.23399507222697138
1772045650356794400,6.48979443359375,1.2489169420331716,1.7071501009739933,0.2121095497637987
1772045650366779400,6.499779296875,1.6692057163745164,1.4958393003724515,0.22150778496712445
1772045650376765200,6.50976513671875,2.0403549044936895,1.2880191183656453,0.2077086844563484
1772045650386751500,6.51975146484375,2.227583695501089,1.0147129032306372,0.02376271451190114
1772045650396737300,6.5297373046875,2.1917226930469274,0.7839081514775753,-0.08428622986190021
1772045650406723300,6.539723388671875,2.057214853879809,0.6819201876431703,-0.06846746009178459
1772045650416709000,6.549709228515625,2.0012235020667313,0.6789512548349798,0.046961657661199564
1772045650426694400,6.5596943359375,2.113493205940723,0.7120066983491182,0.17053382292464375
1772045650436680200,6.56968017578125,2.280463637295365,0.7385999601118266,0.2890865525908768
1772045650446666200,6.579666259765625,2.393871989810467,0.6971822003133594,0.38332784782126544
1772045650456652300,6.58965234375,2.3809587322235104,0.5774126422032714,0.4110279017820954
1772045650466638300,6.599638427734375,2.374953354328871,0.4339829531729221,0.3921017405811697
1772045650476624100,6.6096240234375,2.3424989454478022,0.3353422539398074,0.317506518324092
1772045650486609200,6.619609130859375,2.256187858694792,0.23062764162048696,0.24940168099962173
1772045650496595500,6.629595458984375,2.108769684550166,0.19098785127997397,0.03492247949503362
1772045650506581200,6.639581298828125,1.83699330933094,0.1978941235370934,-0.24797756648063657
1772045650516567300,6.6495673828125,1.4547855515807866,0.2799649423718452,-0.35205979918055236
1772045650526553300,6.65955322265625,1.2261708572179078,0.45588893390223384,-0.24379670059941708
1772045650536539400,6.669539306640625,1.2498515925347804,0.6620094723843037,-0.01684372890368104
1772045650546524200,6.679524169921875,1.5059703798949717,0.8221529803283512,0.2646302297916263
1772045650556510200,6.68951025390625,1.926295394593477,0.9739524382971226,0.5233444404724985
1772045650566496300,6.699496337890625,2.3421108229130505,1.123802077372372,0.7356037009052931
1772045650576482300,6.709482421875,2.814074254912138,1.177203851083666,0.8296122102931142
1772045650586468000,6.719468017578125,3.3956729506284,1.132274722163379,0.9107930214855819
1772045650596454400,6.729454345703125,4.052963723927736,1.127944584004581,0.9911159006744623
1772045650606440200,6.739440185546875,4.707128474161029,1.2302297772198916,1.020393798411265
1772045650616425200,6.74942529296875,5.237344773164391,1.4475947632938622,1.1636559488549827
1772045650626411300,6.759411376953125,5.613810187870263,1.7055284911215305,1.4483463123135267
1772045650636397300,6.769397216796875,5.869792197108269,1.9751608400493859,1.7477894237458704
1772045650646383400,6.77938330078125,6.01240618584156,2.1534578443214296,2.2478600292019544
1772045650656369200,6.789369140625,6.386244759175181,2.4176328046262263,2.9516569714799523
1772045650666355500,6.79935546875,7.081461066243052,2.8830127665817735,3.831943722477555
1772045650676340200,6.80934033203125,7.855526453620195,3.4757492346450682,4.73785182146579
1772045650686326300,6.819326171875,8.495995855978132,4.129827183377743,5.752563409522176
1772045650696312000,6.82931201171875,8.944704084596037,4.899181908845901,6.770951932525635
1772045650706298400,6.83929833984375,9.097454851940274,5.723420317146182,7.748576483464241
1772045650716284200,6.8492841796875,9.07372150965333,6.505840860414505,8.585220784351229
1772045650726270200,6.859270263671875,8.889840275508165,7.1182941285997625,9.275145414751767
1772045650736255500,6.86925537109375,8.604822141399978,7.734524577236175,9.902224005138873
1772045650746241300,6.8792412109375,8.17264360730052,8.481341307681799,10.489476781094073
1772045650756227300,6.889227294921875,7.381548174667358,9.28134894556701,10.875299806731938
1772045650766213000,6.899213134765625,6.331769072622061,9.771948104453086,10.798003801083564
1772045650776199400,6.909199462890625,5.380587122929096,9.929853185820578,10.05732571952343
1772045650786185200,6.919185302734375,4.551836790162325,9.900448227638005,8.642871593809128
1772045650796170200,6.929170166015625,3.837503694692254,9.55974035501182,6.4858297535210845
1772045650806156300,6.93915625,3.143332512763142,8.823712729606031,3.5417508160799738
1772045650816142300,6.949142333984375,2.2521685400508344,7.682020483016967,0.37588673803508277
1772045650826128100,6.959128173828125,1.0076203146211802,6.701675567203759,-2.3082202437490222
1772045650836114400,6.969114501953125,-0.3511081244789064,6.272839913791418,-4.171545095166564
1772045650846100200,6.979100341796875,-1.1905763967454432,6.460124234378338,-5.911753270003199
1772045650856086300,6.989086181640625,-0.9396399804592132,7.841331339529156,-7.858850045084953
1772045650866071300,6.9990712890625,-0.23198797018826006,10.259953739714621,-10.010934555226564
1772045650876057300,7.009057373046875,0.06464757301006466,12.59916007335782,-12.635088295829295
1772045650886043400,7.01904345703125,-0.011022292741201818,13.746902706027031,-17.151873646354673
1772045650896029200,7.029029296875,-0.3147047953089699,13.456533274018764,-23.666921895575523
1772045650906015500,7.039015380859375,-0.10615151325464248,11.149351725667714,-31.053302897226807
1772045650916001300,7.049001220703125,1.1348843201398848,6.841620628988743,-38.50081319810152
1772045650925986300,7.058986328125,3.2165584924936295,0.8351713057249784,-44.22786748783588
1772045650935972000,7.06897216796875,6.183357795786857,-5.276039537739753,-46.788657886552805
1772045650945958400,7.07895849609375,7.291944476109743,-6.710168085739016,-45.673390121030806
1772045650955944200,7.088944091796875,5.331574962478876,-3.000836012929678,-37.86626324892044
1772045650965930200,7.09893017578125,3.277271027609706,2.5317314774930475,-26.208808856379985
1772045650975916300,7.108916259765625,2.699098214688897,6.283180106019973,-15.890777021706104
1772045650985901300,7.1189013671875,3.345162076053023,6.671917557799816,-9.530614213770628
1772045650995887400,7.128887451171875,3.043339522138238,5.03777263341248,-6.733758220162987
1772045651005873200,7.138873046875,1.4739258669890463,3.1108363105669614,-6.4606655016481875
1772045651015859500,7.148859375,-0.2690840673953295,2.009191412205994,-6.848546628859639
1772045651025845200,7.15884521484375,-1.2619570408701897,1.1256602724596858,-6.517160711330175
1772045651035831300,7.168831298828125,-1.197680018205568,-0.31843115888834,-5.232508439049124
1772045651045817300,7.1788173828125,-0.07038871047794819,-1.6665364971652625,-3.6392987516403195
1772045651055802400,7.18880224609375,1.0704232461452483,-2.452154667431116,-1.8791881909817456
1772045651065788200,7.1987880859375,1.3631407025843858,-3.1369407658994195,0.17796587262153624
1772045651075774200,7.208774169921875,0.9734224230736493,-3.6947926753252744,2.159686217316985
1772045651085760300,7.21876025390625,0.2734650589585304,-4.03525738684535,3.8517531693190334
1772045651095746300,7.228746337890625,-0.34444340589269995,-4.461674873200058,5.472009853607416
1772045651105732000,7.238732177734375,-0.8871084137111902,-4.99980209145844,6.894442703115939
1772045651115717400,7.24871728515625,-1.0887000765919685,-5.634008341768384,8.210887705498934
1772045651125703400,7.258703369140625,-1.2343623469799756,-6.071364570766687,9.299298443755507
1772045651135689200,7.268689208984375,-1.3823178428716956,-6.621134296023845,10.704156473606824
1772045651145675300,7.27867529296875,-0.7352367672890424,-7.109947740536928,12.641501670002937
1772045651155661300,7.288661376953125,1.0848083298504352,-6.547424332168698,14.760363124978541
1772045651165647400,7.2986474609375,3.6777941942512986,-4.905135848814249,17.2179620292902
1772045651175633200,7.308633056640625,6.0663417741686105,-2.9483699126332996,20.182607953941822
1772045651185619000,7.318618896484375,7.223676995569467,-1.401491329897195,23.05434996944666
1772045651195604700,7.328604736328125,6.806528857341409,-0.5057236993143335,25.09654787145853
1772045651205591000,7.338591064453125,4.91330220413506,0.13061254876162856,25.720833616256712
1772045651215576800,7.348576904296875,2.4569226124852896,0.5210806967915966,24.94142979046106
1772045651225563000,7.35856298828125,0.39659284145534035,0.5372865661831573,23.09015310423374
1772045651235549000,7.368548828125,-0.813151781618595,0.37158082100208845,20.361228491079807
1772045651245535000,7.378534912109375,-1.3183201486051082,-0.23024843304455278,16.56754231080413
1772045651255519700,7.388519775390625,-1.3384054897785187,-1.5833488031297922,12.197746679878234
1772045651265505800,7.398505859375,-0.714739338183403,-3.164075733323395,7.828755935594439
1772045651275491800,7.408491943359375,0.3602876023650169,-4.5194276817277075,3.3573359134495258
1772045651285478000,7.418477783203125,1.7108189987450837,-5.5310003872364755,-0.334789003971219
1772045651295463700,7.428463623046875,3.350640215203166,-5.830471994110941,-2.506704003742337
1772045651305450000,7.438449951171875,4.514686916941404,-4.922320207849145,-3.503579783117771
1772045651315435000,7.44843505859375,4.454515649095177,-3.415432128587365,-3.756060506236553
1772045651325420800,7.4584208984375,3.008131430634856,-1.4749039182409642,-4.6737423373878
1772045651335406800,7.46840673828125,-0.09970540585517883,0.01160486926897429,-7.448359026658535
1772045651345393000,7.478392822265625,-4.121683039888739,0.7956244543649256,-11.548978820252417
1772045651355379000,7.48837890625,-8.451194006699323,1.756850682079792,-16.14106578773856
1772045651365364700,7.49836474609375,-12.421128734284638,2.9314059183508157,-21.523667173099515
1772045651375350000,7.50835009765625,-15.60841904671788,3.9241204863935706,-26.683922276842594
1772045651385335800,7.518335693359375,-17.6357198238492,4.1310745530903334,-29.59849805642366
1772045651395321900,7.52832177734375,-18.17019261125326,4.273222677877545,-29.687081179761886
1772045651405307600,7.5383076171875,-17.635374955934285,3.486020453290641,-25.32638889274597
1772045651415294000,7.5482939453125,-15.77686890297532,3.7847356888398527,-19.593295322847364
1772045651425279700,7.55827978515625,-12.224969033324717,4.750629177713394,-14.5980741294384
1772045651435265800,7.568265869140625,-8.261931664037704,5.631631675764918,-11.09691777407527
1772045651445251000,7.5782509765625,-4.986480253070592,6.207188168707489,-9.005358167523145
1772045651455236900,7.58823681640625,-2.629455354142189,6.174151576024293,-7.7222811817348
1772045651465223000,7.598222900390625,-1.144406766244769,5.574311121174693,-6.856062411317229
1772045651475209000,7.608208984375,-0.31022914773225785,4.860499419230222,-6.377849271273613
1772045651485195000,7.618195068359375,0.377094944781065,4.3872041541054845,-6.099214700722694
1772045651495180800,7.628180908203125,1.1169161172509192,4.145220859603584,-5.8218736771136514
1772045651505166800,7.638166748046875,2.0106337199687956,4.107333612018824,-5.213149074062705
1772045651515152000,7.64815185546875,2.9765152261435985,4.029785385175049,-4.161829756838083
1772045651525138000,7.658137939453125,3.9575621527463194,3.837516261912882,-2.8866104988127943
1772045651535123700,7.668123779296875,4.917129068946838,3.587088671931624,-1.6568465855389833
1772045651545110000,7.678110107421875,5.825349244269728,3.166059892877936,-0.7463429754540324
1772045651555095800,7.688095703125,6.621883653086424,2.6755422747954727,-0.2575491124242544
1772045651565081900,7.698081787109375,7.189099603185057,2.080735137937963,-0.030058453655242918
1772045651575067000,7.70806689453125,7.521402635559439,1.4659960969030856,0.08046469881236552
1772045651585053000,7.718052978515625,7.808824323678016,0.9060583211138844,0.1955035751387477
1772045651595039000,7.7280390625,8.051110985040664,0.659657356300205,0.2902393758878112
1772045651605024800,7.738024658203125,7.997097070780396,0.7740009438388049,0.48640112267434593
1772045651615011000,7.748010986328125,7.463634337201714,1.0247250325486064,0.7651642880409956
1772045651624996900,7.757996826171875,6.46239393287599,1.1931314880557358,0.928579803393036
1772045651634983000,7.76798291015625,5.786304935604334,1.175065816141665,1.2813264888592064
1772045651644967700,7.7779677734375,5.6954491911590095,1.1998206104308367,1.4802558006629347
1772045651654954000,7.7879541015625,5.7838809233278035,1.1943081306196748,1.5797396727219224
1772045651664939800,7.797939697265625,5.827766242283582,0.8139198433816432,1.5572313421852886
1772045651674925800,7.80792578125,5.857987193024158,0.3432619410231709,1.2919389221578836
1772045651684911900,7.817911865234375,5.852717728188634,-0.108558282135427,0.7695233600333332
1772045651694898000,7.82789794921875,5.657451761198043,-0.44059038861393923,0.26888620673567054
1772045651704883000,7.837883056640625,5.256736286854744,-0.5248541874483228,0.08927870438694953
1772045651714868700,7.84786865234375,4.689257301905751,-0.32357641282230615,0.07143361642099917
1772045651724855000,7.85785498046875,4.1927170625329016,-0.00388473247885704,0.21885215589180587
1772045651734840800,7.8678408203125,3.785273741239309,0.31844577193558216,0.3211063694469631
1772045651744827000,7.877826904296875,3.349500397518277,0.5941039570242166,0.38260106791667636
1772045651754813000,7.88781298828125,3.0088714353471993,0.7466431274443864,0.30968335041776296
1772045651764799000,7.897799072265625,2.803879608634114,0.8058417508661746,0.23088877677470443
1772045651774783700,7.90778369140625,2.7311194928497073,0.7602943439170717,0.23927286649942398
1772045651784769800,7.917769775390625,2.6778642880022523,0.619319939084351,0.31476525679193434
1772045651794755800,7.927755859375,2.7298013959884644,0.4116805204719305,0.3101451957758516
1772045651804742000,7.937741943359375,2.7575603405296802,0.22496143255233764,0.15157712045498192
1772045651814727700,7.947727783203125,2.758462842327356,-0.02659837632924318,0.1470208453901112
1772045651824714000,7.9577138671875,2.8402953223615883,-0.1920385293766856,0.16664667929299173
1772045651834699000,7.967698974609375,2.67982711250782,-0.2049880273208022,0.025188144205138086
1772045651844684800,7.977684814453125,2.244210420653224,-0.28090748391896486,-0.05153546838276088
1772045651854670800,7.9876708984375,1.8010200786739587,-0.23912936637550591,-0.03787928347401321
1772045651864657000,7.997656982421875,1.512469678786397,-0.09563742576390505,0.09662702132314444
1772045651874643000,8.007642822265625,1.3141454932689667,0.022463468481600284,0.13811404696553944
1772045651884628700,8.017628662109376,1.1056021115541457,0.04725333408415317,0.03729636901952326
1772045651894615000,8.027614990234374,0.9339175111591815,0.007692308068275451,-0.08765139544606208
1772045651904599800,8.037599853515625,0.7315069331109524,0.0007949497699737549,-0.23930121581107378
1772045651914585900,8.0475859375,0.5221534040570259,-0.01485620834827423,-0.36120179460048674
1772045651924572000,8.057572021484376,0.3538064236521721,-0.12152239312678575,-0.5211448115363717
1772045651934558000,8.067557861328124,0.2806996863871813,-0.17424568305462598,-0.6733768157035112
1772045651944543700,8.077543701171875,0.24878128407895564,-0.13463584946095944,-0.6060906743507832
1772045651954529800,8.08752978515625,0.3248872031599283,-0.045484863106906415,-0.3313336028203368
1772045651964515000,8.09751513671875,0.4768880289196968,0.11447510496377944,-0.04519011794403195
1772045651974500900,8.1075009765625,0.5096294380486012,0.2928872600480914,0.21291947790719568
1772045651984487000,8.11748681640625,0.5196908133357763,0.4449801480054855,0.40362500511445104
1772045651994473000,8.127472900390625,0.5714706849336624,0.6227592658832669,0.48323301403224467
1772045652004459000,8.137458984375,0.7546890712559223,0.7243178983896971,0.529002393168956
1772045652014444800,8.14744482421875,1.084532435518503,0.7485968918606638,0.6248039234533905
1772045652024429800,8.157429931640625,1.5668869131505487,0.8013301186606288,0.7259691727280616
1772045652034415900,8.167415771484375,2.099628931239247,0.8472738314509392,0.7470949628651141
1772045652044402000,8.17740185546875,2.6396634444236753,0.9549734509304165,0.7209308862999081
1772045652054387700,8.1873876953125,3.1899446263343094,1.1628715204790234,0.7204945407092571
1772045652064374000,8.1973740234375,3.741503573095798,1.3772989917963743,0.8172698844619095
1772045652074359800,8.20735986328125,4.314703273779154,1.5541808685734868,1.0709735735043884
1772045652084344800,8.2173447265625,4.789539046344161,1.7303855767413974,1.442786340098828
1772045652094331000,8.227330810546874,5.0940550771266215,1.9171841596379875,1.8605198769994078
1772045652104317000,8.23731689453125,5.284315198653936,2.154863034944236,2.2122440875500438
1772045652114303000,8.247302978515625,5.545304222398996,2.427414778450131,2.4188179227575657
1772045652124288800,8.257288818359376,6.015237025353312,2.7582772566273808,2.56827198664397
1772045652134275000,8.267275146484375,6.655623425602912,3.137452807074785,2.7873566361173987
1772045652144260900,8.2772607421875,7.329452661249041,3.445636420454085,3.1512343719288705
1772045652154246000,8.287245849609375,7.973399384328722,3.7183132516443727,3.694341716687381
1772045652164231700,8.297231689453126,8.474087391030787,3.914250542025268,4.456906051363051
1772045652174218000,8.307218017578125,8.75174697906971,4.166467353510856,5.251240027526021
1772045652184203800,8.317203857421875,8.735816419488192,4.51539448068887,5.926400804036855
1772045652194189800,8.32718994140625,8.347271275410055,4.968862763315439,6.532160127541422
1772045652204176000,8.33717578125,7.716970215845108,5.472014529782533,7.00201635812819
1772045652214161000,8.347160888671874,6.891951470822096,6.011058278363943,7.329101363593339
1772045652224147000,8.35714697265625,6.01279898455143,6.468785679739713,7.556765040841698
1772045652234132700,8.3671328125,5.11960920509994,6.792275291061401,7.6294813174843785
1772045652244119000,8.377119140625,4.42179762084186,7.072887883687019,7.359997437116503
1772045652254104800,8.387104736328125,3.783084122240543,7.227379357218742,6.732751088947057
1772045652264091000,8.3970908203125,3.163836956131458,7.077431956857443,5.832341295114159
1772045652274076000,8.407075927734375,2.5703783112734553,6.694171475183963,4.617221408742666
1772045652284062000,8.41706201171875,2.0029585091657935,6.252914147093891,3.2882804974019524
1772045652294047700,8.4270478515625,1.535948169529438,5.767330770543217,2.1856039179056883
1772045652304034000,8.437033935546875,1.081690490090847,5.5837429663866756,1.294944533714652
1772045652314019800,8.447019775390626,0.498603565110825,5.712466376933455,0.4914572370201349
1772045652324006000,8.457005859375,-0.20633096636235712,5.646040724867582,-0.5001648596107959
1772045652333991000,8.466990966796875,-0.829310304737091,5.169504578125476,-1.8190929109811782
1772045652343977000,8.47697705078125,-1.3080243800401687,4.367714148476719,-3.4865234343767164
1772045652353963000,8.486962890625,-1.3496785789430141,3.5627287221789357,-5.269246224337816
1772045652363948800,8.49694873046875,-1.0664952590465544,3.210031721073389,-6.777727710270881
1772045652373935000,8.50693505859375,-0.885568198531866,3.32333807451874,-7.391183433496952
1772045652383921000,8.5169208984375,-1.016228714621067,3.4675954465448853,-7.205124270790815
1772045652393906000,8.526906005859376,-1.0641852285385132,3.3524574937582012,-7.139490061363578
1772045652403891700,8.5368916015625,-0.8277719161886722,3.0741026169314978,-8.428381286388635
1772045652413878000,8.5468779296875,-0.39849312211871146,2.9106629900515077,-11.417667146778106
1772045652423863800,8.55686376953125,-0.1592623411953449,3.397811716222763,-15.838324365413188
1772045652433849900,8.566849853515626,-0.31130700609683987,4.31052306548506,-20.241560493648052
1772045652443835000,8.5768349609375,-0.524512534403801,4.946745624053478,-23.63278114104271
1772045652453821000,8.586821044921875,-0.8194809846401214,4.523471404160559,-26.172830365025995
1772045652463807000,8.596806884765625,-0.9382464802742004,3.298446209846437,-28.625294829058646
1772045652473792800,8.606792724609376,0.3681611122190952,1.9586253003120422,-30.41035453753471
1772045652483779000,8.616779052734374,2.2953670457862314,1.9505141823098062,-30.629307085061072
1772045652493764900,8.626764892578125,2.704131532680988,2.645056243377924,-27.86546547230482
1772045652503750000,8.63675,1.4821639723718165,3.4413135888189075,-22.750564591026304
1772045652513735700,8.646735595703126,-0.10882511637806892,4.336454210077226,-17.928009994786976
1772045652523722000,8.656721923828124,-1.3201017713248728,4.602505485647916,-14.86710032916665
1772045652533707800,8.666707763671875,-1.619636506563425,4.214496055881678,-13.585801458966731
1772045652543693800,8.67669384765625,-1.1992039398372172,3.5738691248744723,-13.154191664665937
1772045652553680000,8.686679931640626,-0.8046657658893615,3.0267937532678246,-12.848093917649983
1772045652563665000,8.696664794921874,-0.5676853942412883,2.575096279706061,-11.841496954727171
1772045652573651000,8.70665087890625,-0.4352466164331883,1.9369965290889142,-9.91530560503006
1772045652583637000,8.716636962890625,-0.4015489660253748,1.0705258297368883,-7.2664482158035035
1772045652593623000,8.726623046875,-0.3712882677963003,0.1847618163719773,-4.510216493529081
1772045652603608800,8.73660888671875,-0.1798737703357823,-0.6147597915619611,-2.038801829832792
1772045652613595000,8.746594970703125,0.17807926986813544,-1.3068576743483542,0.0697697017967701
1772045652623580000,8.756579833984375,0.6315022520482539,-1.9462407427743076,1.9563754755586384
1772045652633566000,8.76656591796875,1.0792132863223551,-2.4843852044284342,3.681872403475642
1772045652643551700,8.7765517578125,1.3920470635950564,-2.9205855413898822,5.309730794939399
1772045652653538000,8.7865380859375,1.4935785158336161,-3.241097598205507,6.761937435942888
1772045652663523800,8.79652392578125,1.5038836367487907,-3.6088007375240325,8.173549616229534
1772045652673508900,8.8065087890625,1.4746306542575358,-4.162899724157154,9.417510981681943
1772045652683495000,8.816494873046874,1.3972294346690177,-4.83540180285275,10.519704746097325
1772045652693481000,8.82648095703125,1.193642798578739,-5.371283872532844,11.426432637035846
1772045652703467000,8.836467041015625,0.8358183714568614,-5.99530424439311,12.330817764240503
1772045652713452800,8.846452880859376,0.5861281558394432,-6.680070469117164,13.333323073935508
1772045652723439000,8.856439208984375,0.7216425417006015,-7.037071889418363,14.44877788646221
1772045652733423900,8.866423828125,1.1996774025678634,-6.905609409296512,15.81571622776389
1772045652743410000,8.876409912109375,1.7370915041208266,-6.127230834895372,17.393108168315887
1772045652753395700,8.886395751953126,1.8536428308367727,-4.593946039356291,19.31847651119232
1772045652763382000,8.896382080078125,1.6281681880652903,-3.013966712659597,21.629900519418715
1772045652773367800,8.906367919921875,0.9308265594065189,-1.919950994002819,23.476872786450386
1772045652783353900,8.916353759765625,-0.09676290439618751,-1.2637588295951485,24.443204374480246
1772045652793339000,8.9263388671875,-1.0469909326314926,-0.931977556072548,24.339304439544676
1772045652803325000,8.936324951171875,-1.5482465100884437,-0.8380758680600673,23.21080543652773
1772045652813311000,8.94631103515625,-1.3848515991330146,-1.0595509928666054,21.13914996936321
1772045652823296800,8.956296875,-0.8113034503381699,-1.525871304412186,18.20254940497875
1772045652833283000,8.966282958984374,-0.07515307533554733,-2.04399063064754,14.939528436517715
1772045652843267800,8.976267822265624,0.5598549928765744,-2.662401930454373,11.738333517372608
1772045652853254000,8.98625390625,1.0639115992289037,-3.177927440804243,8.651105753669142
1772045652863239700,8.99623974609375,1.1783387733977286,-3.580057750381529,6.399221145126223
1772045652873226000,9.00622607421875,0.8427543081998825,-3.6747237007647753,5.32690580162406
1772045652883211800,9.016211669921875,0.7302303373038769,-2.772846172466874,4.548029799094796
1772045652893197800,9.02619775390625,1.0258382544875144,-0.11005714239105581,2.2735265315085647
1772045652903183000,9.03618310546875,1.1794574752293527,4.798376725055277,-2.9001427650809286
1772045652913169000,9.0461689453125,-0.8113035964686423,11.008635094988346,-12.344514281159638
1772045652923155000,9.056155029296875,-3.3151346020579338,15.594922436285017,-22.369881850886344
1772045652933141000,9.06614111328125,-4.070036439281702,16.19560518717766,-27.52045493404865
1772045652943127000,9.076126953125,-4.040620959705114,14.014412655973434,-31.194773561143872
1772045652953111800,9.08611181640625,1.9110662612795828,9.468530974823237,-26.690613883435724
1772045652963097900,9.096097900390625,3.3438451482355593,9.356448902475833,-38.86125979042053
1772045652973084000,9.106083984375,2.761093190830946,3.5367946549773213,-49.55896431140899
1772045652983070000,9.116070068359376,2.8838766899347306,-1.0259987057462334,-47.21119239399433
1772045652993055700,9.1260556640625,3.1961610166311263,0.8786904217168688,-37.103684301197525
1772045653003042000,9.1360419921875,3.477390864372253,5.600902190980315,-25.09745504943132
1772045653013027000,9.146027099609375,3.353665115982294,9.372013551354408,-14.80270121449232
1772045653023012900,9.156012939453126,3.2339924423754214,10.968618726420402,-8.410253509023786
1772045653032999000,9.1659990234375,2.2342431533902882,10.581752913731336,-5.223685081124305
1772045653042985000,9.17598486328125,0.6858546044826507,9.502345566141605,-3.5616228067636486
1772045653052971000,9.185970947265625,-0.3183405945280567,8.196447676736115,-2.37523450935781
1772045653062955800,9.195955810546875,-0.8766536551922559,6.323854061713814,-1.1058113703906536
1772045653072941800,9.20594189453125,-0.9864262815535068,4.368914464177191,0.11384382132291793
1772045653082927900,9.215927978515625,-0.7767214548438787,2.7190079070344564,1.193171089413762
1772045653092914000,9.225913818359375,-0.5957277588337659,1.3098463347703218,2.436171500879526
1772045653102899700,9.235899658203126,-0.5275456550220027,0.11112170288264751,3.851560277095437
1772045653112885000,9.245885009765624,-0.3093096217345446,-0.8758749259047209,5.273820692646503
1772045653122871000,9.25587109375,0.12912724210731685,-1.6032155331164597,6.745431122300029
1772045653132856800,9.26585693359375,0.5823170000534504,-1.9513971026241779,8.113719709166883
1772045653142843000,9.2758427734375,1.0255850834440439,-1.935945266470313,9.175440593418479
1772045653152829000,9.285828857421874,1.1968518237531185,-1.9825036040276287,10.048790530890226
1772045653162814000,9.29581396484375,1.0493173297524452,-2.1152686911806464,10.710199260902405
1772045653172799700,9.3057998046875,0.7525649187088013,-2.242574343883991,11.024246505618095
1772045653182785300,9.315785400390626,0.6139671798795461,-2.4397819464616477,11.228020188713073
1772045653192771300,9.325771240234374,0.9625953241109847,-2.5977508868455885,11.755900738245249
1772045653202757400,9.33575732421875,1.4214619586497543,-2.4307395389586683,12.651155633533
1772045653212743200,9.3457431640625,1.9548253235071897,-1.9933572987362742,13.744695551371574
1772045653222728400,9.355728515625,2.530875152924657,-1.487960237560421,15.100510441112517
1772045653232714500,9.365714599609374,2.91427708889544,-0.935503245980665,16.646774252951143
1772045653242700300,9.3757001953125,3.0178543677479026,-0.4646495287891477,17.888892620885372
1772045653252686300,9.385686279296875,2.9021780703008173,-0.2744150531597435,18.758366593706608
1772045653262672400,9.39567236328125,2.6701059289604423,-0.3625139731775969,19.1229118535161
1772045653272657400,9.405657470703124,2.2635803070336578,-0.46873066062293944,18.634328710627553
1772045653282643200,9.415643310546875,1.8428724304974078,-0.762711414996162,17.324952915978432
1772045653292629500,9.42562939453125,1.4722808762609958,-1.4109659913375974,15.434122802519797
1772045653302615300,9.435615234375,1.1411351972281931,-2.0655308468043803,13.060889111590384
1772045653312601300,9.445601318359374,0.6151613581001758,-2.910942391514778,10.369677850759029
1772045653322586400,9.45558642578125,0.20545239342954008,-3.9859231548339125,7.752592733368277
1772045653332572400,9.465572509765625,-0.040908312438987196,-4.8933378589928145,5.449514528682828
1772045653342558500,9.475558349609376,-0.1334785691846162,-5.281263994389772,4.1305408846050495
1772045653352544300,9.485544189453124,-0.12443769605159759,-5.35683741402924,3.5384020901739595
1772045653362530600,9.495530517578125,-0.035669790730997915,-5.018803729048371,2.848140190643072
1772045653372515300,9.505515380859375,0.3289076908476651,-4.031168656226992,1.6267407856106757
1772045653382501400,9.51550146484375,0.6606377456396818,-3.0166034909039734,0.22015607809722423
1772045653392487200,9.525487060546874,0.913478972633928,-1.79797764223814,-2.7034593325078484
1772045653402473500,9.535473388671875,0.4147190113849938,0.21010566259548066,-7.587133291098475
1772045653412459300,9.545459228515625,-1.847607350064814,1.8930824224300682,-12.77920801295042
1772045653422444300,9.5554443359375,-6.0286132242769,2.2978103472851217,-17.314560116779802
1772045653432430300,9.565430419921874,-11.218684205090998,0.8548878135859965,-21.666739426994322
1772045653442416400,9.57541650390625,-15.289197614234684,-0.5797220881894231,-26.124527814149854
1772045653452402400,9.58540234375,-16.789706221592425,-0.6528318941943347,-29.37175967732668
1772045653462388200,9.59538818359375,-16.46638378353119,-0.2465457801118493,-29.957663376760483
1772045653472374500,9.60537451171875,-15.183673877489566,0.27655776427686213,-27.276379635703563
1772045653482359300,9.615359375,-12.854154240602254,1.2390627797558902,-22.503316507863996
1772045653492345300,9.625345458984375,-9.452435580068826,2.566153387054801,-17.62540885771513
1772045653502331400,9.635331298828126,-6.014225802484154,3.6579362320929762,-13.726215307307243
1772045653512317400,9.6453173828125,-3.2380525314211845,4.1423245536401865,-10.962694012546539
1772045653522302500,9.655302490234375,-1.4403729953467845,4.3921991859138005,-8.990618863552807
1772045653532288300,9.665288330078125,-1.0399567962110041,4.11906116695255,-7.213213469222188
1772045653542274600,9.675274658203126,-0.947616950687766,3.8117213109210133,-6.317769188842177
1772045653552260400,9.68526025390625,-0.5231389079630374,4.008198407267034,-6.239608090797066
1772045653562246400,9.695246337890625,0.09349719886481761,3.8950320468142627,-5.8262108295351265
1772045653572231200,9.705231201171875,0.963484381905198,3.7741260320201513,-5.064263749974966
1772045653582217500,9.715217529296876,1.5325035820335149,3.949812561532855,-4.262961980625986
1772045653592203300,9.725203369140624,1.3311883980065584,3.5476527336001396,-2.7513562251925467
1772045653602189300,9.735189208984375,1.4184382269144058,2.767066127760708,-1.3981506411671638
1772045653612175400,9.74517529296875,1.8652046738147734,2.2787267305001615,-0.8556891930967568
1772045653622160400,9.755160400390626,2.037796452182531,1.9396809458672999,-0.865935277301073
1772045653632146400,9.765146484375,1.7631471518754958,1.7496210230872034,-1.0597814406216144
1772045653642132200,9.77513232421875,1.4378753333121537,1.4566343943178652,-0.9401716031178832
1772045653652118500,9.785118408203125,1.8070558517068624,0.3465712117016315,0.20641601429730652
1772045653662104300,9.795104248046876,2.9917262392789126,-0.43144203651845453,1.8877984906777738
1772045653672089300,9.80508935546875,3.7892712864428755,0.12102832599952816,2.194127123840153
1772045653682075100,9.8150751953125,4.28630720037818,0.4150082035899162,1.9934277336239814
1772045653692061400,9.8250615234375,4.118789072012901,0.7187960662283003,1.4677441096141934
1772045653702047200,9.835047119140626,3.286418795183301,0.8810366925820707,0.2763254168257117
1772045653712033300,9.845033203125,2.7395085510104895,1.1800652318641542,-1.3823349401369691
1772045653722018600,9.8550185546875,2.345482345172763,1.7398470864392817,-3.363666285514831
1772045653732004400,9.86500439453125,2.0578899766623975,2.828765043565631,-5.02522236391902
1772045653741990400,9.874990478515626,2.0579408300668,3.864920986188948,-5.5604661356955765
1772045653751976400,9.8849765625,2.5031191309928893,4.359753837122023,-5.272738742628693
1772045653761962500,9.89496240234375,3.11194836346209,4.273438074193894,-4.317337129414081
1772045653771947300,9.904947265625,3.244460060375929,3.4170804803162813,-2.653683786469698
1772045653781933300,9.914933349609376,3.066459116441011,1.9632691805951297,-0.9185174782577902
1772045653791919400,9.92491943359375,3.140450235325098,1.4067638634726405,-0.10271321850218809
1772045653801905400,9.934905517578125,3.493894839927554,1.7232640542984008,-0.0986560794653371
1772045653811891200,9.94489111328125,3.987255864742398,2.2887311149030922,-0.10971249367184936
1772045653821876200,9.954876220703126,4.397223151555657,2.630588742086291,0.13338826055265962
1772045653831862500,9.964862548828124,4.658606727576256,2.77707781868726,0.28623993098810313
1772045653841848300,9.974848388671875,4.806991700926423,2.542415368592739,0.3326598099227994
1772045653851834400,9.98483447265625,4.6895378724128,2.0549784731298684,0.3303776538023725
1772045653861820400,9.9948203125,4.500457900580764,1.649491546601057,0.16500293067395685
1772045653871805400,10.004805419921874,4.464834214013814,1.4574436648741365,-0.10790507892370223
1772045653881791200,10.014791259765625,4.548423766848445,1.4865969863831996,-0.27416728894375264
1772045653891777300,10.02477734375,4.545148690700531,1.3518480319365858,-0.03370557798594236
1772045653901763300,10.034763427734376,4.388161893221736,1.138942363359034,0.27173377818651495
1772045653911749400,10.044749267578124,4.213008739933371,1.0017316949740052,0.15927805022113023
1772045653921734400,10.054734375,3.9709173088818788,0.7512538361102342,-0.12954736721552906
1772045653931720400,10.064720458984375,3.638001697567105,0.4574354326918721,-0.3449712291590869
1772045653941706500,10.07470654296875,3.326657282069325,0.26986381959617134,-0.4347239077333361
1772045653951692300,10.0846923828125,2.964774519467354,0.2327659688234329,-0.40983657310567795
1772045653961678300,10.09467822265625,2.5645629029929635,0.3999421518832445,-0.3640515580084175
1772045653971663400,10.104663330078125,2.17696526889801,0.6015653789460659,-0.4316465461146086
1772045653981649400,10.1146494140625,1.786759498131275,0.5871241811394691,-0.6742436616659164
1772045653991635200,10.12463525390625,1.5008751025825737,0.41171383821964264,-0.8634471137471497
1772045654001621500,10.13462158203125,1.3522235872507093,0.41390462626218794,-0.9520439733497797
1772045654011606500,10.1446064453125,1.4141981051266193,0.2902016742259264,-0.7964962687633931
1772045654021592300,10.15459228515625,1.7764771735697984,-0.0216021754771471,-0.44778453790172934
1772045654031578400,10.164578369140624,2.0397019935429097,-0.19929069246202707,-0.08949819235652684
1772045654041564400,10.174564453125,2.0487726042270658,-0.03479191191792488,0.15285422771871088
1772045654051550500,10.184550537109375,2.032111976805329,0.21784283271878957,0.36813890038728714
1772045654061535200,10.19453515625,1.9645833319336174,0.2698889540374279,0.5215422864213586
1772045654071521300,10.204521240234374,1.9669921466410158,0.25225071375519037,0.4508749051325023
1772045654081507300,10.21450732421875,1.8441273989945648,0.4073816542342305,0.21250059490799902
1772045654091493400,10.224493408203125,1.5218956787794828,0.11165127971470355,0.15224354847446084
1772045654101479200,10.234479248046876,1.090963345348835,-0.00419189873188734,0.03671783847920596
1772045654111464200,10.244464111328124,0.8814765453040599,-0.14287731584459543,-0.3328491950150579
1772045654121450500,10.254450439453125,0.8310013265639543,-0.39326837320774793,-0.7664459253493696
