time,seconds_elapsed,z,y,x
1772045643935923500,0.06892333984375,-1.6375420093536377,-0.015104752033948898,0.14131107926368713
1772045643945909500,0.078909423828125,-1.810714602470398,0.35286954045295715,0.1131817176938057
1772045643955894500,0.08889453125,-1.822309970855713,0.5628542304039001,0.019602883607149124
1772045643965880300,0.09888037109375,-1.7432950735092163,0.5573564171791077,-0.19917047023773193
1772045643975866400,0.108866455078125,-1.658349871635437,0.45750194787979126,-0.44972848892211914
1772045643985852400,0.118852294921875,-1.6140282154083252,0.30535873770713806,-0.7023785710334778
1772045643995837400,0.12883740234375,-1.5728516578674316,0.06472299993038177,-0.9044230580329895
1772045644005823500,0.138823486328125,-1.546449899673462,-0.1255587786436081,-1.0058300495147705
1772045644015809500,0.1488095703125,-1.5225588083267212,-0.3098265528678894,-1.0074890851974487
1772045644025795600,0.158795654296875,-1.5051798820495605,-0.49624890089035034,-0.9258615374565125
1772045644035780400,0.1687802734375,-1.5021021366119385,-0.5958819389343262,-0.7763094305992126
1772045644045766400,0.178766357421875,-1.4872981309890747,-0.3564922511577606,-0.6245886087417603
1772045644055752400,0.18875244140625,-1.425266146659851,-0.04269440472126007,-0.46460476517677307
1772045644065738500,0.198738525390625,-1.3082897663116455,0.15519391000270844,-0.31634923815727234
1772045644075723500,0.2087236328125,-1.183870553970337,0.13708728551864624,-0.24043112993240356
1772045644085709300,0.218709228515625,-1.1033003330230713,-0.06289348006248474,-0.24657317996025085
1772045644095695600,0.228695556640625,-1.0631322860717773,-0.25145506858825684,-0.2849639654159546
1772045644105681400,0.238681396484375,-1.0281002521514893,-0.40230634808540344,-0.3327815532684326
1772045644115666400,0.24866650390625,-0.9421460628509521,-0.5764901041984558,-0.37257444858551025
1772045644125652200,0.25865234375,-0.8226726651191711,-0.8430975675582886,-0.40512439608573914
1772045644135638500,0.268638427734375,-0.7508532404899597,-1.2688534259796143,-0.45114293694496155
1772045644145624300,0.278624267578125,-0.7286357879638672,-1.6357781887054443,-0.4330768287181854
1772045644155609300,0.288609375,-0.7521160244941711,-1.7904397249221802,-0.31604424118995667
1772045644165595600,0.298595703125,-0.8278555274009705,-1.7679715156555176,-0.1420559287071228
1772045644175581400,0.30858154296875,-0.8489574790000916,-1.5843288898468018,0.02073160745203495
1772045644185567500,0.3185673828125,-0.730654776096344,-1.3882768154144287,0.12075727432966232
1772045644195552300,0.32855224609375,-0.5582904815673828,-1.370099663734436,0.1574345976114273
1772045644205538300,0.338538330078125,-0.6804073452949524,-1.5777101516723633,0.1441190540790558
1772045644215524400,0.3485244140625,-0.9473944902420044,-2.1272008419036865,0.06426180154085159
1772045644225510400,0.358510498046875,-0.9905936121940613,-2.0223093032836914,-0.08786648511886597
1772045644235495400,0.368495361328125,-0.8555816411972046,-1.8795833587646484,-0.05067276209592819
1772045644245481500,0.3784814453125,-0.4265373945236206,-1.6903995275497437,0.04609479010105133
1772045644255467500,0.388467529296875,0.06871195137500763,-1.494785189628601,0.044696107506752014
1772045644265453300,0.398453369140625,0.5664733052253723,-1.3006609678268433,-0.032857004553079605
1772045644275439400,0.408439453125,1.1214532852172852,-1.2356685400009155,-0.13387160003185272
1772045644285424400,0.41842431640625,1.4480103254318237,-1.5787763595581055,-0.2019268125295639
1772045644295410400,0.428410400390625,1.4957871437072754,-2.2135987281799316,-0.22714121639728546
1772045644305396200,0.438396240234375,1.215381383895874,-2.643195629119873,-0.159218892455101
1772045644315382500,0.448382568359375,0.8459257483482361,-3.137967348098755,0.04233625903725624
1772045644325367600,0.458367431640625,0.5631533861160278,-3.735840082168579,0.3277174234390259
1772045644335353300,0.468353271484375,0.44104528427124023,-4.360044479370117,0.6355133652687073
1772045644345339400,0.47833935546875,0.4989567995071411,-4.875471591949463,0.9794856309890747
1772045644355325400,0.488325439453125,0.7129998803138733,-5.2239789962768555,1.328182339668274
1772045644365310500,0.498310546875,1.0443063974380493,-5.379576683044434,1.628473162651062
1772045644375296300,0.508296142578125,1.5128605365753174,-4.493771076202393,1.754557490348816
1772045644385282300,0.5182822265625,1.9528236389160156,-4.375528335571289,1.6978340148925781
1772045644395268400,0.528268310546875,2.3854548931121826,-4.159501075744629,1.6242421865463257
1772045644405253400,0.53825341796875,2.626091241836548,-4.181770324707031,1.478969931602478
1772045644415239400,0.548239501953125,2.6965177059173584,-4.320146083831787,1.331812858581543
1772045644425225500,0.5582255859375,2.6848373413085938,-4.535109519958496,1.1663439273834229
1772045644435211500,0.56821142578125,2.6817729473114014,-4.5564045906066895,0.9109339714050293
1772045644445197300,0.578197265625,2.6858479976654053,-4.300207614898682,0.45989829301834106
1772045644455182300,0.588182373046875,2.7456696033477783,-3.920797824859619,-0.21675337851047516
1772045644465168400,0.59816845703125,2.926703691482544,-3.543187379837036,-1.023413896560669
1772045644475154400,0.608154541015625,3.1539947986602783,-3.216054916381836,-1.7730945348739624
1772045644485140200,0.61814013671875,3.525163173675537,-3.087723970413208,-2.278496742248535
1772045644495125200,0.628125244140625,4.059874057769775,-3.243525505065918,-2.3767406940460205
1772045644505111600,0.638111572265625,4.59994649887085,-3.755160093307495,-1.9591091871261597
1772045644515097300,0.648097412109375,5.034682273864746,-4.467184543609619,-1.043627381324768
1772045644525083400,0.65808349609375,5.164608001708984,-4.859323978424072,0.34777918457984924
1772045644535068200,0.668068115234375,4.87636661529541,-4.744170665740967,1.8121144771575928
1772045644545054500,0.678054443359375,4.3863139152526855,-4.19373893737793,2.7884984016418457
1772045644555040300,0.688040283203125,3.9758026599884033,-3.3379321098327637,3.0828723907470703
1772045644565026300,0.6980263671875,3.8820199966430664,-2.5459213256835938,2.766526222229004
1772045644575012400,0.708012451171875,3.9684877395629883,-1.9592632055282593,2.1716599464416504
1772045644584997400,0.717997314453125,3.903259515762329,-1.5244755744934082,1.63472318649292
1772045644594983400,0.7279833984375,3.5675272941589355,-1.269511103630066,1.314814567565918
1772045644604969200,0.73796923828125,3.034824848175049,-1.1052734851837158,1.238250732421875
1772045644614955500,0.74795556640625,2.4315342903137207,-0.9958297610282898,1.3040220737457275
1772045644624940300,0.757940185546875,1.9135801792144775,-0.9910227656364441,1.429384469985962
1772045644634926300,0.76792626953125,1.5312837362289429,-1.099481463432312,1.5914323329925537
1772045644644912400,0.777912353515625,1.280809998512268,-1.3018535375595093,1.7917214632034302
1772045644654898400,0.7878984375,1.1272529363632202,-1.5199153423309326,2.0219929218292236
1772045644664884200,0.79788427734375,1.0313851833343506,-1.7152431011199951,2.2244820594787598
1772045644674869200,0.807869140625,0.9281167387962341,-1.8385964632034302,2.3790321350097656
1772045644684855600,0.81785546875,0.8189697265625,-1.79599928855896,2.4406814575195312
1772045644694841300,0.82784130859375,0.6860119700431824,-1.5813586711883545,2.3422491550445557
1772045644704827400,0.837827392578125,0.5559865832328796,-1.3037222623825073,2.114616632461548
1772045644714812200,0.847812255859375,0.4492154121398926,-1.055597186088562,1.8427257537841797
1772045644724798500,0.857798583984375,0.38958725333213806,-0.9117597937583923,1.573326826095581
1772045644734784300,0.8677841796875,0.3716394305229187,-0.8756847977638245,1.3261528015136719
1772045644744770300,0.877770263671875,0.3789415955543518,-0.9139962196350098,1.1178784370422363
1772045644754756400,0.88775634765625,0.39080554246902466,-1.0520315170288086,0.9612430334091187
1772045644764741400,0.897741455078125,0.3904486894607544,-1.229770541191101,0.8688960671424866
1772045644774727400,0.9077275390625,0.3706572353839874,-1.3638708591461182,0.8428681492805481
1772045644784713200,0.917713134765625,0.3505261242389679,-1.3419355154037476,0.8593539595603943
1772045644794699500,0.927699462890625,0.33977505564689636,-1.1825720071792603,0.8601900339126587
1772045644804685300,0.937685302734375,0.3528926968574524,-0.9409178495407104,0.8331312537193298
1772045644814670300,0.94767041015625,0.3981945216655731,-0.6902307868003845,0.7849541306495667
1772045644824656400,0.957656494140625,0.4870607554912567,-0.5608989000320435,0.7467947602272034
1772045644834642400,0.967642333984375,0.5882076621055603,-0.5962766408920288,0.7278410792350769
1772045644844628200,0.977628173828125,0.6807066798210144,-0.7254383563995361,0.7452176809310913
1772045644854613200,0.98761328125,0.7585527896881104,-0.8713178038597107,0.797837495803833
1772045644864599600,0.997599609375,0.7835603952407837,-0.9935086965560913,0.877344012260437
1772045644874585300,1.00758544921875,0.7482665777206421,-1.0672367811203003,0.9528810381889343
1772045644884571400,1.0175712890625,0.6536068916320801,-1.0625576972961426,0.9833143353462219
1772045644894557400,1.027557373046875,0.5177785158157349,-0.9962059855461121,0.9736228585243225
1772045644904542500,1.03754248046875,0.3512236475944519,-0.8725921511650085,0.9327763915061951
1772045644914528300,1.0475283203125,0.17395785450935364,-0.7427107691764832,0.8878929615020752
1772045644924514300,1.057514404296875,-0.0006272783502936363,-0.6100781559944153,0.8592618107795715
1772045644934500400,1.067500244140625,-0.14788365364074707,-0.5121181011199951,0.844415009021759
1772045644944486400,1.077486328125,-0.25173628330230713,-0.4188629686832428,0.8707249164581299
1772045644954471400,1.087471435546875,-0.3269307017326355,-0.30575627088546753,0.8951787352561951
1772045644964457200,1.097457275390625,-0.3736545443534851,-0.18361064791679382,0.8885408043861389
1772045644974443500,1.107443603515625,-0.4519108831882477,-0.020646516233682632,0.8712804317474365
1772045644984429300,1.11742919921875,-0.5196059942245483,0.10340698808431625,0.8460546731948853
1772045644994414300,1.127414306640625,-0.5917537808418274,0.2646844983100891,0.8761370182037354
1772045645004400400,1.137400390625,-0.6773030757904053,0.4481901526451111,0.9677113890647888
1772045645014386400,1.147386474609375,-0.8306020498275757,0.7010565996170044,1.0878925323486328
1772045645024372200,1.157372314453125,-0.971500813961029,0.9583587050437927,1.2085528373718262
1772045645034358300,1.167358154296875,-0.9677848219871521,1.0979323387145996,1.294919729232788
1772045645044343600,1.177343505859375,-0.7496671080589294,1.0641224384307861,1.3815512657165527
1772045645054329300,1.187329345703125,-0.27945005893707275,0.7683817148208618,1.5007621049880981
1772045645064315400,1.1973154296875,0.4826246500015259,0.23204155266284943,1.697453260421753
1772045645074301400,1.207301513671875,1.4512132406234741,-0.5345237851142883,1.8918535709381104
1772045645084287500,1.21728759765625,2.3078320026397705,-1.3444570302963257,2.211310386657715
1772045645094272300,1.227272216796875,2.6744680404663086,-2.021698236465454,2.660280227661133
1772045645104258300,1.23725830078125,2.235186815261841,-2.4064698219299316,3.2114992141723633
1772045645114244400,1.247244384765625,1.0796446800231934,-2.4375076293945312,3.661829948425293
1772045645124230400,1.25723046875,-0.35329359769821167,-1.9375672340393066,3.8753092288970947
1772045645134215400,1.26721533203125,-1.3280258178710938,-1.012731909751892,3.856074094772339
1772045645144201200,1.277201171875,-1.7759844064712524,0.07581724226474762,3.749939441680908
1772045645154187500,1.2871875,-1.8199927806854248,0.7539606094360352,3.529879570007324
1772045645164173300,1.29717333984375,-1.6836860179901123,0.9449697136878967,3.2526111602783203
1772045645174159000,1.3071591796875,-1.536527156829834,0.7060344815254211,2.9152116775512695
1772045645184144100,1.31714404296875,-1.4454774856567383,0.25753021240234375,2.474135160446167
1772045645194130200,1.327130126953125,-1.3651471138000488,-0.16290737688541412,1.9591763019561768
1772045645204116200,1.3371162109375,-1.264106035232544,-0.4230377674102783,1.4435371160507202
1772045645214102000,1.34710205078125,-1.1501898765563965,-0.46837136149406433,1.0098683834075928
1772045645224088000,1.357088134765625,-0.9822751879692078,-0.3186343312263489,0.7139734029769897
1772045645234073000,1.367072998046875,-0.7484108209609985,-0.12484178692102432,0.5777832865715027
1772045645244059100,1.37705908203125,-0.4571443498134613,-0.010873410850763321,0.5812150239944458
1772045645254045200,1.387045166015625,-0.14629240334033966,-0.0689188614487648,0.674200713634491
1772045645264031200,1.39703125,0.08651342242956161,-0.2636294960975647,0.8301639556884766
1772045645274017000,1.40701708984375,0.15331152081489563,-0.5738771557807922,1.0737276077270508
1772045645284002000,1.417001953125,0.1342051923274994,-1.0296462774276733,1.4396930932998657
1772045645293988400,1.42698828125,0.09347031265497208,-1.5989441871643066,1.825443148612976
1772045645303974100,1.43697412109375,0.06421203166246414,-2.079435348510742,2.1496689319610596
1772045645313960200,1.446960205078125,0.06928028166294098,-2.3385965824127197,2.3533976078033447
1772045645323945000,1.456945068359375,0.06790182739496231,-2.2700753211975098,2.441767454147339
1772045645333931300,1.46693115234375,0.008477584458887577,-1.8732887506484985,2.3993422985076904
1772045645343917000,1.4769169921875,-0.138080433011055,-1.305554986000061,2.1635494232177734
1772045645353903000,1.486903076171875,-0.2958236038684845,-0.768757164478302,1.7360268831253052
1772045645363889200,1.49688916015625,-0.33895349502563477,-0.3453606367111206,1.193963885307312
1772045645373874200,1.506874267578125,-0.22034412622451782,-0.10750382393598557,0.639071524143219
1772045645383860200,1.516860107421875,0.05345093831419945,-0.09739872068166733,0.19496388733386993
1772045645393846000,1.526845947265625,0.4169674217700958,-0.23489966988563538,-0.0817485973238945
1772045645403832300,1.536832275390625,0.7944377064704895,-0.46022891998291016,-0.17576058208942413
1772045645413818000,1.546818115234375,1.1242945194244385,-0.6894582509994507,-0.11450354754924774
1772045645423803100,1.55680322265625,1.3737741708755493,-0.8755154609680176,0.06486541032791138
1772045645433789000,1.566788818359375,1.5332050323486328,-0.9879422187805176,0.29624423384666443
1772045645443775200,1.576775146484375,1.5764098167419434,-1.0435141324996948,0.5246009826660156
1772045645453761000,1.586760986328125,1.4981542825698853,-1.036462426185608,0.7210344672203064
1772045645463747000,1.5967470703125,1.2898471355438232,-0.9703755974769592,0.877077043056488
1772045645473732400,1.606732421875,1.0131207704544067,-0.9140567779541016,0.9515430331230164
1772045645483718100,1.61671826171875,0.7347192168235779,-0.8517827987670898,0.9579375386238098
1772045645493704200,1.6267041015625,0.5171003341674805,-0.7416541576385498,0.9015199542045593
1772045645503690200,1.636690185546875,0.3711665868759155,-0.5898827314376831,0.7966135144233704
1772045645513676300,1.64667626953125,0.2841276228427887,-0.34588906168937683,0.6873994469642639
1772045645523661000,1.6566611328125,0.2024625837802887,-0.02854013815522194,0.5890941619873047
1772045645533647000,1.666647216796875,0.02183222770690918,0.35627231001853943,0.5191280245780945
1772045645543633200,1.676633056640625,-0.2682259678840637,0.7673578858375549,0.4906880855560303
1772045645553619200,1.686619140625,-0.6299334764480591,1.1431390047073364,0.5171077251434326
1772045645563605000,1.69660498046875,-0.9509533047676086,1.4748057126998901,0.6200324892997742
1772045645573590000,1.706590087890625,-1.0614608526229858,1.7204256057739258,0.7862541079521179
1772045645583576300,1.716576416015625,-0.9166800379753113,1.9043829441070557,0.9276669025421143
1772045645593562000,1.72656201171875,-0.5978063344955444,1.9406479597091675,0.9841812252998352
1772045645603548200,1.736548095703125,-0.23893095552921295,1.810150384902954,1.0766602754592896
1772045645613533000,1.746532958984375,0.1498861014842987,1.4711692333221436,1.2839525938034058
1772045645623519200,1.756519287109375,0.5763242244720459,0.8782464265823364,1.5949299335479736
1772045645633505000,1.766505126953125,1.0034372806549072,0.11904379725456238,1.8383524417877197
1772045645643491000,1.776490966796875,1.502108097076416,-0.7616992592811584,1.8260313272476196
1772045645653477000,1.78647705078125,1.6707890033721924,-1.0949387550354004,1.6803505420684814
1772045645663462100,1.796462158203125,1.5310372114181519,-0.698279619216919,1.3857945203781128
1772045645673448200,1.8064482421875,1.0755118131637573,0.2477664202451706,0.9782088398933411
1772045645683434200,1.816434326171875,0.4866943657398224,1.0253876447677612,0.5518205165863037
1772045645693420300,1.826420166015625,0.0014540916308760643,1.541467308998108,0.35551315546035767
1772045645703406000,1.836406005859375,-0.22646881639957428,1.8302054405212402,0.5417506694793701
1772045645713391000,1.84639111328125,-0.2560490369796753,1.8358089923858643,0.9763048887252808
1772045645723377200,1.856377197265625,-0.2433854341506958,1.6126378774642944,1.3989421129226685
1772045645733363200,1.86636328125,-0.10058630257844925,1.174780011177063,1.5677282810211182
1772045645743349000,1.876348876953125,0.12310963124036789,0.6954666376113892,1.3272027969360352
1772045645753335300,1.886335205078125,0.2555212676525116,0.37002095580101013,0.8157026171684265
1772045645763320300,1.8963203125,0.12889620661735535,0.29326891899108887,0.3064873218536377
1772045645773306000,1.90630615234375,-0.2185535579919815,0.3532465100288391,-0.09409887343645096
1772045645783292200,1.916292236328125,-0.5956805944442749,0.5293879508972168,-0.40615877509117126
1772045645793278200,1.9262783203125,-0.8258794546127319,0.7953581809997559,-0.6973402500152588
1772045645803263200,1.93626318359375,-0.8549537062644958,1.0993038415908813,-0.9773098230361938
1772045645813249000,1.9462490234375,-0.7898391485214233,1.289149522781372,-1.272902488708496
1772045645823235000,1.956235107421875,-0.7037737965583801,1.243193507194519,-1.5465601682662964
1772045645833221000,1.96622119140625,-0.651171863079071,0.822685956954956,-1.7524651288986206
1772045645843207200,1.976207275390625,-0.6622263789176941,0.1108270213007927,-1.7814879417419434
1772045645853192200,1.986192138671875,-0.7016800045967102,-0.6736937761306763,-1.5967305898666382
1772045645863178000,1.996177978515625,-0.7167719006538391,-1.3583240509033203,-1.2826889753341675
1772045645873164300,2.006164306640625,-0.6632689237594604,-1.7584728002548218,-0.9201211929321289
1772045645883150000,2.016150146484375,-0.5123472809791565,-1.7726244926452637,-0.5940666794776917
1772045645893136100,2.02613623046875,-0.32921427488327026,-1.5129345655441284,-0.393403023481369
1772045645903121200,2.03612109375,-0.20002087950706482,-1.1483409404754639,-0.3957546055316925
1772045645913107200,2.046107177734375,-0.1669662445783615,-0.7523995041847229,-0.6080812811851501
1772045645923093000,2.056093017578125,-0.19265376031398773,-0.3777361810207367,-0.9703894257545471
1772045645933079300,2.066079345703125,-0.24860791862010956,-0.10672202706336975,-1.370571255683899
1772045645943065000,2.076065185546875,-0.32979172468185425,0.039176326245069504,-1.7118289470672607
1772045645953050000,2.086050048828125,-0.41276171803474426,0.14094138145446777,-1.943158745765686
1772045645963036200,2.0960361328125,-0.427421897649765,0.22281761467456818,-2.0840137004852295
1772045645973022200,2.106022216796875,-0.34116941690444946,0.2558106780052185,-2.164290189743042
1772045645983008300,2.11600830078125,-0.19211868941783905,0.2354649156332016,-2.185465097427368
1772045645992993000,2.125992919921875,-0.02092009037733078,0.14952445030212402,-2.1636884212493896
1772045646002979000,2.13597900390625,0.1257697492837906,-0.005677924957126379,-2.0952296257019043
1772045646012965000,2.145965087890625,0.17225296795368195,-0.19796453416347504,-1.949399709701538
1772045646022951200,2.155951171875,0.1312863677740097,-0.3634864091873169,-1.7414361238479614
1772045646032937000,2.16593701171875,0.062352679669857025,-0.4383448660373688,-1.5584291219711304
1772045646042922000,2.175921875,0.01311935018748045,-0.39443439245224,-1.4470645189285278
1772045646052908300,2.185908203125,0.009251311421394348,-0.24578620493412018,-1.4140188694000244
1772045646062894000,2.19589404296875,0.07089497148990631,-0.025281790643930435,-1.4425936937332153
1772045646072880000,2.205880126953125,0.1777418553829193,0.18262812495231628,-1.5022302865982056
1772045646082866200,2.2158662109375,0.2832927703857422,0.3269197940826416,-1.5942853689193726
1772045646092851200,2.225851318359375,0.36509430408477783,0.4360070526599884,-1.7086706161499023
1772045646102837000,2.2358369140625,0.42292726039886475,0.5719504952430725,-1.8645907640457153
1772045646112823300,2.2458232421875,0.4103598892688751,0.7925601601600647,-2.0250470638275146
1772045646122809000,2.25580908203125,0.33490827679634094,1.1091077327728271,-2.1364550590515137
1772045646132795100,2.265795166015625,0.24263246357440948,1.490848422050476,-2.189112901687622
1772045646142780200,2.2757802734375,0.19736751914024353,1.8898330926895142,-2.1794469356536865
1772045646152766200,2.28576611328125,0.14629574120044708,2.2482619285583496,-2.151369333267212
1772045646162752300,2.295752197265625,0.1717185527086258,2.3829505443573,-2.1510446071624756
1772045646172738000,2.305738037109375,0.47406476736068726,2.1182799339294434,-2.161656618118286
1772045646182723000,2.31572314453125,1.1384841203689575,1.1440476179122925,-2.1175923347473145
1772045646192709000,2.325709228515625,2.028528928756714,-0.2432386875152588,-2.039362907409668
1772045646202695200,2.335695068359375,2.789177179336548,-1.2703578472137451,-1.7953394651412964
1772045646212681000,2.345680908203125,2.9948954582214355,-1.4830214977264404,-1.355653166770935
1772045646222667300,2.355667236328125,2.386091470718384,-0.8761621713638306,-0.8169168829917908
1772045646232652300,2.36565234375,1.1882243156433105,0.1636306196451187,-0.26382169127464294
1772045646242638000,2.37563818359375,0.12427230924367905,1.0395482778549194,0.15258270502090454
1772045646252624100,2.3856240234375,-0.44041168689727783,1.709872841835022,0.3934803009033203
1772045646262610200,2.395610107421875,-0.8255295157432556,2.083341598510742,0.4109676778316498
1772045646272595200,2.40559521484375,-1.38343346118927,2.1308162212371826,0.20292532444000244
1772045646282581000,2.4155810546875,-2.1113007068634033,2.0059854984283447,-0.20688669383525848
1772045646292567000,2.425567138671875,-2.7510263919830322,1.8723098039627075,-0.692480206489563
1772045646302553000,2.435552978515625,-3.064213991165161,1.8427073955535889,-1.1401102542877197
1772045646312539100,2.4455390625,-3.0571351051330566,1.8710870742797852,-1.4930673837661743
1772045646322524200,2.455524169921875,-2.8807461261749268,1.8864394426345825,-1.7521806955337524
1772045646332510200,2.46551025390625,-2.6750242710113525,1.7959100008010864,-1.9275106191635132
1772045646342496300,2.475496337890625,-2.513618230819702,1.5891366004943848,-2.010085105895996
1772045646352482000,2.48548193359375,-2.3844621181488037,1.2430055141448975,-2.012854814529419
1772045646362468400,2.49546826171875,-2.2806191444396973,0.8175088763237,-1.9435924291610718
1772045646372453000,2.505453125,-2.1786811351776123,0.3521818518638611,-1.8044812679290771
1772045646382439200,2.515439208984375,-2.048474073410034,-0.13799689710140228,-1.6254336833953857
1772045646392425000,2.525425048828125,-1.8910397291183472,-0.621616542339325,-1.41826331615448
1772045646402411300,2.535411376953125,-1.7227433919906616,-1.0993077754974365,-1.1806060075759888
1772045646412397000,2.54539697265625,-1.5438107252120972,-1.498116374015808,-0.9119912385940552
1772045646422382000,2.555382080078125,-1.37459397315979,-1.765960931777954,-0.6495622396469116
1772045646432368000,2.5653681640625,-1.2426643371582031,-1.9205418825149536,-0.4199865460395813
1772045646442354200,2.575354248046875,-1.1663434505462646,-1.9682202339172363,-0.24627335369586945
1772045646452340200,2.58534033203125,-1.1557790040969849,-1.9420711994171143,-0.20759624242782593
1772045646462326000,2.595325927734375,-1.177380919456482,-1.8722665309906006,-0.3274856209754944
1772045646472311000,2.60531103515625,-1.1380833387374878,-1.8057481050491333,-0.5499464273452759
1772045646482297000,2.615297119140625,-0.9687002301216125,-1.720049500465393,-0.8170018792152405
1772045646492283100,2.625283203125,-0.7044873237609863,-1.5797781944274902,-1.0662819147109985
1772045646502269000,2.63526904296875,-0.4292168617248535,-1.3366079330444336,-1.2534880638122559
1772045646512254200,2.645254150390625,-0.19156591594219208,-1.0140883922576904,-1.3773783445358276
1772045646522240300,2.655240234375,-0.004218127578496933,-0.630407989025116,-1.4607664346694946
1772045646532226000,2.66522607421875,0.18232734501361847,-0.24420882761478424,-1.557038426399231
1772045646542212400,2.67521240234375,0.40532076358795166,0.014763882383704185,-1.674476146697998
1772045646552198100,2.6851982421875,0.6500354409217834,0.13775208592414856,-1.7731939554214478
1772045646562183200,2.69518310546875,0.8889582753181458,0.1354130357503891,-1.827433466911316
1772045646572169000,2.7051689453125,1.0866954326629639,0.08454170823097229,-1.8315459489822388
1772045646582155300,2.7151552734375,1.2107737064361572,-0.003888554871082306,-1.7931957244873047
1772045646592141000,2.72514111328125,1.2483999729156494,-0.08586742728948593,-1.742043375968933
1772045646602127000,2.735127197265625,1.2312861680984497,-0.1279970407485962,-1.7124295234680176
1772045646612112100,2.745112060546875,1.1726531982421875,-0.134804368019104,-1.7121847867965698
1772045646622098200,2.75509814453125,1.0498859882354736,-0.11032778024673462,-1.7363346815109253
1772045646632084200,2.765084228515625,0.8757927417755127,-0.03754808008670807,-1.7530549764633179
1772045646642070000,2.775070068359375,0.7045062184333801,0.13190166652202606,-1.7583874464035034
1772045646652056300,2.785056396484375,0.5559938549995422,0.41553130745887756,-1.7844791412353516
1772045646662041000,2.795041015625,0.43654972314834595,0.7775185704231262,-1.834260106086731
1772045646672027100,2.805027099609375,0.36816248297691345,1.1789108514785767,-1.8925881385803223
1772045646682013000,2.815012939453125,0.34487128257751465,1.6223104000091553,-1.9587922096252441
1772045646691999200,2.824999267578125,0.3165663480758667,1.9540902376174927,-2.0966312885284424
1772045646701985000,2.834985107421875,0.3476182818412781,2.054055690765381,-2.1858489513397217
1772045646711970000,2.844969970703125,0.7284728288650513,1.842903971672058,-1.9660803079605103
1772045646721956000,2.8549560546875,1.5539268255233765,1.2222909927368164,-1.3733965158462524
1772045646731942100,2.864942138671875,2.46533203125,0.17179518938064575,-0.7099958658218384
1772045646741928200,2.87492822265625,3.137195348739624,-1.1164880990982056,-0.17608430981636047
1772045646751914000,2.8849140625,3.420367479324341,-2.1158390045166016,0.26998838782310486
1772045646761899300,2.894899169921875,3.151641368865967,-2.345729351043701,0.5290425419807434
1772045646771885000,2.904885009765625,2.1098697185516357,-1.726547122001648,0.16830864548683167
1772045646781871000,2.91487109375,0.6005622148513794,-0.3315354883670807,-0.7233440279960632
1772045646791857200,2.924857177734375,-0.6324028968811035,1.4251254796981812,-1.591007113456726
1772045646801842200,2.93484228515625,-1.2940229177474976,2.839452028274536,-2.032348155975342
1772045646811828200,2.944828125,-1.4742629528045654,3.402790069580078,-2.008045196533203
1772045646821814000,2.95481396484375,-1.432068943977356,3.081636667251587,-1.6947011947631836
1772045646831800300,2.96480029296875,-1.3901914358139038,2.2753729820251465,-1.3071534633636475
1772045646841786000,2.9747861328125,-1.3746620416641235,1.4203901290893555,-0.9846742153167725
1772045646851771100,2.984771240234375,-1.393899917602539,0.8282082676887512,-0.8032305240631104
1772045646861757000,2.9947568359375,-1.4023059606552124,0.5650895833969116,-0.7538602948188782
1772045646871743200,3.0047431640625,-1.3634272813796997,0.5358109474182129,-0.7522947192192078
1772045646881729000,3.01472900390625,-1.304660439491272,0.5910100340843201,-0.7378153800964355
1772045646891715000,3.024715087890625,-1.2063461542129517,0.5989359021186829,-0.654416024684906
1772045646901700000,3.0347001953125,-1.0773344039916992,0.5061641931533813,-0.5126383900642395
1772045646911686100,3.04468603515625,-0.9663230776786804,0.29756414890289307,-0.3353460729122162
1772045646921672200,3.054672119140625,-0.8901590704917908,-0.0031328334007412195,-0.09502161294221878
1772045646931658000,3.064657958984375,-0.8744151592254639,-0.34439393877983093,0.16776004433631897
1772045646941644300,3.074644287109375,-0.9175644516944885,-0.6628944277763367,0.4481605291366577
1772045646951629000,3.084629150390625,-1.0008257627487183,-0.921161413192749,0.699720025062561
1772045646961615000,3.094614990234375,-1.1197867393493652,-1.1004626750946045,0.876952052116394
1772045646971601200,3.10460107421875,-1.2644972801208496,-1.1418194770812988,0.9688683152198792
1772045646981587200,3.114587158203125,-1.4128621816635132,-1.0057133436203003,0.9433687925338745
1772045646991573000,3.124572998046875,-1.5433733463287354,-0.7336813807487488,0.7922269701957703
1772045647001559000,3.13455908203125,-1.614456057548523,-0.42584848403930664,0.5053195953369141
1772045647011544300,3.14454443359375,-1.5894315242767334,-0.0967138484120369,0.13117475807666779
1772045647021530000,3.154530029296875,-1.4596165418624878,0.16803179681301117,-0.26965492963790894
1772045647031516200,3.16451611328125,-1.2501025199890137,0.3597668707370758,-0.6593385338783264
1772045647041502200,3.174502197265625,-1.0318471193313599,0.5331503748893738,-1.0187054872512817
1772045647051488300,3.18448828125,-0.8337061405181885,0.6531448364257812,-1.3507335186004639
1772045647061473000,3.19447314453125,-0.6015117764472961,0.6706798672676086,-1.6431770324707031
1772045647071459000,3.204458984375,-0.33718425035476685,0.6217978000640869,-1.873443841934204
1772045647081445000,3.214445068359375,-0.04907125234603882,0.5568864941596985,-2.071761131286621
1772045647091431200,3.22443115234375,0.2528906464576721,0.545242428779602,-2.2508890628814697
1772045647101417000,3.2344169921875,0.5577282905578613,0.6453070044517517,-2.4121947288513184
1772045647111402000,3.244402099609375,0.8024467825889587,0.9116989970207214,-2.592973470687866
1772045647121388300,3.25438818359375,0.9743059277534485,1.2230303287506104,-2.809849977493286
1772045647131374000,3.2643740234375,1.0922574996948242,1.4384748935699463,-2.996149778366089
1772045647141360000,3.274360107421875,1.1860438585281372,1.3956505060195923,-3.0522003173828125
1772045647151346200,3.28434619140625,1.265289306640625,1.142447829246521,-2.9597790241241455
1772045647161331200,3.294331298828125,1.3527594804763794,0.7393914461135864,-2.748201608657837
1772045647171317200,3.304317138671875,1.4492568969726562,0.3576495945453644,-2.462446451187134
1772045647181303600,3.314303466796875,1.495593547821045,0.13471560180187225,-2.186629295349121
1772045647191289300,3.324289306640625,1.4620420932769775,0.055830877274274826,-1.982569694519043
1772045647201275400,3.334275390625,1.3477519750595093,0.06427362561225891,-1.8514811992645264
1772045647211261400,3.344261474609375,1.1751253604888916,0.10883094370365143,-1.7384564876556396
1772045647221246500,3.35424658203125,0.8766840100288391,0.21988235414028168,-1.613265037536621
1772045647231232500,3.364232421875,0.5181390047073364,0.18857921659946442,-1.4282211065292358
1772045647241218300,3.37421826171875,0.32999253273010254,-0.08539214730262756,-1.1517047882080078
1772045647251204600,3.38420458984375,0.5813508033752441,-0.7930008172988892,-0.6381266713142395
1772045647261190400,3.3941904296875,1.263219952583313,-1.8790640830993652,0.05699245631694794
1772045647271175400,3.404175537109375,1.8523141145706177,-3.006824493408203,0.5001681447029114
1772045647281161200,3.4141611328125,1.7468204498291016,-3.6772525310516357,0.37073957920074463
1772045647291147500,3.4241474609375,1.1908631324768066,-3.469322919845581,-0.30898672342300415
1772045647301133300,3.43413330078125,0.5780770778656006,-1.9389383792877197,-1.3066425323486328
1772045647311119400,3.444119384765625,-0.1949608027935028,0.6429405212402344,-2.166433095932007
1772045647321104600,3.454104736328125,-0.8867635130882263,3.2210071086883545,-2.463822364807129
1772045647331090400,3.46409033203125,-1.1211574077606201,4.764498710632324,-2.19453501701355
1772045647341076500,3.474076416015625,-0.855774462223053,4.919092655181885,-1.4773198366165161
1772045647351062500,3.4840625,-0.3972379267215729,3.9478185176849365,-0.5369495153427124
1772045647361048600,3.494048583984375,-0.10007204115390778,2.219866991043091,0.34604954719543457
1772045647371034400,3.504034423828125,-0.03139777109026909,0.4066382944583893,1.1291104555130005
1772045647381019400,3.514019287109375,-0.156950905919075,-0.9341312050819397,1.737169623374939
1772045647391005400,3.52400537109375,-0.34946292638778687,-1.5855268239974976,2.070932149887085
1772045647400991500,3.533991455078125,-0.4682447016239166,-1.6902590990066528,2.139699697494507
1772045647410977300,3.543977294921875,-0.4597870409488678,-1.4260135889053345,1.9679685831069946
1772045647420963600,3.553963623046875,-0.341040700674057,-0.9751554131507874,1.615377426147461
1772045647430948600,3.563948486328125,-0.14078380167484283,-0.5014570355415344,1.2048290967941284
1772045647440934400,3.573934326171875,0.06179194524884224,-0.13753560185432434,0.8512333035469055
1772045647450920400,3.58392041015625,0.21789562702178955,0.07332973182201385,0.6518325209617615
1772045647460906500,3.593906494140625,0.30338868498802185,0.11145687848329544,0.6429601907730103
1772045647470892500,3.603892578125,0.3107827305793762,-0.04423986002802849,0.7961817979812622
1772045647480878300,3.61387841796875,0.24506017565727234,-0.3945257067680359,1.0792731046676636
1772045647490863400,3.62386328125,0.11308659613132477,-0.9083979725837708,1.4391648769378662
1772045647500849400,3.633849365234375,-0.0823042020201683,-1.4809662103652954,1.8067835569381714
1772045647510835500,3.64383544921875,-0.31744569540023804,-1.9689116477966309,2.1355972290039062
1772045647520821200,3.6538212890625,-0.5514816045761108,-2.289454698562622,2.393972635269165
1772045647530807600,3.6638076171875,-0.7675830721855164,-2.453737735748291,2.5435240268707275
1772045647540793300,3.67379345703125,-0.9311699271202087,-2.431718587875366,2.5488197803497314
1772045647550778400,3.6837783203125,-1.0315086841583252,-2.267592430114746,2.399665117263794
1772045647560764400,3.693764404296875,-1.0639259815216064,-1.9829471111297607,2.1381490230560303
1772045647570750500,3.70375048828125,-1.0457335710525513,-1.594751000404358,1.7870224714279175
1772045647580736500,3.713736572265625,-0.977028489112854,-1.12184739112854,1.3693716526031494
1772045647590722300,3.723722412109375,-0.8734238743782043,-0.5664315819740295,0.8950502276420593
1772045647600707600,3.73370751953125,-0.7424677014350891,0.01950005441904068,0.37139713764190674
1772045647610693400,3.743693359375,-0.591357409954071,0.502306342124939,-0.15816909074783325
1772045647620679400,3.753679443359375,-0.4356945753097534,0.829416811466217,-0.5866429805755615
1772045647630665500,3.76366552734375,-0.23185454308986664,0.9381175637245178,-0.8322838544845581
1772045647640651500,3.773651611328125,0.04129603132605553,0.8401699662208557,-0.8831204175949097
1772045647650637300,3.78363720703125,0.36449891328811646,0.5986229777336121,-0.7776696681976318
1772045647660622300,3.793622314453125,0.6452834010124207,0.2724883258342743,-0.5521311163902283
1772045647670608600,3.803608642578125,0.8208680748939514,-0.03959663212299347,-0.22985680401325226
1772045647680594400,3.813594482421875,0.9073212146759033,-0.3609189987182617,0.1412874460220337
1772045647690580500,3.82358056640625,0.8809725046157837,-0.6940014362335205,0.5082315802574158
1772045647700566500,3.83356640625,0.7722952961921692,-0.9378364682197571,0.8327904343605042
1772045647710552600,3.843552490234375,0.6433731913566589,-1.0516088008880615,1.1103456020355225
1772045647720537300,3.853537353515625,0.5205239653587341,-1.0478334426879883,1.3097953796386719
1772045647730523400,3.8635234375,0.43541601300239563,-0.9543932676315308,1.4334053993225098
1772045647740509400,3.873509521484375,0.38654062151908875,-0.8488995432853699,1.4786927700042725
1772045647750495500,3.88349560546875,0.38482165336608887,-0.7499198913574219,1.4719094038009644
1772045647760481300,3.893481201171875,0.36166733503341675,-0.5852584838867188,1.421509027481079
1772045647770467600,3.903467529296875,0.275394082069397,-0.3530958294868469,1.247517466545105
1772045647780452600,3.91345263671875,0.11773519963026047,-0.0959700271487236,0.9268094897270203
1772045647790438400,3.9234384765625,0.039376210421323776,0.10776340216398239,0.5876358151435852
1772045647800424400,3.933424560546875,0.2757621109485626,0.28508278727531433,0.3105699121952057
1772045647810410500,3.943410400390625,1.0151307582855225,0.26752322912216187,0.05206499621272087
1772045647820396500,3.953396484375,2.2647202014923096,-0.04301198944449425,0.031501397490501404
1772045647830382300,3.96338232421875,3.6545495986938477,-0.5857532620429993,0.5099258422851562
1772045647840367400,3.973367431640625,4.573205947875977,-1.3539191484451294,1.5228939056396484
1772045647850353400,3.983353515625,4.578988075256348,-2.158356189727783,2.794501781463623
1772045647860339500,3.99333935546875,3.423853874206543,-2.722186326980591,3.9709157943725586
1772045647870325200,4.0033251953125,1.3061037063598633,-3.129931688308716,4.6297173500061035
1772045647880311600,4.0133115234375,-1.0605753660202026,-3.037288188934326,4.59514856338501
1772045647890296600,4.023296630859375,-2.7564918994903564,-2.2215616703033447,4.051084518432617
1772045647900282400,4.033282470703125,-3.3874573707580566,-1.022497534751892,3.30792236328125
1772045647910268400,4.043268310546875,-3.005364418029785,0.044300004839897156,2.664088726043701
1772045647920254500,4.05325439453125,-2.146360397338867,0.6073673963546753,2.1730234622955322
1772045647930240500,4.063240478515625,-1.4099855422973633,0.5991505980491638,1.8085023164749146
1772045647940226300,4.073226318359375,-1.073131799697876,0.23934711515903473,1.521859884262085
1772045647950211600,4.083211669921875,-1.0911204814910889,-0.06821135431528091,1.261289358139038
1772045647960197400,4.093197265625,-1.264359712600708,-0.11043310910463333,0.9675160646438599
1772045647970183400,4.103183349609375,-1.4166390895843506,0.19674678146839142,0.582101047039032
1772045647980169500,4.11316943359375,-1.4413504600524902,0.7058497071266174,0.08279645442962646
1772045647990155500,4.123155517578125,-1.2239214181900024,1.2491583824157715,-0.41560041904449463
1772045648000141300,4.133141357421875,-0.8229958415031433,1.6835167407989502,-0.7880562543869019
1772045648010126300,4.143126220703125,-0.3570604920387268,1.886242151260376,-0.9932042360305786
1772045648020112600,4.153112548828125,0.05538298189640045,1.7909648418426514,-1.0074973106384277
1772045648030098400,4.163098388671875,0.3686198890209198,1.3642288446426392,-0.7974892854690552
1772045648040084500,4.17308447265625,0.5512897968292236,0.7553101778030396,-0.36185741424560547
1772045648050070500,4.183070556640625,0.5881689786911011,0.1146932989358902,0.19408263266086578
1772045648060056300,4.193056396484375,0.5253463387489319,-0.48049283027648926,0.7694412469863892
1772045648070041300,4.203041259765625,0.4511108994483948,-0.9643957018852234,1.3136932849884033
1772045648080027400,4.21302734375,0.41227856278419495,-1.298102617263794,1.7618176937103271
1772045648090013400,4.223013427734375,0.42125508189201355,-1.4801020622253418,2.1026852130889893
1772045648099999500,4.23299951171875,0.46650591492652893,-1.5481345653533936,2.325063943862915
1772045648109985300,4.2429853515625,0.5242965817451477,-1.5219792127609253,2.466618537902832
1772045648119971600,4.2529716796875,0.5498543977737427,-1.421815037727356,2.5277867317199707
1772045648129956600,4.26295654296875,0.555415153503418,-1.306471347808838,2.5312840938568115
1772045648139942400,4.2729423828125,0.5219202637672424,-1.1803100109100342,2.489169120788574
1772045648149928400,4.282928466796875,0.4764535427093506,-1.093045949935913,2.4180166721343994
1772045648159914500,4.29291455078125,0.44972047209739685,-1.070813536643982,2.3441615104675293
1772045648169900500,4.302900634765625,0.44705572724342346,-1.106353998184204,2.2875518798828125
1772045648179886800,4.312886962890625,0.4626575708389282,-1.1634100675582886,2.2472400665283203
1772045648189871900,4.322871826171875,0.4795563220977783,-1.2256745100021362,2.2151641845703125
1772045648199858000,4.33285791015625,0.4798375368118286,-1.2707717418670654,2.160895347595215
1772045648209844000,4.342843994140625,0.44817569851875305,-1.272935152053833,2.0721659660339355
1772045648219829800,4.352829833984375,0.4108847975730896,-1.2347880601882935,1.9625232219696045
1772045648229816000,4.362816162109375,0.3953491747379303,-1.1227539777755737,1.8370083570480347
1772045648239801900,4.3728017578125,0.4182265102863312,-1.0044180154800415,1.7064194679260254
1772045648249787000,4.382786865234375,0.484018474817276,-0.8898003101348877,1.6115320920944214
1772045648259772700,4.392772705078125,0.5967051386833191,-0.8007827997207642,1.5658223628997803
1772045648269759000,4.402759033203125,0.7066235542297363,-0.7779258489608765,1.5355241298675537
1772045648279744800,4.412744873046875,0.7971188426017761,-0.8212873935699463,1.4872628450393677
1772045648289730800,4.422730712890625,0.8767097592353821,-0.9224737882614136,1.4334675073623657
1772045648299716900,4.432716796875,0.9437354207038879,-1.020161747932434,1.3612465858459473
1772045648309702000,4.442701904296875,0.9673924446105957,-0.9964033365249634,1.2480541467666626
1772045648319688000,4.45268798828125,0.9209953546524048,-0.8379572629928589,1.0709675550460815
1772045648329673700,4.462673828125,0.8779272437095642,-0.6453937292098999,0.8385055065155029
1772045648339660000,4.472659912109375,1.017184853553772,-0.6789426207542419,0.5062494874000549
1772045648349645800,4.482645751953125,1.3974188566207886,-1.1336826086044312,0.1918041855096817
1772045648359632000,4.4926318359375,2.100921392440796,-2.044936418533325,-0.00002516736276447773
1772045648369617000,4.502616943359375,2.776550531387329,-2.959977865219116,-0.03969914838671684
1772045648379603000,4.51260302734375,3.0510387420654297,-3.8092002868652344,0.08488805592060089
1772045648389588700,4.522588623046875,3.0000252723693848,-4.178484916687012,0.20665664970874786
1772045648399575000,4.532574951171875,2.1571812629699707,-3.1261367797851562,0.47109416127204895
1772045648409560800,4.542560791015625,0.2746525704860687,-0.9574249386787415,0.7545678615570068
1772045648419545900,4.5525458984375,-1.8110851049423218,1.3803290128707886,0.9353538751602173
1772045648429532000,4.562531982421875,-3.039947032928467,3.143946647644043,1.2488609552383423
1772045648439518000,4.57251806640625,-3.1684036254882812,3.8394458293914795,1.754584550857544
1772045648449504000,4.58250390625,-2.444664478302002,3.461211681365967,2.328519582748413
1772045648459489800,4.59248974609375,-1.6374156475067139,2.449957847595215,2.7110836505889893
1772045648469476000,4.60247607421875,-1.2355679273605347,1.2182588577270508,2.8360044956207275
1772045648479460900,4.6124609375,-1.1585274934768677,0.1376105695962906,2.7220444679260254
1772045648489447000,4.622447021484375,-1.1927485466003418,-0.6330018639564514,2.4261057376861572
1772045648499432700,4.6324326171875,-1.1659369468688965,-1.0192867517471313,2.0302724838256836
1772045648509419000,4.6424189453125,-1.0408308506011963,-1.1159732341766357,1.5765299797058105
1772045648519404800,4.65240478515625,-0.8481383919715881,-1.0099581480026245,1.134419322013855
1772045648529390800,4.662390869140625,-0.6069349646568298,-0.7657094597816467,0.7451792359352112
1772045648539375900,4.6723759765625,-0.3667144179344177,-0.45417022705078125,0.47637784481048584
1772045648549362000,4.68236181640625,-0.17835398018360138,-0.14642879366874695,0.3645939230918884
1772045648559348000,4.692347900390625,-0.11090382933616638,0.159185990691185,0.3994120955467224
1772045648569333800,4.702333740234375,-0.1457509845495224,0.3429986238479614,0.5319592952728271
1772045648579320000,4.712320068359375,-0.21566241979599,0.3403375744819641,0.7657811045646667
1772045648589305900,4.722305908203125,-0.32364487648010254,0.17625243961811066,1.0773136615753174
1772045648599291000,4.732290771484375,-0.4741310477256775,-0.13502980768680573,1.421569585800171
1772045648609276700,4.742276611328125,-0.6535868644714355,-0.5312554836273193,1.7669310569763184
1772045648619263000,4.752262939453125,-0.872640073299408,-0.828867495059967,2.091024160385132
1772045648629248800,4.762248779296875,-1.1133849620819092,-0.9325175881385803,2.3328793048858643
1772045648639234800,4.77223486328125,-1.2812438011169434,-0.9706705808639526,2.458874464035034
1772045648649220900,4.782220947265625,-1.3080703020095825,-0.9689555168151855,2.5066463947296143
1772045648659206000,4.792205810546875,-1.2012282609939575,-0.980721652507782,2.5010199546813965
1772045648669192000,4.80219189453125,-1.009261965751648,-1.023884654045105,2.445887804031372
1772045648679177700,4.812177734375,-0.7952082753181458,-1.1107622385025024,2.3485617637634277
1772045648689164000,4.8221640625,-0.6238284707069397,-1.2234684228897095,2.221465587615967
1772045648699149800,4.83214990234375,-0.5411993861198425,-1.3151724338531494,2.058060646057129
1772045648709134800,4.842134765625,-0.53836590051651,-1.346504807472229,1.8469640016555786
1772045648719121000,4.852120849609375,-0.5544082522392273,-1.2654166221618652,1.596695899963379
1772045648729107000,4.86210693359375,-0.5433774590492249,-1.11166250705719,1.3166022300720215
1772045648739092700,4.8720927734375,-0.4707525372505188,-0.9771206378936768,1.0522688627243042
1772045648749079000,4.8820791015625,-0.32152923941612244,-0.8858959674835205,0.8417463898658752
1772045648759064800,4.89206494140625,-0.1389000415802002,-0.8246440887451172,0.6797870397567749
1772045648769049900,4.9020498046875,0.022713515907526016,-0.7698056697845459,0.5514242053031921
1772045648779036000,4.912035888671875,0.10380437225103378,-0.7190653085708618,0.4377400279045105
1772045648789022000,4.92202197265625,0.08807701617479324,-0.6887821555137634,0.3441774547100067
1772045648799008000,4.932008056640625,-0.03175191581249237,-0.6303582787513733,0.26195743680000305
1772045648808993800,4.941993896484375,-0.18120579421520233,-0.5740119218826294,0.1932273507118225
1772045648818980000,4.95197998046875,-0.2774987816810608,-0.4564986228942871,0.16612356901168823
1772045648828964900,4.96196484375,-0.27162328362464905,-0.2956499755382538,0.12296067923307419
1772045648838951000,4.971950927734375,-0.14293931424617767,-0.2024630308151245,0.055842094123363495
1772045648848936700,4.981936767578125,0.2598416209220886,-0.4768599271774292,-0.02839151956140995
1772045648858923000,4.991923095703125,1.017653465270996,-1.0398756265640259,-0.3340827226638794
1772045648868908800,5.00190869140625,2.1052873134613037,-1.4296778440475464,-0.7509707808494568
1772045648878893800,5.011893798828125,3.2253689765930176,-1.23836350440979,-0.9909591674804688
1772045648888879900,5.0218798828125,4.097461223602295,-0.7866666316986084,-0.7422026991844177
1772045648898866000,5.031865966796875,4.749186992645264,-0.5159595012664795,-0.12999121844768524
1772045648908852000,5.04185205078125,4.581700801849365,-0.40931153297424316,0.6902292966842651
1772045648918837800,5.051837646484375,2.8558309078216553,-0.3517102897167206,1.4348843097686768
1772045648928824000,5.061823974609375,0.08106066286563873,0.290414959192276,1.605910301208496
1772045648938808800,5.071808837890625,-2.2634310722351074,1.4847815036773682,1.4092483520507812
1772045648948795000,5.081794921875,-3.2993173599243164,2.4833405017852783,1.3605282306671143
1772045648958780700,5.09178076171875,-3.069340944290161,2.6823582649230957,1.4138224124908447
1772045648968767000,5.10176708984375,-2.2535653114318848,2.193800210952759,1.3654016256332397
1772045648978752800,5.111752685546875,-1.5079578161239624,1.4688878059387207,1.2152725458145142
1772045648988737800,5.12173779296875,-1.072282075881958,0.8395218253135681,1.1312870979309082
1772045648998724000,5.13172412109375,-0.9065738320350647,0.4754919707775116,1.1219735145568848
1772045649008710000,5.1417099609375,-0.8775196671485901,0.39935457706451416,1.1374351978302002
1772045649018696000,5.151696044921875,-0.9485059976577759,0.5283708572387695,1.1141655445098877
1772045649028682000,5.161681884765625,-1.076025128364563,0.7499419450759888,1.0347497463226318
1772045649038668000,5.17166796875,-1.1779013872146606,0.8944312334060669,0.9323344230651855
1772045649048652800,5.18165283203125,-1.1749054193496704,0.7506784200668335,0.8794108629226685
1772045649058638800,5.191638916015625,-1.0528687238693237,0.29309913516044617,0.8749697804450989
1772045649068625000,5.201625,-0.870711088180542,-0.34552690386772156,0.9238696098327637
1772045649078611000,5.21161083984375,-0.7037037014961243,-0.9450715184211731,1.0044565200805664
1772045649088596700,5.2215966796875,-0.6576966643333435,-1.3339568376541138,1.1132632493972778
1772045649098581800,5.231581787109375,-0.6819546222686768,-1.4808951616287231,1.1857017278671265
1772045649108568000,5.241568115234375,-0.6861000657081604,-1.4985214471817017,1.2040854692459106
1772045649118553900,5.251553955078125,-0.6037178635597229,-1.4451020956039429,1.1566869020462036
1772045649128540000,5.261539794921875,-0.40172040462493896,-1.3650270700454712,1.0745741128921509
1772045649138526000,5.27152587890625,-0.10715137422084808,-1.292553424835205,0.9773479700088501
1772045649148512000,5.281511962890625,0.2103748619556427,-1.2022262811660767,0.8915781378746033
1772045649158496800,5.291496826171875,0.4893247187137604,-1.1326042413711548,0.800457239151001
1772045649168482800,5.30148291015625,0.6886642575263977,-1.0940583944320679,0.7142508625984192
1772045649178466800,5.311466796875,0.7891943454742432,-1.0294189453125,0.6165053844451904
1772045649188452900,5.321452880859375,0.8215522766113281,-0.9599266052246094,0.49938318133354187
1772045649198439000,5.33143896484375,0.8275619745254517,-0.9003735780715942,0.3895741403102875
1772045649208424700,5.3414248046875,0.823188841342926,-0.8574188351631165,0.3220037519931793
1772045649218411000,5.351410888671875,0.813622772693634,-0.8492746353149414,0.294497013092041
1772045649228396000,5.36139599609375,0.7896308302879333,-0.8635144233703613,0.28538966178894043
1772045649238381800,5.3713818359375,0.7709333300590515,-0.8612760305404663,0.2638944685459137
1772045649248367900,5.381367919921875,0.7325642704963684,-0.8319889307022095,0.19926507771015167
1772045649258354000,5.39135400390625,0.6544870138168335,-0.7687806487083435,0.08873936533927917
1772045649268340000,5.401340087890625,0.5519065856933594,-0.6618220210075378,-0.06425071507692337
1772045649278324700,5.41132470703125,0.44796231389045715,-0.5419890880584717,-0.23759613931179047
1772045649288310800,5.421310791015625,0.38240787386894226,-0.41496390104293823,-0.40097078680992126
1772045649298296800,5.431296875,0.3649170398712158,-0.2941029965877533,-0.5275473594665527
1772045649308283000,5.441282958984375,0.404162734746933,-0.11973217874765396,-0.6029301881790161
1772045649318268700,5.4512685546875,0.4652676284313202,0.07879502326250076,-0.6647893190383911
1772045649328254000,5.46125390625,0.5014888048171997,0.30130812525749207,-0.7536737322807312
1772045649338240000,5.471239990234375,0.4360612630844116,0.5079827308654785,-0.9053263664245605
1772045649348225800,5.481225830078125,0.1908532977104187,0.6370617151260376,-1.0662814378738403
1772045649358212000,5.491212158203125,-0.11460727453231812,0.5930039882659912,-1.1227716207504272
1772045649368198000,5.501197998046875,-0.1343061625957489,0.1342189759016037,-1.126250147819519
1772045649378184000,5.511183837890625,0.4459340572357178,-0.6052838563919067,-1.0305683612823486
1772045649388168700,5.521168701171875,1.6943578720092773,-1.2447926998138428,-0.8466136455535889
1772045649398155000,5.531155029296875,3.0778589248657227,-1.510457992553711,-0.7248435020446777
1772045649408140800,5.541140869140625,4.1365251541137695,-1.5306752920150757,-0.3625347912311554
1772045649418126800,5.551126953125,4.3139424324035645,-1.2042287588119507,-0.13369949162006378
1772045649428113000,5.56111279296875,2.57953143119812,-0.1505175679922104,-0.08719674497842789
1772045649438098000,5.571097900390625,-0.22601521015167236,1.1159499883651733,-0.04576434940099716
1772045649448084000,5.581083984375,-2.432577610015869,2.377793550491333,0.0798250064253807
1772045649458069800,5.59106982421875,-3.3296117782592773,3.096799612045288,0.3774862587451935
1772045649468056000,5.60105615234375,-3.0639166831970215,2.990588426589966,0.8839991092681885
1772045649478041900,5.611041748046875,-2.335677146911621,2.0050711631774902,1.3388475179672241
1772045649488027000,5.62102685546875,-1.826942801475525,0.6951380968093872,1.5905088186264038
1772045649498012700,5.6310126953125,-1.6968176364898682,-0.27341175079345703,1.6561990976333618
1772045649507999000,5.6409990234375,-1.7751281261444092,-0.6674098372459412,1.5821892023086548
1772045649517984800,5.65098486328125,-1.9029513597488403,-0.5204651355743408,1.3516316413879395
1772045649527970800,5.660970703125,-1.9673798084259033,-0.1422879546880722,1.0423861742019653
1772045649537955800,5.670955810546875,-1.947832703590393,0.1953289657831192,0.7466813325881958
1772045649547942000,5.68094189453125,-1.8893555402755737,0.39506155252456665,0.49814701080322266
1772045649557928000,5.690927978515625,-1.8104612827301025,0.377627968788147,0.3103789687156677
1772045649567913700,5.700913818359375,-1.7569656372070312,0.21564781665802002,0.14790062606334686
1772045649577900000,5.710900146484375,-1.788575530052185,0.04157428443431854,-0.03168512135744095
1772045649587885800,5.7208857421875,-1.8383476734161377,-0.09622219949960709,-0.24913941323757172
1772045649597871900,5.730871826171875,-1.8019243478775024,-0.22607366740703583,-0.5038209557533264
1772045649607857000,5.74085693359375,-1.604742407798767,-0.3803791403770447,-0.7312114834785461
1772045649617843000,5.750843017578125,-1.2686669826507568,-0.530691385269165,-0.8643285036087036
1772045649627828700,5.760828857421875,-0.8551151156425476,-0.6338689923286438,-0.8662510514259338
1772045649637815000,5.77081494140625,-0.46230071783065796,-0.6398739218711853,-0.7361577749252319
1772045649647800800,5.78080078125,-0.14250805974006653,-0.5887782573699951,-0.5024634599685669
1772045649657785900,5.790785888671875,0.10562210530042648,-0.5145748853683472,-0.21761707961559296
1772045649667772000,5.80077197265625,0.20161126554012299,-0.46201401948928833,0.07444095611572266
1772045649677758000,5.810758056640625,0.07229775935411453,-0.4585455060005188,0.316385418176651
1772045649687744000,5.820743896484375,-0.2325226366519928,-0.5442398190498352,0.4719110429286957
1772045649697729800,5.830729736328125,-0.5816007256507874,-0.6814296245574951,0.5079270601272583
1772045649707714800,5.84071484375,-0.8534848093986511,-0.7894014120101929,0.4188191592693329
1772045649717700900,5.850700927734375,-0.970505952835083,-0.816278874874115,0.2504085898399353
1772045649727687000,5.86068701171875,-0.9311859607696533,-0.7533012628555298,0.0591234527528286
1772045649737672700,5.870672607421875,-0.7700767517089844,-0.6271350383758545,-0.11915281414985657
1772045649747659000,5.880658935546875,-0.5465807914733887,-0.47927701473236084,-0.27239489555358887
1772045649757644800,5.890644775390625,-0.3327227830886841,-0.3121439516544342,-0.3787120282649994
1772045649767629800,5.9006298828125,-0.16969506442546844,-0.17270521819591522,-0.4422706365585327
1772045649777616000,5.910615966796875,-0.07281485199928284,-0.08097556233406067,-0.4812558591365814
1772045649787602000,5.920601806640625,-0.04801156371831894,-0.017272016033530235,-0.5289336442947388
1772045649797588000,5.930587890625,-0.07245618849992752,0.04713227599859238,-0.5984956622123718
1772045649807573800,5.94057373046875,-0.1125120222568512,0.10917717218399048,-0.6608619093894958
1772045649817558800,5.950558837890625,-0.16105638444423676,0.1433497965335846,-0.6822028756141663
1772045649827544800,5.960544921875,-0.14389190077781677,0.14620563387870789,-0.6737236380577087
1772045649837531000,5.97053076171875,0.04359515756368637,0.19105778634548187,-0.7221968770027161
1772045649847516700,5.9805166015625,0.48408859968185425,0.3041917383670807,-0.977583110332489
1772045649857503000,5.9905029296875,1.313783884048462,0.524325966835022,-1.4070343971252441
1772045649867488800,6.00048876953125,2.3461151123046875,0.8242825865745544,-1.8669592142105103
1772045649877473800,6.010473876953125,3.2202818393707275,1.1772594451904297,-2.3010220527648926
1772045649887460000,6.020460205078125,3.6013143062591553,1.6077567338943481,-2.384904384613037
1772045649897446000,6.03044580078125,3.42195987701416,2.0365352630615234,-2.0699095726013184
1772045649907432000,6.040431884765625,2.5383846759796143,2.308889150619507,-1.6383931636810303
1772045649917417700,6.050417724609375,0.9571000337600708,2.286000967025757,-1.3252307176589966
1772045649927403000,6.060403076171875,-0.8218653798103333,2.1704468727111816,-1.2143752574920654
1772045649937388800,6.070388916015625,-2.153630495071411,2.2733495235443115,-1.3257938623428345
1772045649947374800,6.080374755859375,-2.809180974960327,2.5651566982269287,-1.6204664707183838
1772045649957361000,6.09036083984375,-2.911569833755493,2.9029808044433594,-1.977658987045288
1772045649967347000,6.100346923828125,-2.7939088344573975,3.145789861679077,-2.3386824131011963
1772045649977332000,6.11033203125,-2.6938157081604004,3.328275203704834,-2.653609037399292
1772045649987317800,6.12031787109375,-2.6054046154022217,3.561933994293213,-2.845475673675537
1772045649997304000,6.130303955078125,-2.4362287521362305,3.7565696239471436,-2.9074010848999023
1772045650007289900,6.140289794921875,-2.2414937019348145,3.840892791748047,-2.8423900604248047
1772045650017276000,6.15027587890625,-2.0932457447052,3.825573444366455,-2.701352119445801
1772045650027262000,6.160261962890625,-2.0108916759490967,3.7179672718048096,-2.510732650756836
1772045650037247000,6.1702470703125,-1.9970623254776,3.5739314556121826,-2.3242008686065674
1772045650047232800,6.180232666015625,-2.0137319564819336,3.4281156063079834,-2.165640115737915
1772045650057218800,6.19021875,-1.9916486740112305,3.2985479831695557,-2.037515640258789
1772045650067204900,6.200204833984375,-1.9302198886871338,3.2643229961395264,-1.9267529249191284
1772045650077191000,6.21019091796875,-1.8670332431793213,3.3403983116149902,-1.8246599435806274
1772045650087176000,6.220176025390625,-1.800638198852539,3.506155014038086,-1.6923222541809082
1772045650097161700,6.23016162109375,-1.7057467699050903,3.6878883838653564,-1.518405795097351
1772045650107148000,6.24014794921875,-1.5687565803527832,3.8927907943725586,-1.3513182401657104
1772045650117133800,6.2501337890625,-1.4227356910705566,4.151397705078125,-1.2426567077636719
1772045650127120000,6.260119873046875,-1.2946853637695312,4.4283671379089355,-1.2109767198562622
1772045650137106000,6.27010595703125,-1.2348273992538452,4.692027568817139,-1.2156386375427246
1772045650147091000,6.280091064453125,-1.2286369800567627,4.8871870040893555,-1.173084020614624
1772045650157076700,6.29007666015625,-1.2560197114944458,4.982930660247803,-1.0344499349594116
1772045650167063000,6.30006298828125,-1.2608343362808228,4.991677761077881,-0.7933530211448669
1772045650177049300,6.31004931640625,-1.1947954893112183,4.926609992980957,-0.5712456703186035
1772045650187035400,6.320035400390625,-1.0707310438156128,4.784293174743652,-0.42100974917411804
1772045650197020400,6.3300205078125,-0.9002189636230469,4.639501571655273,-0.2891579568386078
1772045650207006200,6.340006103515625,-0.6902438998222351,4.497432231903076,-0.12326449155807495
1772045650216992300,6.3499921875,-0.47923922538757324,4.328146457672119,0.05254221335053444
1772045650226978300,6.359978271484375,-0.30549749732017517,4.12272310256958,0.20189081132411957
1772045650236964400,6.36996435546875,-0.21190470457077026,3.8555567264556885,0.30165842175483704
1772045650246950400,6.379950439453125,-0.23818178474903107,3.4859392642974854,0.38999590277671814
1772045650256935400,6.389935302734375,-0.3189285397529602,3.0266165733337402,0.5182974338531494
1772045650266921200,6.399921142578125,-0.391051709651947,2.553128242492676,0.6547304391860962
1772045650276907300,6.4099072265625,-0.447609007358551,2.136533498764038,0.7581412196159363
1772045650286893300,6.419893310546875,-0.4928429424762726,1.8154466152191162,0.8009824156761169
1772045650296879400,6.42987939453125,-0.5077454447746277,1.6192322969436646,0.7853086590766907
1772045650306865200,6.439865234375,-0.4818885028362274,1.5455291271209717,0.7330721616744995
1772045650316850200,6.44985009765625,-0.4116111397743225,1.551186203956604,0.687390923500061
1772045650326836200,6.459836181640625,-0.31760266423225403,1.601349115371704,0.6637980341911316
1772045650336822300,6.469822265625,-0.2216138243675232,1.6691607236862183,0.6606965065002441
1772045650346808300,6.479808349609375,-0.13874328136444092,1.7187168598175049,0.6566331386566162
1772045650356794400,6.48979443359375,-0.07898595184087753,1.6977039575576782,0.6417889595031738
1772045650366779400,6.499779296875,-0.03611220791935921,1.6148818731307983,0.6206114888191223
1772045650376765200,6.50976513671875,-0.021946322172880173,1.45650315284729,0.5932134389877319
1772045650386751500,6.51975146484375,-0.0635167732834816,1.2282154560089111,0.5864049196243286
1772045650396737300,6.5297373046875,-0.11862131208181381,0.9870350956916809,0.627101719379425
1772045650406723300,6.539723388671875,-0.15399953722953796,0.7879592180252075,0.6888840794563293
1772045650416709000,6.549709228515625,-0.1556943655014038,0.6489706635475159,0.7327596545219421
1772045650426694400,6.5596943359375,-0.11745212972164154,0.5735800862312317,0.7129018306732178
1772045650436680200,6.56968017578125,-0.05666067823767662,0.5325183868408203,0.6357290148735046
1772045650446666200,6.579666259765625,0.014046724885702133,0.5097471475601196,0.5417752265930176
1772045650456652300,6.58965234375,0.07382483780384064,0.4749622941017151,0.45438098907470703
1772045650466638300,6.599638427734375,0.11590566486120224,0.39590662717819214,0.3659808337688446
1772045650476624100,6.6096240234375,0.13722160458564758,0.2713252902030945,0.2918379008769989
1772045650486609200,6.619609130859375,0.13936085999011993,0.15154603123664856,0.21707935631275177
1772045650496595500,6.629595458984375,0.10762583464384079,0.06765672564506531,0.16269999742507935
1772045650506581200,6.639581298828125,0.04950970038771629,0.02016599290072918,0.1556379199028015
1772045650516567300,6.6495673828125,0.01034338679164648,0.00931014958769083,0.21343810856342316
1772045650526553300,6.65955322265625,0.008848669938743114,-0.004391555208712816,0.29393741488456726
1772045650536539400,6.669539306640625,0.046540651470422745,-0.05518309399485588,0.3852825164794922
1772045650546524200,6.679524169921875,0.11823881417512894,-0.1540011167526245,0.47502049803733826
1772045650556510200,6.68951025390625,0.20683631300926208,-0.2917368710041046,0.5574160218238831
1772045650566496300,6.699496337890625,0.3018400967121124,-0.47206422686576843,0.6363816857337952
1772045650576482300,6.709482421875,0.3815019130706787,-0.7018937468528748,0.7078457474708557
1772045650586468000,6.719468017578125,0.4374266266822815,-0.9897946715354919,0.7631992101669312
1772045650596454400,6.729454345703125,0.4719659686088562,-1.342536211013794,0.7909685373306274
1772045650606440200,6.739440185546875,0.49916258454322815,-1.7332650423049927,0.8026790618896484
1772045650616425200,6.74942529296875,0.5260301828384399,-2.1703383922576904,0.8166433572769165
1772045650626411300,6.759411376953125,0.5541660785675049,-2.6779489517211914,0.872738242149353
1772045650636397300,6.769397216796875,0.5732340216636658,-3.289677619934082,1.02846097946167
1772045650646383400,6.77938330078125,0.6038527488708496,-3.958364725112915,1.300473928451538
1772045650656369200,6.789369140625,0.6574528813362122,-4.672565937042236,1.6329303979873657
1772045650666355500,6.79935546875,0.7494136095046997,-5.40433406829834,1.9410420656204224
1772045650676340200,6.80934033203125,0.8719903826713562,-6.1181817054748535,2.206254720687866
1772045650686326300,6.819326171875,1.0332671403884888,-6.784355640411377,2.436095714569092
1772045650696312000,6.82931201171875,1.233723759651184,-7.346252918243408,2.61509108543396
1772045650706298400,6.83929833984375,1.4612003564834595,-7.722499370574951,2.7347419261932373
1772045650716284200,6.8492841796875,1.6962342262268066,-7.866307735443115,2.76434326171875
1772045650726270200,6.859270263671875,1.953605055809021,-7.7864155769348145,2.6738779544830322
1772045650736255500,6.86925537109375,2.2717294692993164,-7.471161365509033,2.4618186950683594
1772045650746241300,6.8792412109375,2.7270302772521973,-7.029784679412842,2.1357080936431885
1772045650756227300,6.889227294921875,3.324906349182129,-6.509654521942139,1.7775222063064575
1772045650766213000,6.899213134765625,4.003755569458008,-5.881186008453369,1.4314959049224854
1772045650776199400,6.909199462890625,4.657209873199463,-5.221529960632324,1.1142609119415283
1772045650786185200,6.919185302734375,5.210960865020752,-4.677074909210205,0.8737379312515259
1772045650796170200,6.929170166015625,5.554463863372803,-4.27182149887085,0.730789303779602
1772045650806156300,6.93915625,5.60439920425415,-3.9392709732055664,0.6799634099006653
1772045650816142300,6.949142333984375,5.36150598526001,-3.5837960243225098,0.7213619947433472
1772045650826128100,6.959128173828125,4.962301254272461,-3.05123233795166,0.8536109328269958
1772045650836114400,6.969114501953125,4.569988250732422,-2.3741025924682617,1.0968263149261475
1772045650846100200,6.979100341796875,4.291600227355957,-1.736641526222229,1.3812042474746704
1772045650856086300,6.989086181640625,4.259098529815674,-1.1639788150787354,1.6397937536239624
1772045650866071300,6.9990712890625,4.631784439086914,-0.8680181503295898,1.916566252708435
1772045650876057300,7.009057373046875,5.3385233879089355,-1.1330701112747192,2.3673694133758545
1772045650886043400,7.01904345703125,6.001814842224121,-1.8617087602615356,3.0871381759643555
1772045650896029200,7.029029296875,6.31510591506958,-2.64524507522583,3.9464235305786133
1772045650906015500,7.039015380859375,6.000375747680664,-3.2896549701690674,4.628493309020996
1772045650916001300,7.049001220703125,4.967234134674072,-3.5747079849243164,4.701145648956299
1772045650925986300,7.058986328125,3.214885950088501,-2.963663101196289,3.602567672729492
1772045650935972000,7.06897216796875,0.7184614539146423,-1.1202772855758667,1.3350247144699097
1772045650945958400,7.07895849609375,-1.6777268648147583,1.714073896408081,-1.1246271133422852
1772045650955944200,7.088944091796875,-3.0107924938201904,4.433529376983643,-2.891613483428955
1772045650965930200,7.09893017578125,-3.1080238819122314,6.060991287231445,-3.708981990814209
1772045650975916300,7.108916259765625,-2.4328298568725586,5.965178489685059,-3.839573621749878
1772045650985901300,7.1189013671875,-1.7226613759994507,4.390591621398926,-3.4513299465179443
1772045650995887400,7.128887451171875,-1.274262547492981,2.181670904159546,-2.7314200401306152
1772045651005873200,7.138873046875,-1.165645718574524,0.4670655429363251,-2.000680685043335
1772045651015859500,7.148859375,-1.1890088319778442,-0.2769114077091217,-1.5060361623764038
1772045651025845200,7.15884521484375,-1.2279129028320312,-0.18784190714359283,-1.2966946363449097
1772045651035831300,7.168831298828125,-1.2730438709259033,0.3559289872646332,-1.3741945028305054
1772045651045817300,7.1788173828125,-1.3367969989776611,0.9124318957328796,-1.6604719161987305
1772045651055802400,7.18880224609375,-1.3974448442459106,1.2460476160049438,-1.9579615592956543
1772045651065788200,7.1987880859375,-1.4430363178253174,1.2537319660186768,-2.084247350692749
1772045651075774200,7.208774169921875,-1.466603398323059,0.9782580733299255,-1.9497044086456299
1772045651085760300,7.21876025390625,-1.4918705224990845,0.5022958517074585,-1.5940967798233032
1772045651095746300,7.228746337890625,-1.4739381074905396,-0.10301775485277176,-1.0963088274002075
1772045651105732000,7.238732177734375,-1.4706034660339355,-0.6297928094863892,-0.5578370094299316
1772045651115717400,7.24871728515625,-1.5151690244674683,-1.0212286710739136,-0.03681565821170807
1772045651125703400,7.258703369140625,-1.694054365158081,-1.1360294818878174,0.49881672859191895
1772045651135689200,7.268689208984375,-2.0701682567596436,-1.000319242477417,0.9959609508514404
1772045651145675300,7.27867529296875,-2.6118624210357666,-0.7148557901382446,1.3218499422073364
1772045651155661300,7.288661376953125,-3.1750411987304688,-0.38014623522758484,1.3477678298950195
1772045651165647400,7.2986474609375,-3.4920654296875,-0.26437610387802124,1.053236961364746
1772045651175633200,7.308633056640625,-3.4208130836486816,-0.5514259934425354,0.5706629157066345
1772045651185619000,7.318618896484375,-2.957001209259033,-1.084347128868103,0.06524357944726944
1772045651195604700,7.328604736328125,-2.173637866973877,-1.6609904766082764,-0.3000292181968689
1772045651205591000,7.338591064453125,-1.2132619619369507,-2.0223867893218994,-0.4753224849700928
1772045651215576800,7.348576904296875,-0.24883805215358734,-2.023158550262451,-0.4759182333946228
1772045651225563000,7.35856298828125,0.6306345462799072,-1.7371933460235596,-0.40170133113861084
1772045651235549000,7.368548828125,1.3244292736053467,-1.2599804401397705,-0.3321310579776764
1772045651245535000,7.378534912109375,1.7036799192428589,-0.7103530168533325,-0.30934736132621765
1772045651255519700,7.388519775390625,1.6814252138137817,-0.06952540576457977,-0.38618651032447815
1772045651265505800,7.398505859375,1.3196016550064087,0.6503550410270691,-0.6307224035263062
1772045651275491800,7.408491943359375,0.6867640614509583,1.522450566291809,-1.1272592544555664
1772045651285478000,7.418477783203125,-0.09365002065896988,2.4948432445526123,-1.9354230165481567
1772045651295463700,7.428463623046875,-0.7560117840766907,3.4275221824645996,-3.0005788803100586
1772045651305450000,7.438449951171875,-1.0407429933547974,4.209089756011963,-4.120521545410156
1772045651315435000,7.44843505859375,-0.8648869395256042,4.695897579193115,-5.120541095733643
1772045651325420800,7.4584208984375,-0.413688063621521,4.7640604972839355,-5.810392379760742
1772045651335406800,7.46840673828125,0.00404764711856842,4.4496235847473145,-6.023180961608887
1772045651345393000,7.478392822265625,0.28008708357810974,3.7455286979675293,-5.771301746368408
1772045651355379000,7.48837890625,0.4790870249271393,2.8840954303741455,-5.171608924865723
1772045651365364700,7.49836474609375,0.44195377826690674,2.290745496749878,-4.417737007141113
1772045651375350000,7.50835009765625,0.06955172121524811,2.286987066268921,-3.6745316982269287
1772045651385335800,7.518335693359375,-0.750766932964325,3.156954050064087,-3.003464937210083
1772045651395321900,7.52832177734375,-1.561149001121521,4.409571170806885,-2.4532628059387207
1772045651405307600,7.5383076171875,-2.021550416946411,5.64735746383667,-1.814266562461853
1772045651415294000,7.5482939453125,-2.086780548095703,6.577737331390381,-1.164297342300415
1772045651425279700,7.55827978515625,-1.8872652053833008,7.0303521156311035,-0.6231761574745178
1772045651435265800,7.568265869140625,-1.5691466331481934,6.926640510559082,-0.17907512187957764
1772045651445251000,7.5782509765625,-1.2635267972946167,6.389489650726318,0.19172225892543793
1772045651455236900,7.58823681640625,-1.0473809242248535,5.611299991607666,0.5177357792854309
1772045651465223000,7.598222900390625,-0.9251278042793274,4.804202556610107,0.8042885661125183
1772045651475209000,7.608208984375,-0.9029409885406494,4.175902366638184,1.0352293252944946
1772045651485195000,7.618195068359375,-0.9416370391845703,3.8461735248565674,1.158206820487976
1772045651495180800,7.628180908203125,-1.0055962800979614,3.862741708755493,1.1755889654159546
1772045651505166800,7.638166748046875,-1.027175784111023,4.066416263580322,1.1131696701049805
1772045651515152000,7.64815185546875,-0.958267092704773,4.342294216156006,1.0155925750732422
1772045651525138000,7.658137939453125,-0.816754162311554,4.597187519073486,0.9205725789070129
1772045651535123700,7.668123779296875,-0.6222957372665405,4.689907073974609,0.8393133878707886
1772045651545110000,7.678110107421875,-0.43845510482788086,4.58723783493042,0.7875537276268005
1772045651555095800,7.688095703125,-0.320580393075943,4.232761859893799,0.7941429615020752
1772045651565081900,7.698081787109375,-0.2921086549758911,3.6427581310272217,0.8786569237709045
1772045651575067000,7.70806689453125,-0.33733099699020386,2.9362282752990723,1.0207736492156982
1772045651585053000,7.718052978515625,-0.4264644384384155,2.272987127304077,1.1325280666351318
1772045651595039000,7.7280390625,-0.531024158000946,1.7454259395599365,1.1810191869735718
1772045651605024800,7.738024658203125,-0.5905398726463318,1.3606436252593994,1.1886143684387207
1772045651615011000,7.748010986328125,-0.6042117476463318,1.1636648178100586,1.2420735359191895
1772045651624996900,7.757996826171875,-0.5559746623039246,1.1482093334197998,1.3530058860778809
1772045651634983000,7.76798291015625,-0.4395058751106262,1.2145801782608032,1.433534860610962
1772045651644967700,7.7779677734375,-0.3001462519168854,1.3077900409698486,1.4410951137542725
1772045651654954000,7.7879541015625,-0.15715232491493225,1.3624155521392822,1.40181303024292
1772045651664939800,7.797939697265625,-0.051096558570861816,1.3130303621292114,1.3543020486831665
1772045651674925800,7.80792578125,-0.033404380083084106,1.1287107467651367,1.2995854616165161
1772045651684911900,7.817911865234375,-0.1117945984005928,0.8458771109580994,1.2332780361175537
1772045651694898000,7.82789794921875,-0.2575100064277649,0.5136014223098755,1.1719046831130981
1772045651704883000,7.837883056640625,-0.40283069014549255,0.16403622925281525,1.114820957183838
1772045651714868700,7.84786865234375,-0.49741366505622864,-0.0908152312040329,1.0543456077575684
1772045651724855000,7.85785498046875,-0.5240516662597656,-0.24504467844963074,0.9600401520729065
1772045651734840800,7.8678408203125,-0.502880334854126,-0.2919176518917084,0.8464017510414124
1772045651744827000,7.877826904296875,-0.429781436920166,-0.20679906010627747,0.7224261164665222
1772045651754813000,7.88781298828125,-0.3430294990539551,-0.040845513343811035,0.5931752324104309
1772045651764799000,7.897799072265625,-0.2576948404312134,0.15264883637428284,0.4563627541065216
1772045651774783700,7.90778369140625,-0.1701578050851822,0.33837661147117615,0.3319089710712433
1772045651784769800,7.917769775390625,-0.08750570565462112,0.4892583191394806,0.23256398737430573
1772045651794755800,7.927755859375,-0.04427887126803398,0.5628915429115295,0.14239254593849182
1772045651804742000,7.937741943359375,-0.0423445850610733,0.565498411655426,0.09525321424007416
1772045651814727700,7.947727783203125,-0.05765829607844353,0.4800724685192108,0.05530126392841339
1772045651824714000,7.9577138671875,-0.09672356396913528,0.310736745595932,0.02206578105688095
1772045651834699000,7.967698974609375,-0.1518416851758957,0.10064662247896194,0.01376417651772499
1772045651844684800,7.977684814453125,-0.20964962244033813,-0.11678868532180786,0.04712165519595146
1772045651854670800,7.9876708984375,-0.22880999743938446,-0.28198084235191345,0.0920955166220665
1772045651864657000,7.997656982421875,-0.19814233481884003,-0.3714972138404846,0.10904248803853989
1772045651874643000,8.007642822265625,-0.14332357048988342,-0.41507506370544434,0.0879899337887764
1772045651884628700,8.017628662109376,-0.09142519533634186,-0.39617979526519775,0.048594653606414795
1772045651894615000,8.027614990234374,-0.059220120310783386,-0.34096208214759827,0.001135791651904583
1772045651904599800,8.037599853515625,-0.0458473302423954,-0.2889418303966522,-0.028368467465043068
1772045651914585900,8.0475859375,-0.06417547166347504,-0.2584044337272644,-0.038092467933893204
1772045651924572000,8.057572021484376,-0.1160576343536377,-0.2464699149131775,-0.0330362543463707
1772045651934558000,8.067557861328124,-0.1948467195034027,-0.24747498333454132,-0.013267876580357552
1772045651944543700,8.077543701171875,-0.25277289748191833,-0.27123117446899414,0.014717042446136475
1772045651954529800,8.08752978515625,-0.28193026781082153,-0.3163137137889862,0.02756626345217228
1772045651964515000,8.09751513671875,-0.27753403782844543,-0.383586049079895,0.035815007984638214
1772045651974500900,8.1075009765625,-0.24760623276233673,-0.4367493987083435,0.06479046493768692
1772045651984487000,8.11748681640625,-0.2001485824584961,-0.5026937127113342,0.11812342703342438
1772045651994473000,8.127472900390625,-0.15029233694076538,-0.5731508731842041,0.18391549587249756
1772045652004459000,8.137458984375,-0.10617443174123764,-0.6489222645759583,0.25774526596069336
1772045652014444800,8.14744482421875,-0.06361046433448792,-0.7553413510322571,0.3136964440345764
1772045652024429800,8.157429931640625,-0.027674617245793343,-0.8940714001655579,0.34368690848350525
1772045652034415900,8.167415771484375,-0.0016006724908947945,-1.0277289152145386,0.34766674041748047
1772045652044402000,8.17740185546875,0.025477882474660873,-1.152656078338623,0.3354991674423218
1772045652054387700,8.1873876953125,0.05277208983898163,-1.2877079248428345,0.31327295303344727
1772045652064374000,8.1973740234375,0.07833666354417801,-1.4410676956176758,0.28635531663894653
1772045652074359800,8.20735986328125,0.10948365926742554,-1.6344577074050903,0.2527558207511902
1772045652084344800,8.2173447265625,0.16461074352264404,-1.8787767887115479,0.24338307976722717
1772045652094331000,8.227330810546874,0.24524754285812378,-2.1907284259796143,0.2973270118236542
1772045652104317000,8.23731689453125,0.3394721448421478,-2.5738980770111084,0.4518967866897583
1772045652114303000,8.247302978515625,0.42849069833755493,-3.0098044872283936,0.67518150806427
1772045652124288800,8.257288818359376,0.48700597882270813,-3.4669241905212402,0.9141396284103394
1772045652134275000,8.267275146484375,0.5269065499305725,-3.9375250339508057,1.1251047849655151
1772045652144260900,8.2772607421875,0.5694327354431152,-4.432004928588867,1.2804661989212036
1772045652154246000,8.287245849609375,0.6247910261154175,-4.965905666351318,1.3754558563232422
1772045652164231700,8.297231689453126,0.7239488363265991,-5.516829967498779,1.4118456840515137
1772045652174218000,8.307218017578125,0.8741647005081177,-6.058571815490723,1.3987616300582886
1772045652184203800,8.317203857421875,1.0849764347076416,-6.549429416656494,1.3765490055084229
1772045652194189800,8.32718994140625,1.3566585779190063,-6.952028751373291,1.3621716499328613
1772045652204176000,8.33717578125,1.6851568222045898,-7.246893882751465,1.3650003671646118
1772045652214161000,8.347160888671874,2.0639491081237793,-7.396649360656738,1.3867394924163818
1772045652224147000,8.35714697265625,2.4767675399780273,-7.414807319641113,1.408333420753479
1772045652234132700,8.3671328125,2.9083685874938965,-7.267306804656982,1.3990323543548584
1772045652244119000,8.377119140625,3.3289408683776855,-6.934356689453125,1.3438631296157837
1772045652254104800,8.387104736328125,3.6860692501068115,-6.455109596252441,1.232954978942871
1772045652264091000,8.3970908203125,3.9302926063537598,-5.857885837554932,1.0953447818756104
1772045652274076000,8.407075927734375,4.059270858764648,-5.166691303253174,0.9244296550750732
1772045652284062000,8.41706201171875,4.064477920532227,-4.4070539474487305,0.7126411199569702
1772045652294047700,8.4270478515625,4.011016845703125,-3.6485023498535156,0.4834369421005249
1772045652304034000,8.437033935546875,3.9938416481018066,-2.9545578956604004,0.27861490845680237
1772045652314019800,8.447019775390626,4.076866626739502,-2.3698432445526123,0.13482601940631866
1772045652324006000,8.457005859375,4.19061803817749,-1.903965950012207,0.0805698111653328
1772045652333991000,8.466990966796875,4.22925329208374,-1.5192419290542603,0.12624329328536987
1772045652343977000,8.47697705078125,4.136337757110596,-1.162317156791687,0.2075842171907425
1772045652353963000,8.486962890625,3.914763927459717,-0.8422647714614868,0.2570023834705353
1772045652363948800,8.49694873046875,3.6953582763671875,-0.6141631007194519,0.2851116955280304
1772045652373935000,8.50693505859375,3.6491122245788574,-0.4867716133594513,0.3528366684913635
1772045652383921000,8.5169208984375,3.7852210998535156,-0.484342485666275,0.4707036018371582
1772045652393906000,8.526906005859376,4.011765003204346,-0.5283347368240356,0.5856722593307495
1772045652403891700,8.5368916015625,4.128848552703857,-0.5459092259407043,0.6253068447113037
1772045652413878000,8.5468779296875,4.001612186431885,-0.5784801840782166,0.6260826587677002
1772045652423863800,8.55686376953125,3.677644729614258,-0.7799649238586426,0.7514033913612366
1772045652433849900,8.566849853515626,3.321460485458374,-1.2329115867614746,1.0611903667449951
1772045652443835000,8.5768349609375,2.985543966293335,-1.8640722036361694,1.5161691904067993
1772045652453821000,8.586821044921875,2.611938953399658,-2.4219985008239746,1.9914404153823853
1772045652463807000,8.596806884765625,2.0170862674713135,-2.4445106983184814,2.164856433868408
1772045652473792800,8.606792724609376,1.1544185876846313,-1.8785181045532227,1.6550630331039429
1772045652483779000,8.616779052734374,0.20412659645080566,-0.8909849524497986,0.6283258199691772
1772045652493764900,8.626764892578125,-0.4254859685897827,0.2661875784397125,-0.43994957208633423
1772045652503750000,8.63675,-0.5979613661766052,1.328107476234436,-1.1752465963363647
1772045652513735700,8.646735595703126,-0.4301992654800415,2.068742513656616,-1.4231340885162354
1772045652523722000,8.656721923828124,-0.21745887398719788,2.337246894836426,-1.239044427871704
1772045652533707800,8.666707763671875,-0.1742813140153885,2.1275253295898438,-0.8369612097740173
1772045652543693800,8.67669384765625,-0.3484399616718292,1.6147021055221558,-0.3861292004585266
1772045652553680000,8.686679931640626,-0.6224963068962097,1.0721607208251953,0.040942780673503876
1772045652563665000,8.696664794921874,-0.9082846641540527,0.6564553380012512,0.3599390685558319
1772045652573651000,8.70665087890625,-1.1408387422561646,0.4812004566192627,0.5520523190498352
1772045652583637000,8.716636962890625,-1.2873238325119019,0.47460418939590454,0.6497427821159363
1772045652593623000,8.726623046875,-1.3496249914169312,0.5531466603279114,0.7128841876983643
1772045652603608800,8.73660888671875,-1.364672064781189,0.6188222765922546,0.7755337953567505
1772045652613595000,8.746594970703125,-1.360272765159607,0.5837734341621399,0.8511720895767212
1772045652623580000,8.756579833984375,-1.3409463167190552,0.4089399576187134,0.9415474534034729
1772045652633566000,8.76656591796875,-1.3087170124053955,0.18341122567653656,1.0287115573883057
1772045652643551700,8.7765517578125,-1.265364646911621,-0.08322259783744812,1.1138049364089966
1772045652653538000,8.7865380859375,-1.196027159690857,-0.3487975597381592,1.2016245126724243
1772045652663523800,8.79652392578125,-1.1171071529388428,-0.6158522963523865,1.2617582082748413
1772045652673508900,8.8065087890625,-1.0500056743621826,-0.8206092119216919,1.2839246988296509
1772045652683495000,8.816494873046874,-0.994779646396637,-0.9775364995002747,1.2522541284561157
1772045652693481000,8.82648095703125,-0.9744696021080017,-0.9509757161140442,1.1730117797851562
1772045652703467000,8.836467041015625,-1.0481345653533936,-0.7400802373886108,1.045859694480896
1772045652713452800,8.846452880859376,-1.2303740978240967,-0.3829042315483093,0.8727736473083496
1772045652723439000,8.856439208984375,-1.5624037981033325,0.048086751252412796,0.6310979127883911
1772045652733423900,8.866423828125,-2.0218188762664795,0.4416516125202179,0.3149988353252411
1772045652743410000,8.876409912109375,-2.418844699859619,0.6720927953720093,0.0427946001291275
1772045652753395700,8.886395751953126,-2.5258493423461914,0.5747737288475037,-0.0613190159201622
1772045652763382000,8.896382080078125,-2.2767422199249268,0.13587607443332672,0.022837642580270767
1772045652773367800,8.906367919921875,-1.7007240056991577,-0.49415725469589233,0.299554705619812
1772045652783353900,8.916353759765625,-0.9452695846557617,-1.0934803485870361,0.7041694521903992
1772045652793339000,8.9263388671875,-0.16258352994918823,-1.3679736852645874,1.090497374534607
1772045652803325000,8.936324951171875,0.5409663915634155,-1.323726773262024,1.335618495941162
1772045652813311000,8.94631103515625,1.0944817066192627,-1.0804672241210938,1.425012230873108
1772045652823296800,8.956296875,1.450419306755066,-0.7914043664932251,1.3882451057434082
1772045652833283000,8.966282958984374,1.5697318315505981,-0.5452273488044739,1.2558902502059937
1772045652843267800,8.976267822265624,1.4680609703063965,-0.3847885727882385,1.0817131996154785
1772045652853254000,8.98625390625,1.166631817817688,-0.3088802099227905,0.914330244064331
1772045652863239700,8.99623974609375,0.8267592787742615,-0.24457663297653198,0.8024667501449585
1772045652873226000,9.00622607421875,0.5860449075698853,-0.1885589063167572,0.7407661080360413
1772045652883211800,9.016211669921875,0.5655970573425293,-0.09202510118484497,0.7171945571899414
1772045652893197800,9.02619775390625,0.7675530910491943,0.14187367260456085,0.6935907006263733
1772045652903183000,9.03618310546875,1.1796921491622925,0.5883594751358032,0.7765479683876038
1772045652913169000,9.0461689453125,1.812497615814209,1.2475306987762451,1.2321282625198364
1772045652923155000,9.056155029296875,2.675666093826294,1.2501330375671387,1.9447033405303955
1772045652933141000,9.06614111328125,3.6094911098480225,0.39805683493614197,2.9877114295959473
1772045652943127000,9.076126953125,4.93030309677124,-1.4180110692977905,3.6774866580963135
1772045652953111800,9.08611181640625,5.607076168060303,-2.347287893295288,4.091463565826416
1772045652963097900,9.096097900390625,4.015775680541992,-2.3551080226898193,3.996156692504883
1772045652973084000,9.106083984375,0.983207106590271,-1.8651869297027588,3.3554089069366455
1772045652983070000,9.116070068359376,-1.678069829940796,-0.9124173521995544,2.30942964553833
1772045652993055700,9.1260556640625,-3.139329671859741,0.3468221426010132,1.0755244493484497
1772045653003042000,9.1360419921875,-3.317155599594116,1.6029764413833618,0.05242543667554855
1772045653013027000,9.146027099609375,-2.6626460552215576,2.2326419353485107,-0.6355463266372681
1772045653023012900,9.156012939453126,-1.9244319200515747,2.1450071334838867,-0.9477397203445435
1772045653032999000,9.1659990234375,-1.4099235534667969,1.57464599609375,-0.8576953411102295
1772045653042985000,9.17598486328125,-1.0654315948486328,0.8741369843482971,-0.5791704654693604
1772045653052971000,9.185970947265625,-0.8327312469482422,0.2845173478126526,-0.31347694993019104
1772045653062955800,9.195955810546875,-0.6769593358039856,-0.03146350011229515,-0.15777239203453064
1772045653072941800,9.20594189453125,-0.6031423807144165,-0.09690935164690018,-0.14788486063480377
1772045653082927900,9.215927978515625,-0.5993402600288391,0.0025743318255990744,-0.2528117597103119
1772045653092914000,9.225913818359375,-0.6372005939483643,0.2098657339811325,-0.394690603017807
1772045653102899700,9.235899658203126,-0.7158064842224121,0.4733637869358063,-0.5093902349472046
1772045653112885000,9.245885009765624,-0.8237566351890564,0.7054268717765808,-0.5876008868217468
1772045653122871000,9.25587109375,-0.9180970788002014,0.801236093044281,-0.6147213578224182
1772045653132856800,9.26585693359375,-0.9717168807983398,0.6631937623023987,-0.5746234655380249
1772045653142843000,9.2758427734375,-0.9782045483589172,0.2934122383594513,-0.4747605621814728
1772045653152829000,9.285828857421874,-0.9339582324028015,-0.22510813176631927,-0.31109705567359924
1772045653162814000,9.29581396484375,-0.8761926293373108,-0.7301214337348938,-0.10546666383743286
1772045653172799700,9.3057998046875,-0.894249439239502,-1.007218837738037,0.07164447009563446
1772045653182785300,9.315785400390626,-1.0689198970794678,-0.9657671451568604,0.12789562344551086
1772045653192771300,9.325771240234374,-1.302471399307251,-0.7325964570045471,0.016501720994710922
1772045653202757400,9.33575732421875,-1.5027925968170166,-0.3547143340110779,-0.21423861384391785
1772045653212743200,9.3457431640625,-1.645418643951416,0.08187735080718994,-0.5330331325531006
1772045653222728400,9.355728515625,-1.6402229070663452,0.40986114740371704,-0.8787320256233215
1772045653232714500,9.365714599609374,-1.4432451725006104,0.5821682214736938,-1.1815211772918701
1772045653242700300,9.3757001953125,-1.0850460529327393,0.577706515789032,-1.3836365938186646
1772045653252686300,9.385686279296875,-0.5895049571990967,0.4207477569580078,-1.5000593662261963
1772045653262672400,9.39567236328125,-0.023405855521559715,0.21870878338813782,-1.5596662759780884
1772045653272657400,9.405657470703124,0.5222446918487549,0.0671517550945282,-1.5806152820587158
1772045653282643200,9.415643310546875,0.9620895981788635,-0.044938161969184875,-1.5887426137924194
1772045653292629500,9.42562939453125,1.2372723817825317,-0.04964955896139145,-1.6207653284072876
1772045653302615300,9.435615234375,1.318368673324585,0.07762235403060913,-1.653938889503479
1772045653312601300,9.445601318359374,1.203162431716919,0.3400776982307434,-1.686798095703125
1772045653322586400,9.45558642578125,0.8844470977783203,0.7679082751274109,-1.7568341493606567
1772045653332572400,9.465572509765625,0.4478365480899811,1.319516897201538,-1.896177887916565
1772045653342558500,9.475558349609376,0.06658618897199631,1.9014185667037964,-2.0864133834838867
1772045653352544300,9.485544189453124,-0.1883174628019333,2.5062148571014404,-2.270029067993164
1772045653362530600,9.495530517578125,-0.31276604533195496,2.9882123470306396,-2.4283905029296875
1772045653372515300,9.505515380859375,-0.28689584136009216,3.2769219875335693,-2.5881636142730713
1772045653382501400,9.51550146484375,-0.07179257273674011,3.4139983654022217,-2.7694249153137207
1772045653392487200,9.525487060546874,0.22527079284191132,3.17718768119812,-2.998983144760132
1772045653402473500,9.535473388671875,0.4873688220977783,2.379739761352539,-3.207315444946289
1772045653412459300,9.545459228515625,0.6487082242965698,1.3638331890106201,-3.269163131713867
1772045653422444300,9.5554443359375,0.6854800581932068,0.48025211691856384,-3.0448451042175293
1772045653432430300,9.565430419921874,0.48844894766807556,0.10228881984949112,-2.513058662414551
1772045653442416400,9.57541650390625,-0.05404490977525711,0.46029213070869446,-1.9428261518478394
1772045653452402400,9.58540234375,-0.9451966285705566,1.4220540523529053,-1.5849742889404297
1772045653462388200,9.59538818359375,-1.973262906074524,2.775228500366211,-1.3859844207763672
1772045653472374500,9.60537451171875,-2.7899460792541504,4.259283542633057,-1.2131778001785278
1772045653482359300,9.615359375,-3.1994755268096924,5.458957195281982,-1.0732872486114502
1772045653492345300,9.625345458984375,-3.243516683578491,6.106117248535156,-0.9842401742935181
1772045653502331400,9.635331298828126,-3.1187679767608643,6.27695369720459,-0.9250973463058472
1772045653512317400,9.6453173828125,-2.9512486457824707,5.959835052490234,-0.9027542471885681
1772045653522302500,9.655302490234375,-2.7796459197998047,5.564478397369385,-0.8588191270828247
1772045653532288300,9.665288330078125,-2.581387758255005,5.302578926086426,-0.7513437867164612
1772045653542274600,9.675274658203126,-2.414241313934326,5.131558418273926,-0.6503958702087402
1772045653552260400,9.68526025390625,-2.327284336090088,5.177290916442871,-0.6139100193977356
1772045653562246400,9.695246337890625,-2.261617422103882,5.337956428527832,-0.6061500310897827
1772045653572231200,9.705231201171875,-2.194066047668457,5.265899181365967,-0.6310308575630188
1772045653582217500,9.715217529296876,-2.088622570037842,5.104245185852051,-0.5770500302314758
1772045653592203300,9.725203369140624,-1.8964611291885376,4.908062934875488,-0.4059094190597534
1772045653602189300,9.735189208984375,-1.6805323362350464,4.596764087677002,-0.20172791182994843
1772045653612175400,9.74517529296875,-1.5117251873016357,4.24519157409668,-0.031748201698064804
1772045653622160400,9.755160400390626,-1.4119141101837158,3.941072940826416,0.1435571312904358
1772045653632146400,9.765146484375,-1.356628656387329,3.717214345932007,0.37469902634620667
1772045653642132200,9.77513232421875,-1.2389605045318604,3.4799892902374268,0.6001259088516235
1772045653652118500,9.785118408203125,-0.911629319190979,3.4221832752227783,0.7763531804084778
1772045653662104300,9.795104248046876,-0.5927639007568359,3.524665594100952,0.8592802286148071
1772045653672089300,9.80508935546875,-0.3375888466835022,3.649510622024536,0.8367519974708557
1772045653682075100,9.8150751953125,-0.07523641735315323,3.7739462852478027,0.7220515012741089
1772045653692061400,9.8250615234375,0.1908208280801773,3.942267656326294,0.6205978393554688
1772045653702047200,9.835047119140626,0.3967832624912262,4.136713981628418,0.6112804412841797
1772045653712033300,9.845033203125,0.43459242582321167,4.2143988609313965,0.7039453983306885
1772045653722018600,9.8550185546875,0.23479078710079193,4.012986183166504,0.8989148139953613
1772045653732004400,9.86500439453125,-0.07703182101249695,3.573348045349121,1.1751664876937866
1772045653741990400,9.874990478515626,-0.4358012080192566,2.832322835922241,1.4340988397598267
1772045653751976400,9.8849765625,-0.7697797417640686,2.005941867828369,1.6420565843582153
1772045653761962500,9.89496240234375,-1.0217376947402954,1.4666723012924194,1.8398250341415405
1772045653771947300,9.904947265625,-1.1212214231491089,1.261494755744934,2.0567409992218018
1772045653781933300,9.914933349609376,-1.0218924283981323,1.2569948434829712,2.176990032196045
1772045653791919400,9.92491943359375,-0.8657100796699524,1.1817044019699097,2.230433702468872
1772045653801905400,9.934905517578125,-0.757773220539093,1.0262471437454224,2.2242894172668457
1772045653811891200,9.94489111328125,-0.6660733819007874,0.7974070310592651,2.1540439128875732
1772045653821876200,9.954876220703126,-0.5397519469261169,0.5707830190658569,2.043950080871582
1772045653831862500,9.964862548828124,-0.3755786716938019,0.40000465512275696,1.8835821151733398
1772045653841848300,9.974848388671875,-0.1689804047346115,0.36944490671157837,1.6904799938201904
1772045653851834400,9.98483447265625,0.04217871278524399,0.5145240426063538,1.5111236572265625
1772045653861820400,9.9948203125,0.1798267811536789,0.8140630125999451,1.324869990348816
1772045653871805400,10.004805419921874,0.21547719836235046,1.0792940855026245,1.121561050415039
1772045653881791200,10.014791259765625,0.23061199486255646,1.1805270910263062,0.9056816101074219
1772045653891777300,10.02477734375,0.29525595903396606,1.187686800956726,0.7009665966033936
1772045653901763300,10.034763427734376,0.4029098153114319,1.1262907981872559,0.5289736390113831
1772045653911749400,10.044749267578124,0.48650455474853516,1.0344297885894775,0.3950786590576172
1772045653921734400,10.054734375,0.5081992745399475,0.9059539437294006,0.31095826625823975
1772045653931720400,10.064720458984375,0.46947425603866577,0.7048705816268921,0.258305162191391
1772045653941706500,10.07470654296875,0.3864060938358307,0.47241154313087463,0.19631487131118774
1772045653951692300,10.0846923828125,0.3512912392616272,0.322687029838562,0.1662166267633438
1772045653961678300,10.09467822265625,0.3666129410266876,0.2797355651855469,0.1628219038248062
1772045653971663400,10.104663330078125,0.3881816267967224,0.3247903883457184,0.175242081284523
1772045653981649400,10.1146494140625,0.39091983437538147,0.4093658924102783,0.21343018114566803
1772045653991635200,10.12463525390625,0.3443709909915924,0.5685076117515564,0.32742467522621155
1772045654001621500,10.13462158203125,0.24081158638000488,0.6198405027389526,0.4791807532310486
1772045654011606500,10.1446064453125,0.16572055220603943,0.5071632266044617,0.5739194750785828
1772045654021592300,10.15459228515625,0.1356401890516281,0.25737112760543823,0.5666216015815735
1772045654031578400,10.164578369140624,0.13003289699554443,0.04342448711395264,0.5111899971961975
1772045654041564400,10.174564453125,0.17196255922317505,-0.04528992995619774,0.42043009400367737
1772045654051550500,10.184550537109375,0.26131266355514526,-0.07462092489004135,0.3072289824485779
1772045654061535200,10.19453515625,0.36168909072875977,-0.1348840892314911,0.15539442002773285
1772045654071521300,10.204521240234374,0.4125877022743225,-0.19720391929149628,-0.019402166828513145
1772045654081507300,10.21450732421875,0.4749085009098053,-0.09394491463899612,-0.11961328238248825
1772045654091493400,10.224493408203125,0.5081601738929749,0.006022157613188028,-0.1751290112733841
1772045654101479200,10.234479248046876,0.5185851454734802,0.10342446714639664,-0.18434083461761475
1772045654111464200,10.244464111328124,0.47652772068977356,0.1989469975233078,-0.15742851793766022
1772045654121450500,10.254450439453125,0.36996108293533325,0.261940062046051,-0.10682422667741776
